File: 2C/Test1408.csv
Request Year:,2018,,,,,,,,,,,,
Test:,1408,,,,,,,,,,,,
Test Description:,,,,,,,,,,,,,
TestRegime Name:,Aging_Performance,,,,,,,,,,,,
TestRegime Suffix:,SHP_LC,,,,,,,,,,,,
TestRegime CellSize:,18650,,,,,,,,,,,,
TestRegime Version:,1,,,,,,,,,,,,
Number Of Cells:,1,,,,,,,,,,,,
LotID:,,,,,,,,,,,,,
Lot Description:,,,,,,,,,,,,,
Date Made:,1/21/2003 12:00 AM,,,,,,,,,,,,
Origin:,Other,,,,,,,,,,,,
Requestor:,Admin,,,,,,,,,,,,
Product ID:,Default product,,,,,,,,,,,,
Storage Temp:,R.T./AMB,,,,,,,,,,,,
Storage Delay:,0 days,,,,,,,,,,,,
Test Temp:,R.T./AMB,,,,,,,,,,,,
Start Time:,3/27/2018 10:02 AM,,,,,,,,,,,,
End Time:,3/27/2018 4:21 PM,,,,,,,,,,,,
Operator Instructions:,,,,,,,,,,,,,
Test,Cell,Rack,Shelf,Position,Cell ID,Step,Total Time (Seconds),Voltage (V),Current (A),Charge Capacity (mAh),Discharge Capacity (mAh),TC1 (Â°C),
1408,1,SBT2050,2,9,,0,1,3.27506,0,0,0,24.9,
1408,1,SBT2050,2,9,,0,31,3.275015,0,0,0,24.9,
1408,1,SBT2050,2,9,,0,61,3.27549,0,0,0,24.9,
1408,1,SBT2050,2,9,,0,91,3.2758,0,0,0,24.8,
1408,1,SBT2050,2,9,,0,121,3.27568,0,0,0,24.8,
1408,1,SBT2050,2,9,,0,151,3.27606,0,0,0,24.8,
1408,1,SBT2050,2,9,,0,181,3.27633,0,0,0,24.8,
1408,1,SBT2050,2,9,,0,211,3.27668,0,0,0,24.8,
1408,1,SBT2050,2,9,,0,241,3.276783,0,0,0,24.8,
1408,1,SBT2050,2,9,,0,271,3.2771,0,0,0,24.8,
1408,1,SBT2050,2,9,,1,301,2.97778,-2.9363,0,0.814,24.9,
1408,1,SBT2050,2,9,,1,331,2.49853,-2.5572,0,25.016,25.8,
1408,1,SBT2050,2,9,,1,361,2.499546,-1.8011,0,42.492,26.9,
1408,1,SBT2050,2,9,,1,391,2.49946,-1.4561,0,55.978,27.6,
1408,1,SBT2050,2,9,,1,421,2.49952,-1.1962,0,66.999,28,
1408,1,SBT2050,2,9,,1,451,2.49964,-0.9731,0,76.015,28.2,
1408,1,SBT2050,2,9,,1,481,2.49952,-0.7777,0,83.299,28.2,
1408,1,SBT2050,2,9,,1,511,2.49949,-0.5894,0,88.992,28.2,
1408,1,SBT2050,2,9,,1,541,2.49933,-0.41399,0,93.162,28.1,
1408,1,SBT2050,2,9,,1,571,2.49895,-0.27549,0,96.004,27.9,
1408,1,SBT2050,2,9,,1,601,2.49847,-0.1795,0,97.868,27.7,
1408,1,SBT2050,2,9,,1,631,2.49927,-0.11924,0,99.087,27.5,
1408,1,SBT2050,2,9,,1,661,2.499546,-0.08633,0,99.93,27.2,
1408,1,SBT2050,2,9,,1,691,2.49994,-0.06766,0,100.564,27,
1408,1,SBT2050,2,9,,1,721,2.49977,-0.0563,0,101.078,26.8,
1408,1,SBT2050,2,9,,1,751,2.4998,-0.04881,0,101.514,26.6,
1408,1,SBT2050,2,9,,1,781,2.499713,-0.04334,0,101.898,26.4,
1408,1,SBT2050,2,9,,1,811,2.49995,-0.039158,0,102.241,26.3,
1408,1,SBT2050,2,9,,1,841,2.49986,-0.03593,0,102.553,26.2,
1408,1,SBT2050,2,9,,1,871,2.49993,-0.033513,0,102.842,26,
1408,1,SBT2050,2,9,,1,901,2.49988,-0.031368,0,103.112,26,
1408,1,SBT2050,2,9,,1,931,2.49994,-0.029567,0,103.366,25.9,
1408,1,SBT2050,2,9,,1,961,2.50014,-0.028117,0,103.606,25.8,
1408,1,SBT2050,2,9,,1,991,2.50011,-0.026894,0,103.834,25.7,
1408,1,SBT2050,2,9,,1,1021,2.49999,-0.025647,0,104.052,25.6,
1408,1,SBT2050,2,9,,1,1051,2.4999,-0.024538,0,104.261,25.5,
1408,1,SBT2050,2,9,,1,1081,2.49996,-0.023508,0,104.462,25.5,
1408,1,SBT2050,2,9,,1,1111,2.50012,-0.022855,0,104.654,25.4,
1408,1,SBT2050,2,9,,1,1141,2.500035,-0.022003,0,104.841,25.4,
1408,1,SBT2050,2,9,,1,1171,2.49998,-0.02141,0,105.021,25.3,
1408,1,SBT2050,2,9,,1,1201,2.49998,-0.020559,0,105.195,25.3,
1408,1,SBT2050,2,9,,1,1231,2.50006,-0.019992,0,105.364,25.2,
1408,1,SBT2050,2,9,,1,1261,2.5,-0.019363,0,105.528,25.2,
1408,1,SBT2050,2,9,,1,1291,2.49996,-0.018819,0,105.687,25.2,
1408,1,SBT2050,2,9,,1,1321,2.49982,-0.018226,0,105.842,25.2,
1408,1,SBT2050,2,9,,1,1351,2.50019,-0.017923,0,105.992,25.1,
1408,1,SBT2050,2,9,,1,1381,2.49996,-0.01737,0,106.139,25.1,
1408,1,SBT2050,2,9,,1,1411,2.500023,-0.016913,0,106.282,25.1,
1408,1,SBT2050,2,9,,1,1441,2.50013,-0.016511,0,106.422,25.1,
1408,1,SBT2050,2,9,,1,1471,2.5,-0.016192,0,106.558,25.1,
1408,1,SBT2050,2,9,,1,1501,2.50001,-0.015699,0,106.691,25.1,
1408,1,SBT2050,2,9,,1,1531,2.49994,-0.015188,0,106.82,25,
1408,1,SBT2050,2,9,,1,1561,2.50009,-0.015024,0,106.946,25,
1408,1,SBT2050,2,9,,1,1591,2.50001,-0.014542,0,107.07,25,
1408,1,SBT2050,2,9,,1,1621,2.500035,-0.014091,0,107.189,25,
1408,1,SBT2050,2,9,,1,1651,2.49999,-0.0138,0,107.306,25,
1408,1,SBT2050,2,9,,1,1681,2.49992,-0.013462,0,107.42,25,
1408,1,SBT2050,2,9,,1,1711,2.49994,-0.013296,0,107.532,25,
1408,1,SBT2050,2,9,,1,1741,2.50013,-0.012836,0,107.64,25,
1408,1,SBT2050,2,9,,1,1771,2.500023,-0.012443,0,107.746,25,
1408,1,SBT2050,2,9,,1,1801,2.49994,-0.012222,0,107.85,24.9,
1408,1,SBT2050,2,9,,1,1831,2.49994,-0.011975,0,107.951,24.9,
1408,1,SBT2050,2,9,,1,1861,2.49996,-0.011652,0,108.049,24.9,
1408,1,SBT2050,2,9,,1,1891,2.50006,-0.011459,0,108.146,24.9,
1408,1,SBT2050,2,9,,1,1921,2.500035,-0.011289,0,108.241,24.9,
1408,1,SBT2050,2,9,,1,1951,2.50001,-0.010962,0,108.334,24.9,
1408,1,SBT2050,2,9,,1,1981,2.50006,-0.010846,0,108.425,24.9,
1408,1,SBT2050,2,9,,1,2011,2.49995,-0.010642,0,108.515,24.9,
1408,1,SBT2050,2,9,,1,2041,2.49992,-0.010671,0,108.603,24.9,
1408,1,SBT2050,2,9,,1,2071,2.50007,-0.010445,0,108.69,24.9,
1408,1,SBT2050,2,9,,2,2100,3.13964,2.936,5.831,108.752,24.9,
1408,1,SBT2050,2,9,,2,2130,3.36412,2.9357,30.298,108.752,25,
1408,1,SBT2050,2,9,,2,2160,3.477044,2.936,54.764,108.752,25.2,
1408,1,SBT2050,2,9,,2,2190,3.5501,2.9361,79.231,108.752,25.4,
1408,1,SBT2050,2,9,,2,2220,3.59991,2.9361,103.697,108.752,25.6,
1408,1,SBT2050,2,9,,2,2250,3.62147,2.9357,128.163,108.752,25.9,
1408,1,SBT2050,2,9,,2,2280,3.62956,2.9356,152.63,108.752,26.3,
1408,1,SBT2050,2,9,,2,2310,3.63583,2.9362,177.096,108.752,26.6,
1408,1,SBT2050,2,9,,2,2340,3.641762,2.9358,201.562,108.752,26.8,
1408,1,SBT2050,2,9,,2,2370,3.64824,2.9359,226.029,108.752,27.1,
1408,1,SBT2050,2,9,,2,2400,3.65521,2.9358,250.495,108.752,27.4,
1408,1,SBT2050,2,9,,2,2430,3.66231,2.9364,274.961,108.752,27.5,
1408,1,SBT2050,2,9,,2,2460,3.66967,2.9361,299.428,108.752,27.7,
1408,1,SBT2050,2,9,,2,2490,3.67707,2.9359,323.894,108.752,27.8,
1408,1,SBT2050,2,9,,2,2520,3.68473,2.9356,348.36,108.752,27.9,
1408,1,SBT2050,2,9,,2,2550,3.69166,2.9358,372.827,108.752,28,
1408,1,SBT2050,2,9,,2,2580,3.69856,2.9361,397.293,108.752,28.2,
1408,1,SBT2050,2,9,,2,2610,3.704554,2.9357,421.759,108.752,28.3,
1408,1,SBT2050,2,9,,2,2640,3.71033,2.9361,446.225,108.752,28.3,
1408,1,SBT2050,2,9,,2,2670,3.71612,2.9359,470.692,108.752,28.3,
1408,1,SBT2050,2,9,,2,2700,3.7218,2.9361,495.158,108.752,28.4,
1408,1,SBT2050,2,9,,2,2730,3.727066,2.9362,519.624,108.752,28.4,
1408,1,SBT2050,2,9,,2,2760,3.732668,2.936,544.091,108.752,28.5,
1408,1,SBT2050,2,9,,2,2790,3.737962,2.9364,568.557,108.752,28.5,
1408,1,SBT2050,2,9,,2,2820,3.74365,2.9355,593.023,108.752,28.5,
1408,1,SBT2050,2,9,,2,2850,3.74898,2.9362,617.49,108.752,28.5,
1408,1,SBT2050,2,9,,2,2880,3.75465,2.9358,641.956,108.752,28.5,
1408,1,SBT2050,2,9,,2,2910,3.76031,2.9357,666.422,108.752,28.5,
1408,1,SBT2050,2,9,,2,2940,3.765936,2.936,690.889,108.752,28.6,
1408,1,SBT2050,2,9,,2,2970,3.7715,2.9361,715.355,108.752,28.6,
1408,1,SBT2050,2,9,,2,3000,3.77669,2.936,739.822,108.752,28.6,
1408,1,SBT2050,2,9,,2,3030,3.7821,2.936,764.288,108.752,28.6,
1408,1,SBT2050,2,9,,2,3060,3.7876,2.9366,788.754,108.752,28.6,
1408,1,SBT2050,2,9,,2,3090,3.79325,2.9359,813.22,108.752,28.7,
1408,1,SBT2050,2,9,,2,3120,3.798744,2.936,837.687,108.752,28.7,
1408,1,SBT2050,2,9,,2,3150,3.8046,2.9361,862.153,108.752,28.6,
1408,1,SBT2050,2,9,,2,3180,3.80986,2.9358,886.619,108.752,28.7,
1408,1,SBT2050,2,9,,2,3210,3.81567,2.9358,911.086,108.752,28.7,
1408,1,SBT2050,2,9,,2,3240,3.82179,2.9365,935.552,108.752,28.7,
1408,1,SBT2050,2,9,,2,3270,3.82763,2.9362,960.018,108.752,28.8,
1408,1,SBT2050,2,9,,2,3300,3.83352,2.9363,984.485,108.752,28.8,
1408,1,SBT2050,2,9,,2,3330,3.83973,2.9359,1008.951,108.752,28.8,
1408,1,SBT2050,2,9,,2,3360,3.845862,2.9358,1033.417,108.752,28.8,
1408,1,SBT2050,2,9,,2,3390,3.85207,2.9357,1057.884,108.752,28.8,
1408,1,SBT2050,2,9,,2,3420,3.858418,2.936,1082.35,108.752,28.8,
1408,1,SBT2050,2,9,,2,3450,3.86509,2.9364,1106.816,108.752,28.8,
1408,1,SBT2050,2,9,,2,3480,3.87183,2.9362,1131.283,108.752,28.9,
1408,1,SBT2050,2,9,,2,3510,3.878524,2.9361,1155.749,108.752,28.9,
1408,1,SBT2050,2,9,,2,3540,3.88552,2.9361,1180.215,108.752,29,
1408,1,SBT2050,2,9,,2,3570,3.89269,2.9357,1204.682,108.752,29,
1408,1,SBT2050,2,9,,2,3600,3.90017,2.9363,1229.148,108.752,29,
1408,1,SBT2050,2,9,,2,3630,3.90738,2.9362,1253.614,108.752,29.1,
1408,1,SBT2050,2,9,,2,3660,3.915246,2.9356,1278.081,108.752,29.1,
1408,1,SBT2050,2,9,,2,3690,3.923112,2.9359,1302.547,108.752,29.1,
1408,1,SBT2050,2,9,,2,3720,3.93134,2.9363,1327.013,108.752,29.2,
1408,1,SBT2050,2,9,,2,3750,3.93944,2.9357,1351.479,108.752,29.2,
1408,1,SBT2050,2,9,,2,3780,3.94755,2.9361,1375.946,108.752,29.3,
1408,1,SBT2050,2,9,,2,3810,3.95587,2.9359,1400.412,108.752,29.3,
1408,1,SBT2050,2,9,,2,3840,3.96429,2.9363,1424.878,108.752,29.3,
1408,1,SBT2050,2,9,,2,3870,3.97324,2.9358,1449.345,108.752,29.3,
1408,1,SBT2050,2,9,,2,3900,3.9819,2.9361,1473.811,108.752,29.3,
1408,1,SBT2050,2,9,,2,3930,3.99065,2.9363,1498.277,108.752,29.4,
1408,1,SBT2050,2,9,,2,3960,3.99948,2.9358,1522.744,108.752,29.4,
1408,1,SBT2050,2,9,,2,3990,4.00825,2.9357,1547.21,108.752,29.4,
1408,1,SBT2050,2,9,,2,4020,4.01681,2.9364,1571.676,108.752,29.5,
1408,1,SBT2050,2,9,,2,4050,4.02612,2.9361,1596.143,108.752,29.4,
1408,1,SBT2050,2,9,,2,4080,4.03483,2.9361,1620.609,108.752,29.5,
1408,1,SBT2050,2,9,,2,4110,4.0435,2.9356,1645.075,108.752,29.5,
1408,1,SBT2050,2,9,,2,4140,4.05258,2.9361,1669.542,108.752,29.6,
1408,1,SBT2050,2,9,,2,4170,4.06119,2.9358,1694.008,108.752,29.6,
1408,1,SBT2050,2,9,,2,4200,4.07025,2.9361,1718.474,108.752,29.6,
1408,1,SBT2050,2,9,,2,4230,4.078932,2.936,1742.941,108.752,29.6,
1408,1,SBT2050,2,9,,2,4260,4.08768,2.9358,1767.407,108.752,29.6,
1408,1,SBT2050,2,9,,2,4290,4.09657,2.9364,1791.874,108.752,29.7,
1408,1,SBT2050,2,9,,2,4320,4.105288,2.9355,1816.34,108.752,29.7,
1408,1,SBT2050,2,9,,2,4350,4.11389,2.9359,1840.806,108.752,29.7,
1408,1,SBT2050,2,9,,2,4380,4.12327,2.9361,1865.273,108.752,29.7,
1408,1,SBT2050,2,9,,2,4410,4.13183,2.9363,1889.739,108.752,29.8,
1408,1,SBT2050,2,9,,2,4440,4.14067,2.9357,1914.205,108.752,29.8,
1408,1,SBT2050,2,9,,2,4470,4.14999,2.9352,1938.672,108.752,29.8,
1408,1,SBT2050,2,9,,2,4500,4.15019,2.7904,1962.5,108.752,29.8,
1408,1,SBT2050,2,9,,2,4530,4.15001,2.676,1985.269,108.752,29.8,
1408,1,SBT2050,2,9,,2,4560,4.15016,2.5716,2007.134,108.752,29.8,
1408,1,SBT2050,2,9,,2,4590,4.150066,2.472,2028.152,108.752,29.7,
1408,1,SBT2050,2,9,,2,4620,4.15014,2.3771,2048.359,108.752,29.7,
1408,1,SBT2050,2,9,,2,4650,4.15021,2.2849,2067.78,108.752,29.6,
1408,1,SBT2050,2,9,,2,4680,4.1499,2.1949,2086.444,108.752,29.5,
1408,1,SBT2050,2,9,,2,4710,4.150102,2.1089,2104.374,108.752,29.4,
1408,1,SBT2050,2,9,,2,4740,4.14998,2.0224,2121.591,108.752,29.2,
1408,1,SBT2050,2,9,,2,4770,4.150054,1.9423,2138.12,108.752,29.1,
1408,1,SBT2050,2,9,,2,4800,4.150054,1.8643,2153.978,108.752,29,
1408,1,SBT2050,2,9,,2,4830,4.14999,1.7901,2169.2,108.752,28.8,
1408,1,SBT2050,2,9,,2,4860,4.150066,1.7175,2183.816,108.752,28.7,
1408,1,SBT2050,2,9,,2,4890,4.15026,1.6494,2197.848,108.752,28.5,
1408,1,SBT2050,2,9,,2,4920,4.15015,1.5852,2211.319,108.752,28.4,
1408,1,SBT2050,2,9,,2,4950,4.15013,1.5211,2224.255,108.752,28.2,
1408,1,SBT2050,2,9,,2,4980,4.15004,1.4622,2236.682,108.752,28.1,
1408,1,SBT2050,2,9,,2,5010,4.15029,1.4048,2248.623,108.752,28,
1408,1,SBT2050,2,9,,2,5040,4.15002,1.3504,2260.098,108.752,27.8,
1408,1,SBT2050,2,9,,2,5070,4.14991,1.2977,2271.123,108.752,27.7,
1408,1,SBT2050,2,9,,2,5100,4.15019,1.2488,2281.726,108.752,27.6,
1408,1,SBT2050,2,9,,2,5130,4.14993,1.2023,2291.929,108.752,27.5,
1408,1,SBT2050,2,9,,2,5160,4.15011,1.1558,2301.751,108.752,27.3,
1408,1,SBT2050,2,9,,2,5190,4.15009,1.113,2311.207,108.752,27.2,
1408,1,SBT2050,2,9,,2,5220,4.15016,1.0736,2320.326,108.752,27.1,
1408,1,SBT2050,2,9,,2,5250,4.15004,1.0341,2329.112,108.752,27,
1408,1,SBT2050,2,9,,2,5280,4.15024,0.9988,2337.581,108.752,26.9,
1408,1,SBT2050,2,9,,2,5310,4.14995,0.9637,2345.752,108.752,26.8,
1408,1,SBT2050,2,9,,2,5340,4.15014,0.9307,2353.644,108.752,26.7,
1408,1,SBT2050,2,9,,2,5370,4.149792,0.8991,2361.261,108.752,26.6,
1408,1,SBT2050,2,9,,2,5400,4.150078,0.8688,2368.62,108.752,26.5,
1408,1,SBT2050,2,9,,2,5430,4.14978,0.839,2375.735,108.752,26.4,
1408,1,SBT2050,2,9,,2,5460,4.15021,0.8129,2382.616,108.752,26.4,
1408,1,SBT2050,2,9,,2,5490,4.14999,0.7873,2389.28,108.752,26.3,
1408,1,SBT2050,2,9,,2,5520,4.14978,0.7628,2395.736,108.752,26.2,
1408,1,SBT2050,2,9,,2,5550,4.15001,0.7389,2401.991,108.752,26.2,
1408,1,SBT2050,2,9,,2,5580,4.14997,0.7167,2408.052,108.752,26.1,
1408,1,SBT2050,2,9,,2,5610,4.150078,0.6959,2413.935,108.752,26,
1408,1,SBT2050,2,9,,2,5640,4.15014,0.6753,2419.649,108.752,26,
1408,1,SBT2050,2,9,,2,5670,4.15046,0.6557,2425.194,108.752,25.9,
1408,1,SBT2050,2,9,,2,5700,4.15009,0.6358,2430.577,108.752,25.8,
1408,1,SBT2050,2,9,,2,5730,4.15022,0.6178,2435.803,108.752,25.8,
1408,1,SBT2050,2,9,,2,5760,4.14989,0.6017,2440.883,108.752,25.8,
1408,1,SBT2050,2,9,,2,5790,4.15003,0.5858,2445.83,108.752,25.7,
1408,1,SBT2050,2,9,,2,5820,4.15019,0.5704,2450.646,108.752,25.7,
1408,1,SBT2050,2,9,,2,5850,4.150102,0.556,2455.335,108.752,25.7,
1408,1,SBT2050,2,9,,2,5880,4.14986,0.5404,2459.901,108.752,25.6,
1408,1,SBT2050,2,9,,2,5910,4.150364,0.5263,2464.35,108.752,25.6,
1408,1,SBT2050,2,9,,2,5940,4.150364,0.5139,2468.688,108.752,25.5,
1408,1,SBT2050,2,9,,2,5970,4.14998,0.5016,2472.916,108.752,25.5,
1408,1,SBT2050,2,9,,2,6000,4.15023,0.489,2477.041,108.752,25.5,
1408,1,SBT2050,2,9,,2,6030,4.15023,0.4771,2481.065,108.752,25.5,
1408,1,SBT2050,2,9,,2,6060,4.150054,0.46603,2484.994,108.752,25.4,
1408,1,SBT2050,2,9,,2,6090,4.15011,0.45549,2488.832,108.752,25.4,
1408,1,SBT2050,2,9,,2,6120,4.14997,0.44507,2492.583,108.752,25.4,
1408,1,SBT2050,2,9,,2,6150,4.150066,0.43392,2496.245,108.752,25.4,
1408,1,SBT2050,2,9,,2,6180,4.14995,0.42451,2499.821,108.752,25.4,
1408,1,SBT2050,2,9,,2,6210,4.15023,0.41564,2503.321,108.752,25.3,
1408,1,SBT2050,2,9,,2,6240,4.15002,0.40619,2506.743,108.752,25.3,
1408,1,SBT2050,2,9,,2,6270,4.15013,0.39639,2510.089,108.752,25.3,
1408,1,SBT2050,2,9,,2,6300,4.150066,0.38798,2513.355,108.752,25.3,
1408,1,SBT2050,2,9,,2,6330,4.14972,0.38078,2516.554,108.752,25.3,
1408,1,SBT2050,2,9,,2,6360,4.15002,0.37209,2519.689,108.752,25.3,
1408,1,SBT2050,2,9,,2,6390,4.150102,0.36323,2522.752,108.752,25.2,
1408,1,SBT2050,2,9,,2,6420,4.14999,0.3561,2525.749,108.752,25.2,
1408,1,SBT2050,2,9,,2,6450,4.15015,0.34818,2528.684,108.752,25.2,
1408,1,SBT2050,2,9,,2,6480,4.15011,0.34122,2531.557,108.752,25.2,
1408,1,SBT2050,2,9,,2,6510,4.14993,0.3338,2534.368,108.752,25.2,
1408,1,SBT2050,2,9,,2,6540,4.150078,0.32758,2537.123,108.752,25.2,
1408,1,SBT2050,2,9,,2,6570,4.15001,0.32048,2539.823,108.752,25.2,
1408,1,SBT2050,2,9,,2,6600,4.15001,0.31446,2542.466,108.752,25.2,
1408,1,SBT2050,2,9,,2,6630,4.15019,0.30807,2545.061,108.752,25.2,
1408,1,SBT2050,2,9,,2,6660,4.14997,0.30136,2547.606,108.752,25.2,
1408,1,SBT2050,2,9,,2,6690,4.14997,0.29551,2550.093,108.752,25.1,
1408,1,SBT2050,2,9,,2,6720,4.1499,0.28955,2552.531,108.752,25.1,
1408,1,SBT2050,2,9,,2,6750,4.150066,0.2834,2554.92,108.752,25.1,
1408,1,SBT2050,2,9,,2,6780,4.15017,0.27922,2557.261,108.752,25.1,
1408,1,SBT2050,2,9,,2,6810,4.15002,0.27339,2559.562,108.752,25.1,
1408,1,SBT2050,2,9,,2,6840,4.15022,0.26776,2561.818,108.752,25.1,
1408,1,SBT2050,2,9,,2,6870,4.14993,0.26212,2564.026,108.752,25.1,
1408,1,SBT2050,2,9,,2,6900,4.14995,0.25646,2566.187,108.752,25.1,
1408,1,SBT2050,2,9,,2,6930,4.14985,0.25174,2568.307,108.752,25.1,
1408,1,SBT2050,2,9,,2,6960,4.15013,0.24662,2570.387,108.752,25.1,
1408,1,SBT2050,2,9,,2,6990,4.14997,0.24205,2572.422,108.752,25.1,
1408,1,SBT2050,2,9,,2,7020,4.14983,0.23751,2574.418,108.752,25,
1408,1,SBT2050,2,9,,2,7050,4.14989,0.2326,2576.376,108.752,25,
1408,1,SBT2050,2,9,,2,7080,4.1499,0.22821,2578.295,108.752,25,
1408,1,SBT2050,2,9,,2,7110,4.15003,0.22423,2580.181,108.752,25,
1408,1,SBT2050,2,9,,2,7140,4.150054,0.22048,2582.033,108.752,25,
1408,1,SBT2050,2,9,,2,7170,4.1499,0.2159,2583.852,108.752,25,
1408,1,SBT2050,2,9,,2,7200,4.15004,0.21192,2585.632,108.752,25,
1408,1,SBT2050,2,9,,2,7230,4.15002,0.20737,2587.374,108.752,25,
1408,1,SBT2050,2,9,,2,7260,4.15021,0.2039,2589.085,108.752,25,
1408,1,SBT2050,2,9,,2,7290,4.150054,0.19983,2590.766,108.752,25,
1408,1,SBT2050,2,9,,2,7320,4.150102,0.19671,2592.417,108.752,25,
1408,1,SBT2050,2,9,,2,7350,4.15011,0.19319,2594.043,108.752,25,
1408,1,SBT2050,2,9,,2,7380,4.14997,0.18912,2595.634,108.752,25,
1408,1,SBT2050,2,9,,2,7410,4.14997,0.18525,2597.194,108.752,25,
1408,1,SBT2050,2,9,,2,7440,4.15013,0.18234,2598.726,108.752,25,
1408,1,SBT2050,2,9,,2,7470,4.15013,0.17835,2600.23,108.752,25,
1408,1,SBT2050,2,9,,2,7500,4.15001,0.17567,2601.708,108.752,25,
1408,1,SBT2050,2,9,,2,7530,4.15003,0.17257,2603.16,108.752,25,
1408,1,SBT2050,2,9,,2,7560,4.14978,0.16879,2604.582,108.752,25,
1408,1,SBT2050,2,9,,2,7590,4.15004,0.16553,2605.974,108.752,24.9,
1408,1,SBT2050,2,9,,2,7620,4.14999,0.16264,2607.34,108.752,24.9,
1408,1,SBT2050,2,9,,2,7650,4.15004,0.15963,2608.683,108.752,25,
1408,1,SBT2050,2,9,,2,7680,4.14995,0.15676,2610,108.752,25,
1408,1,SBT2050,2,9,,2,7710,4.14993,0.15343,2611.294,108.752,25,
1408,1,SBT2050,2,9,,2,7740,4.14971,0.15114,2612.563,108.752,24.9,
1408,1,SBT2050,2,9,,2,7770,4.14989,0.14882,2613.812,108.752,24.9,
1408,1,SBT2050,2,9,,2,7800,4.14978,0.14571,2615.039,108.752,24.9,
1408,1,SBT2050,2,9,,2,7830,4.15001,0.14329,2616.241,108.752,24.9,
1408,1,SBT2050,2,9,,2,7860,4.14973,0.14119,2617.425,108.752,24.9,
1408,1,SBT2050,2,9,,2,7890,4.150102,0.13791,2618.585,108.752,24.9,
1408,1,SBT2050,2,9,,2,7920,4.14999,0.13597,2619.726,108.752,24.9,
1408,1,SBT2050,2,9,,2,7950,4.15003,0.13346,2620.847,108.752,24.9,
1408,1,SBT2050,2,9,,2,7980,4.14997,0.1311,2621.948,108.752,24.9,
1408,1,SBT2050,2,9,,2,8010,4.15033,0.12861,2623.031,108.752,24.9,
1408,1,SBT2050,2,9,,2,8040,4.15016,0.12644,2624.094,108.752,24.9,
1408,1,SBT2050,2,9,,2,8070,4.15019,0.12407,2625.137,108.752,24.9,
1408,1,SBT2050,2,9,,2,8100,4.14986,0.12231,2626.163,108.752,24.9,
1408,1,SBT2050,2,9,,2,8130,4.149768,0.11919,2627.17,108.752,24.9,
1408,1,SBT2050,2,9,,2,8160,4.15024,0.11626,2628.153,108.752,24.9,
1408,1,SBT2050,2,9,,2,8190,4.150054,0.11565,2629.121,108.752,24.9,
1408,1,SBT2050,2,9,,2,8220,4.15016,0.11371,2630.078,108.752,24.9,
1408,1,SBT2050,2,9,,2,8250,4.15003,0.11107,2631.015,108.752,24.9,
1408,1,SBT2050,2,9,,2,8280,4.1502,0.10974,2631.935,108.752,24.9,
1408,1,SBT2050,2,9,,2,8310,4.15014,0.10764,2632.839,108.752,24.9,
1408,1,SBT2050,2,9,,2,8340,4.14998,0.10625,2633.732,108.752,24.9,
1408,1,SBT2050,2,9,,2,8370,4.15016,0.10343,2634.604,108.752,24.9,
1408,1,SBT2050,2,9,,2,8400,4.14999,0.10182,2635.459,108.752,24.9,
1408,1,SBT2050,2,9,,2,8430,4.15023,0.10003,2636.299,108.752,24.9,
1408,1,SBT2050,2,9,,2,8460,4.1499,0.09827,2637.124,108.752,24.9,
1408,1,SBT2050,2,9,,2,8490,4.14996,0.09665,2637.935,108.752,24.9,
1408,1,SBT2050,2,9,,2,8520,4.15023,0.09458,2638.733,108.752,24.9,
1408,1,SBT2050,2,9,,2,8550,4.15021,0.09355,2639.52,108.752,24.9,
1408,1,SBT2050,2,9,,2,8580,4.15004,0.09194,2640.294,108.752,24.9,
1408,1,SBT2050,2,9,,2,8610,4.15003,0.09,2641.053,108.752,24.9,
1408,1,SBT2050,2,9,,2,8640,4.15004,0.08782,2641.791,108.752,24.9,
1408,1,SBT2050,2,9,,2,8670,4.14985,0.08754,2642.521,108.752,24.9,
1408,1,SBT2050,2,9,,2,8700,4.150054,0.08528,2643.241,108.752,24.9,
1408,1,SBT2050,2,9,,2,8730,4.150102,0.08459,2643.949,108.752,24.9,
1408,1,SBT2050,2,9,,2,8760,4.15004,0.08267,2644.646,108.752,24.9,
1408,1,SBT2050,2,9,,2,8790,4.15011,0.0812,2645.329,108.752,24.9,
1408,1,SBT2050,2,9,,2,8820,4.14995,0.07978,2646.001,108.752,24.9,
1408,1,SBT2050,2,9,,2,8850,4.15001,0.07865,2646.66,108.752,24.9,
1408,1,SBT2050,2,9,,2,8880,4.14989,0.07693,2647.31,108.752,24.9,
1408,1,SBT2050,2,9,,2,8910,4.14997,0.07614,2647.949,108.752,24.9,
1408,1,SBT2050,2,9,,2,8940,4.150102,0.07467,2648.576,108.752,24.9,
1408,1,SBT2050,2,9,,2,8970,4.14998,0.07362,2649.193,108.752,24.9,
1408,1,SBT2050,2,9,,2,9000,4.150054,0.07225,2649.799,108.752,24.9,
1408,1,SBT2050,2,9,,2,9030,4.14988,0.07104,2650.396,108.752,24.9,
1408,1,SBT2050,2,9,,2,9060,4.150066,0.06949,2650.98,108.752,24.9,
1408,1,SBT2050,2,9,,2,9090,4.15016,0.06782,2651.551,108.752,24.9,
1408,1,SBT2050,2,9,,2,9120,4.15003,0.06754,2652.116,108.752,24.9,
1408,1,SBT2050,2,9,,2,9150,4.150066,0.06644,2652.673,108.752,24.8,
1408,1,SBT2050,2,9,,2,9180,4.15014,0.06523,2653.221,108.752,24.9,
1408,1,SBT2050,2,9,,2,9210,4.14999,0.06408,2653.76,108.752,24.9,
1408,1,SBT2050,2,9,,2,9240,4.150078,0.0628,2654.287,108.752,24.9,
1408,1,SBT2050,2,9,,2,9270,4.149792,0.06233,2654.809,108.752,24.9,
1408,1,SBT2050,2,9,,2,9300,4.150066,0.06098,2655.323,108.752,24.9,
1408,1,SBT2050,2,9,,2,9330,4.15014,0.06056,2655.831,108.752,24.9,
1408,1,SBT2050,2,9,,2,9360,4.15029,0.05934,2656.333,108.752,24.9,
1408,1,SBT2050,2,9,,2,9390,4.14998,0.05824,2656.822,108.752,24.9,
1408,1,SBT2050,2,9,,2,9420,4.14997,0.05751,2657.304,108.752,24.9,
1408,1,SBT2050,2,9,,2,9450,4.14983,0.05655,2657.779,108.752,24.9,
1408,1,SBT2050,2,9,,2,9480,4.14995,0.05575,2658.247,108.752,24.9,
1408,1,SBT2050,2,9,,2,9510,4.14968,0.05514,2658.707,108.752,24.9,
1408,1,SBT2050,2,9,,2,9540,4.15013,0.05375,2659.162,108.752,24.9,
1408,1,SBT2050,2,9,,2,9570,4.14978,0.05361,2659.608,108.752,24.8,
1408,1,SBT2050,2,9,,2,9600,4.15011,0.0522,2660.047,108.752,24.8,
1408,1,SBT2050,2,9,,2,9630,4.15021,0.05124,2660.479,108.752,24.8,
1408,1,SBT2050,2,9,,2,9660,4.150054,0.05079,2660.903,108.752,24.9,
1408,1,SBT2050,2,9,,2,9690,4.14993,0.04919,2661.321,108.752,24.8,
1408,1,SBT2050,2,9,,2,9720,4.15003,0.04828,2661.727,108.752,24.9,
1408,1,SBT2050,2,9,,2,9750,4.15022,0.047246,2662.123,108.752,24.9,
1408,1,SBT2050,2,9,,2,9780,4.14993,0.04675,2662.516,108.752,24.8,
1408,1,SBT2050,2,9,,2,9810,4.15004,0.046145,2662.903,108.752,24.9,
1408,1,SBT2050,2,9,,2,9840,4.15011,0.045387,2663.282,108.752,24.8,
1408,1,SBT2050,2,9,,2,9870,4.15016,0.045801,2663.664,108.752,24.8,
1408,1,SBT2050,2,9,,2,9900,4.15003,0.044827,2664.041,108.752,24.9,
1408,1,SBT2050,2,9,,2,9930,4.15009,0.043928,2664.413,108.752,24.8,
1408,1,SBT2050,2,9,,2,9960,4.14989,0.043947,2664.776,108.752,24.8,
1408,1,SBT2050,2,9,,2,9990,4.14985,0.042857,2665.137,108.752,24.9,
1408,1,SBT2050,2,9,,2,10020,4.1504,0.041257,2665.49,108.752,24.9,
1408,1,SBT2050,2,9,,2,10050,4.14986,0.04173,2665.835,108.752,24.9,
1408,1,SBT2050,2,9,,2,10080,4.14993,0.040378,2666.176,108.752,24.9,
1408,1,SBT2050,2,9,,2,10110,4.150054,0.040284,2666.512,108.752,24.9,
1408,1,SBT2050,2,9,,2,10140,4.15004,0.03878,2666.842,108.752,24.9,
1408,1,SBT2050,2,9,,2,10170,4.14986,0.03927,2667.169,108.752,24.9,
1408,1,SBT2050,2,9,,2,10200,4.15022,0.038446,2667.495,108.752,24.8,
1408,1,SBT2050,2,9,,2,10230,4.14998,0.038492,2667.816,108.752,24.8,
1408,1,SBT2050,2,9,,2,10260,4.14999,0.036688,2668.128,108.752,24.8,
1408,1,SBT2050,2,9,,2,10290,4.14983,0.036988,2668.433,108.752,24.8,
1408,1,SBT2050,2,9,,2,10320,4.14997,0.035981,2668.736,108.752,24.9,
1408,1,SBT2050,2,9,,2,10350,4.14996,0.035999,2669.034,108.752,24.8,
1408,1,SBT2050,2,9,,2,10380,4.15022,0.035216,2669.333,108.752,24.8,
1408,1,SBT2050,2,9,,2,10410,4.14995,0.034513,2669.624,108.752,24.8,
1408,1,SBT2050,2,9,,2,10440,4.15017,0.034296,2669.911,108.752,24.9,
1408,1,SBT2050,2,9,,2,10470,4.150078,0.033531,2670.192,108.752,24.9,
1408,1,SBT2050,2,9,,2,10500,4.15021,0.033176,2670.472,108.752,24.8,
1408,1,SBT2050,2,9,,2,10530,4.14997,0.032642,2670.746,108.752,24.8,
1408,1,SBT2050,2,9,,2,10560,4.14995,0.032149,2671.014,108.752,24.8,
1408,1,SBT2050,2,9,,2,10590,4.14995,0.031993,2671.282,108.752,24.8,
1408,1,SBT2050,2,9,,2,10620,4.14989,0.031606,2671.544,108.752,24.8,
1408,1,SBT2050,2,9,,2,10650,4.15011,0.031009,2671.805,108.752,24.8,
1408,1,SBT2050,2,9,,2,10680,4.14991,0.03078,2672.062,108.752,24.8,
1408,1,SBT2050,2,9,,2,10710,4.14997,0.029874,2672.317,108.752,24.8,
1408,1,SBT2050,2,9,,2,10740,4.15002,0.029534,2672.564,108.752,24.8,
1408,1,SBT2050,2,9,,2,10770,4.150066,0.028749,2672.809,108.752,24.8,
1408,1,SBT2050,2,9,,2,10800,4.14986,0.027998,2673.045,108.752,24.8,
1408,1,SBT2050,2,9,,2,10830,4.15001,0.028633,2673.278,108.752,24.8,
1408,1,SBT2050,2,9,,2,10860,4.15021,0.027894,2673.516,108.752,24.8,
1408,1,SBT2050,2,9,,2,10890,4.15021,0.027346,2673.747,108.752,24.9,
1408,1,SBT2050,2,9,,2,10920,4.150078,0.026819,2673.975,108.752,24.8,
1408,1,SBT2050,2,9,,2,10950,4.15027,0.026025,2674.197,108.752,24.8,
1408,1,SBT2050,2,9,,2,10980,4.14982,0.026604,2674.416,108.752,24.9,
1408,1,SBT2050,2,9,,2,11010,4.15015,0.025414,2674.632,108.752,24.8,
1408,1,SBT2050,2,9,,2,11040,4.14992,0.02546,2674.845,108.752,24.8,
1408,1,SBT2050,2,9,,2,11070,4.15017,0.025141,2675.054,108.752,24.8,
1408,1,SBT2050,2,9,,2,11100,4.14998,0.024835,2675.264,108.752,24.8,
1408,1,SBT2050,2,9,,2,11130,4.14998,0.02378,2675.467,108.752,24.8,
1408,1,SBT2050,2,9,,2,11160,4.15028,0.02398,2675.667,108.752,24.8,
1408,1,SBT2050,2,9,,2,11190,4.15021,0.023747,2675.867,108.752,24.8,
1408,1,SBT2050,2,9,,2,11220,4.14984,0.023593,2676.064,108.752,24.8,
1408,1,SBT2050,2,9,,2,11250,4.150066,0.023588,2676.261,108.752,24.8,
1408,1,SBT2050,2,9,,2,11280,4.15021,0.023366,2676.455,108.752,24.8,
1408,1,SBT2050,2,9,,2,11310,4.15009,0.022941,2676.648,108.752,24.8,
1408,1,SBT2050,2,9,,2,11340,4.149804,0.022497,2676.837,108.752,24.8,
1408,1,SBT2050,2,9,,2,11370,4.14991,0.021862,2677.022,108.752,24.8,
1408,1,SBT2050,2,9,,2,11400,4.15004,0.021621,2677.203,108.752,24.8,
1408,1,SBT2050,2,9,,2,11430,4.14985,0.021353,2677.383,108.752,24.8,
1408,1,SBT2050,2,9,,2,11460,4.15003,0.020657,2677.56,108.752,24.8,
1408,1,SBT2050,2,9,,2,11490,4.14998,0.020766,2677.73,108.752,24.8,
1408,1,SBT2050,2,9,,2,11520,4.15009,0.020946,2677.905,108.752,24.8,
1408,1,SBT2050,2,9,,2,11550,4.14966,0.020085,2678.074,108.752,24.8,
1408,1,SBT2050,2,9,,2,11580,4.150066,0.01933,2678.238,108.752,24.9,
1408,1,SBT2050,2,9,,2,11610,4.15001,0.01927,2678.4,108.752,24.9,
1408,1,SBT2050,2,9,,2,11640,4.15009,0.019484,2678.561,108.752,24.8,
1408,1,SBT2050,2,9,,2,11670,4.14989,0.01958,2678.722,108.752,24.8,
1408,1,SBT2050,2,9,,2,11700,4.149756,0.019439,2678.883,108.752,24.8,
1408,1,SBT2050,2,9,,2,11730,4.15024,0.018927,2679.043,108.752,24.8,
1408,1,SBT2050,2,9,,2,11760,4.14992,0.01888,2679.2,108.752,24.8,
1408,1,SBT2050,2,9,,2,11790,4.14974,0.018671,2679.357,108.752,24.8,
1408,1,SBT2050,2,9,,2,11820,4.15011,0.017966,2679.508,108.752,24.8,
1408,1,SBT2050,2,9,,2,11850,4.14995,0.018205,2679.658,108.752,24.8,
1408,1,SBT2050,2,9,,2,11880,4.14991,0.01778,2679.807,108.752,24.9,
1408,1,SBT2050,2,9,,2,11910,4.14993,0.01762,2679.954,108.752,24.9,
1408,1,SBT2050,2,9,,2,11940,4.14995,0.01682,2680.096,108.752,24.8,
1408,1,SBT2050,2,9,,2,11970,4.14995,0.017163,2680.237,108.752,24.8,
1408,1,SBT2050,2,9,,2,12000,4.14999,0.016496,2680.375,108.752,24.8,
1408,1,SBT2050,2,9,,2,12030,4.15003,0.016569,2680.514,108.752,24.8,
1408,1,SBT2050,2,9,,2,12060,4.15002,0.016313,2680.649,108.752,24.8,
1408,1,SBT2050,2,9,,2,12090,4.149768,0.016337,2680.785,108.752,24.8,
1408,1,SBT2050,2,9,,2,12120,4.15017,0.01577,2680.918,108.752,24.8,
1408,1,SBT2050,2,9,,2,12150,4.15009,0.015842,2681.05,108.752,24.8,
1408,1,SBT2050,2,9,,2,12180,4.15002,0.015517,2681.181,108.752,24.8,
1408,1,SBT2050,2,9,,2,12210,4.150054,0.01588,2681.312,108.752,24.9,
1408,1,SBT2050,2,9,,2,12240,4.1499,0.015814,2681.442,108.752,24.8,
1408,1,SBT2050,2,9,,2,12270,4.14972,0.014711,2681.569,108.752,24.8,
1408,1,SBT2050,2,9,,2,12300,4.150102,0.013975,2681.689,108.752,24.8,
1408,1,SBT2050,2,9,,2,12330,4.15014,0.014503,2681.81,108.752,24.8,
1408,1,SBT2050,2,9,,2,12360,4.15013,0.013998,2681.93,108.752,24.8,
1408,1,SBT2050,2,9,,2,12390,4.14983,0.014289,2682.047,108.752,24.8,
1408,1,SBT2050,2,9,,2,12420,4.15002,0.014824,2682.168,108.752,24.8,
1408,1,SBT2050,2,9,,2,12450,4.14985,0.014327,2682.287,108.752,24.8,
1408,1,SBT2050,2,9,,2,12480,4.14995,0.0137,2682.403,108.752,24.9,
1408,1,SBT2050,2,9,,2,12510,4.150054,0.013655,2682.518,108.752,24.8,
1408,1,SBT2050,2,9,,2,12540,4.14998,0.013753,2682.63,108.752,24.8,
1408,1,SBT2050,2,9,,2,12570,4.14998,0.012938,2682.742,108.752,24.8,
1408,1,SBT2050,2,9,,2,12600,4.150102,0.012828,2682.852,108.752,24.8,
1408,1,SBT2050,2,9,,2,12630,4.14988,0.013616,2682.962,108.752,24.8,
1408,1,SBT2050,2,9,,2,12660,4.14986,0.013224,2683.073,108.752,24.8,
1408,1,SBT2050,2,9,,2,12690,4.14989,0.013113,2683.183,108.752,24.8,
1408,1,SBT2050,2,9,,2,12720,4.15011,0.013177,2683.291,108.752,24.8,
1408,1,SBT2050,2,9,,2,12750,4.14997,0.013145,2683.4,108.752,24.8,
1408,1,SBT2050,2,9,,2,12780,4.14997,0.013457,2683.511,108.752,24.8,
1408,1,SBT2050,2,9,,2,12810,4.15004,0.01309,2683.621,108.752,24.8,
1408,1,SBT2050,2,9,,2,12840,4.149768,0.012612,2683.726,108.752,24.8,
1408,1,SBT2050,2,9,,2,12870,4.14999,0.012278,2683.831,108.752,24.8,
1408,1,SBT2050,2,9,,2,12900,4.15002,0.012575,2683.933,108.752,24.8,
1408,1,SBT2050,2,9,,2,12930,4.14996,0.011403,2684.032,108.752,24.8,
1408,1,SBT2050,2,9,,2,12960,4.150102,0.010792,2684.125,108.752,24.9,
1408,1,SBT2050,2,9,,2,12990,4.14998,0.011127,2684.214,108.752,24.8,
1408,1,SBT2050,2,9,,2,13020,4.1499,0.010954,2684.306,108.752,24.8,
1408,1,SBT2050,2,9,,2,13050,4.150078,0.01128,2684.4,108.752,24.8,
1408,1,SBT2050,2,9,,2,13080,4.15001,0.010995,2684.493,108.752,24.8,
1408,1,SBT2050,2,9,,2,13110,4.14991,0.010856,2684.584,108.752,24.8,
1408,1,SBT2050,2,9,,2,13140,4.14986,0.010683,2684.676,108.752,24.8,
1408,1,SBT2050,2,9,,2,13170,4.14998,0.010961,2684.767,108.752,24.8,
1408,1,SBT2050,2,9,,2,13200,4.15027,0.010245,2684.856,108.752,24.8,
1408,1,SBT2050,2,9,,2,13230,4.14995,0.010341,2684.943,108.752,24.8,
1408,1,SBT2050,2,9,,2,13260,4.14995,0.01027,2685.029,108.752,24.8,
1408,1,SBT2050,2,9,,3,13289,4.14873,0,2685.061,108.752,24.8,
1408,1,SBT2050,2,9,,3,13319,4.1488,0,2685.061,108.752,24.8,
1408,1,SBT2050,2,9,,3,13349,4.148668,0,2685.061,108.752,24.8,
1408,1,SBT2050,2,9,,3,13379,4.14866,0,2685.061,108.752,24.8,
1408,1,SBT2050,2,9,,3,13409,4.14854,0,2685.061,108.752,24.8,
1408,1,SBT2050,2,9,,3,13439,4.14822,0,2685.061,108.752,24.8,
1408,1,SBT2050,2,9,,3,13469,4.14833,0,2685.061,108.752,24.8,
1408,1,SBT2050,2,9,,3,13499,4.14825,0,2685.061,108.752,24.8,
1408,1,SBT2050,2,9,,3,13529,4.14806,0,2685.061,108.752,24.8,
1408,1,SBT2050,2,9,,3,13559,4.14818,0,2685.061,108.752,24.8,
1408,1,SBT2050,2,9,,3,13589,4.14829,0,2685.061,108.752,24.8,
1408,1,SBT2050,2,9,,3,13619,4.14829,0,2685.061,108.752,24.8,
1408,1,SBT2050,2,9,,3,13649,4.1479,0,2685.061,108.752,24.8,
1408,1,SBT2050,2,9,,3,13679,4.14782,0,2685.061,108.752,24.8,
1408,1,SBT2050,2,9,,3,13709,4.14767,0,2685.061,108.752,24.8,
1408,1,SBT2050,2,9,,3,13739,4.14786,0,2685.061,108.752,24.9,
1408,1,SBT2050,2,9,,3,13769,4.14767,0,2685.061,108.752,24.8,
1408,1,SBT2050,2,9,,3,13799,4.14773,0,2685.061,108.752,24.8,
1408,1,SBT2050,2,9,,3,13829,4.14772,0,2685.061,108.752,24.8,
1408,1,SBT2050,2,9,,3,13859,4.14762,0,2685.061,108.752,24.8,
1408,1,SBT2050,2,9,,3,13889,4.147544,0,2685.061,108.752,24.8,
1408,1,SBT2050,2,9,,3,13919,4.14775,0,2685.061,108.752,24.8,
1408,1,SBT2050,2,9,,3,13949,4.14771,0,2685.061,108.752,24.8,
1408,1,SBT2050,2,9,,3,13979,4.14756,0,2685.061,108.752,24.8,
1408,1,SBT2050,2,9,,3,14009,4.1476,0,2685.061,108.752,24.8,
1408,1,SBT2050,2,9,,3,14039,4.147624,0,2685.061,108.752,24.8,
1408,1,SBT2050,2,9,,3,14069,4.1479,0,2685.061,108.752,24.8,
1408,1,SBT2050,2,9,,3,14099,4.14745,0,2685.061,108.752,24.8,
1408,1,SBT2050,2,9,,3,14129,4.14731,0,2685.061,108.752,24.8,
1408,1,SBT2050,2,9,,3,14159,4.147436,0,2685.061,108.752,24.8,
1408,1,SBT2050,2,9,,3,14189,4.14716,0,2685.061,108.752,24.8,
1408,1,SBT2050,2,9,,3,14219,4.14742,0,2685.061,108.752,24.8,
1408,1,SBT2050,2,9,,3,14249,4.14757,0,2685.061,108.752,24.8,
1408,1,SBT2050,2,9,,3,14279,4.14723,0,2685.061,108.752,24.8,
1408,1,SBT2050,2,9,,3,14309,4.14728,0,2685.061,108.752,24.8,
1408,1,SBT2050,2,9,,3,14339,4.14735,0,2685.061,108.752,24.9,
1408,1,SBT2050,2,9,,3,14369,4.14724,0,2685.061,108.752,24.8,
1408,1,SBT2050,2,9,,3,14399,4.147312,0,2685.061,108.752,24.8,
1408,1,SBT2050,2,9,,3,14429,4.14727,0,2685.061,108.752,24.9,
1408,1,SBT2050,2,9,,3,14459,4.147,0,2685.061,108.752,24.8,
1408,1,SBT2050,2,9,,3,14489,4.14711,0,2685.061,108.752,24.8,
1408,1,SBT2050,2,9,,3,14519,4.14718,0,2685.061,108.752,24.8,
1408,1,SBT2050,2,9,,3,14549,4.14731,0,2685.061,108.752,24.8,
1408,1,SBT2050,2,9,,3,14579,4.14725,0,2685.061,108.752,24.8,
1408,1,SBT2050,2,9,,3,14609,4.14701,0,2685.061,108.752,24.8,
1408,1,SBT2050,2,9,,3,14639,4.1466,0,2685.061,108.752,24.8,
1408,1,SBT2050,2,9,,3,14669,4.14689,0,2685.061,108.752,24.8,
1408,1,SBT2050,2,9,,3,14699,4.1472,0,2685.061,108.752,24.8,
1408,1,SBT2050,2,9,,3,14729,4.14693,0,2685.061,108.752,24.8,
1408,1,SBT2050,2,9,,3,14759,4.14698,0,2685.061,108.752,24.8,
1408,1,SBT2050,2,9,,3,14789,4.14674,0,2685.061,108.752,24.8,
1408,1,SBT2050,2,9,,3,14819,4.14677,0,2685.061,108.752,24.8,
1408,1,SBT2050,2,9,,3,14849,4.14692,0,2685.061,108.752,24.8,
1408,1,SBT2050,2,9,,3,14879,4.14673,0,2685.061,108.752,24.8,
1408,1,SBT2050,2,9,,3,14909,4.14685,0,2685.061,108.752,24.8,
1408,1,SBT2050,2,9,,3,14939,4.14693,0,2685.061,108.752,24.8,
1408,1,SBT2050,2,9,,3,14969,4.14682,0,2685.061,108.752,24.8,
1408,1,SBT2050,2,9,,3,14999,4.14664,0,2685.061,108.752,24.8,
1408,1,SBT2050,2,9,,3,15029,4.146816,0,2685.061,108.752,24.8,
1408,1,SBT2050,2,9,,3,15059,4.14677,0,2685.061,108.752,24.8,
1408,1,SBT2050,2,9,,4,15088,3.90337,-2.936,2685.061,122.637,24.9,
1408,1,SBT2050,2,9,,4,15118,3.87378,-2.9361,2685.061,147.104,25.2,
1408,1,SBT2050,2,9,,4,15148,3.85843,-2.936,2685.061,171.57,25.5,
1408,1,SBT2050,2,9,,4,15178,3.84987,-2.9357,2685.061,196.036,25.8,
1408,1,SBT2050,2,9,,4,15208,3.84316,-2.9359,2685.061,220.502,26.1,
1408,1,SBT2050,2,9,,4,15238,3.837564,-2.9362,2685.061,244.968,26.4,
1408,1,SBT2050,2,9,,4,15268,3.83188,-2.9357,2685.061,269.434,26.6,
1408,1,SBT2050,2,9,,4,15298,3.82675,-2.9357,2685.061,293.901,26.8,
1408,1,SBT2050,2,9,,4,15328,3.82041,-2.9365,2685.061,318.367,27,
1408,1,SBT2050,2,9,,4,15358,3.81444,-2.9356,2685.061,342.833,27.1,
1408,1,SBT2050,2,9,,4,15388,3.80797,-2.9359,2685.061,367.299,27.3,
1408,1,SBT2050,2,9,,4,15418,3.80057,-2.9362,2685.061,391.765,27.4,
1408,1,SBT2050,2,9,,4,15448,3.79325,-2.9361,2685.061,416.231,27.5,
1408,1,SBT2050,2,9,,4,15478,3.785524,-2.9362,2685.061,440.697,27.6,
1408,1,SBT2050,2,9,,4,15508,3.77764,-2.9362,2685.061,465.164,27.6,
1408,1,SBT2050,2,9,,4,15538,3.76903,-2.936,2685.061,489.63,27.7,
1408,1,SBT2050,2,9,,4,15568,3.7608,-2.9361,2685.061,514.096,27.7,
1408,1,SBT2050,2,9,,4,15598,3.75222,-2.9358,2685.061,538.562,27.7,
1408,1,SBT2050,2,9,,4,15628,3.74388,-2.9355,2685.061,563.028,27.8,
1408,1,SBT2050,2,9,,4,15658,3.73533,-2.9361,2685.061,587.494,27.8,
1408,1,SBT2050,2,9,,4,15688,3.7263,-2.936,2685.061,611.961,27.8,
1408,1,SBT2050,2,9,,4,15718,3.718124,-2.936,2685.061,636.427,27.8,
1408,1,SBT2050,2,9,,4,15748,3.71034,-2.9361,2685.061,660.893,27.9,
1408,1,SBT2050,2,9,,4,15778,3.70213,-2.9362,2685.061,685.359,27.9,
1408,1,SBT2050,2,9,,4,15808,3.69367,-2.9357,2685.061,709.825,27.8,
1408,1,SBT2050,2,9,,4,15838,3.685842,-2.9361,2685.061,734.291,27.9,
1408,1,SBT2050,2,9,,4,15868,3.6786,-2.9359,2685.061,758.757,27.9,
1408,1,SBT2050,2,9,,4,15898,3.67039,-2.936,2685.061,783.224,27.9,
1408,1,SBT2050,2,9,,4,15928,3.66235,-2.9359,2685.061,807.69,27.9,
1408,1,SBT2050,2,9,,4,15958,3.65445,-2.9354,2685.061,832.156,27.9,
1408,1,SBT2050,2,9,,4,15988,3.64689,-2.9363,2685.061,856.622,27.9,
1408,1,SBT2050,2,9,,4,16018,3.63858,-2.9359,2685.061,881.088,28,
1408,1,SBT2050,2,9,,4,16048,3.63055,-2.9357,2685.061,905.554,28,
1408,1,SBT2050,2,9,,4,16078,3.62222,-2.9362,2685.061,930.02,28,
1408,1,SBT2050,2,9,,4,16108,3.61414,-2.936,2685.061,954.487,28,
1408,1,SBT2050,2,9,,4,16138,3.60583,-2.9363,2685.061,978.953,28,
1408,1,SBT2050,2,9,,4,16168,3.59701,-2.9357,2685.061,1003.419,28,
1408,1,SBT2050,2,9,,4,16198,3.58873,-2.9359,2685.061,1027.885,28.1,
1408,1,SBT2050,2,9,,4,16228,3.58003,-2.9364,2685.061,1052.351,28,
1408,1,SBT2050,2,9,,4,16258,3.57103,-2.9357,2685.061,1076.817,28.1,
1408,1,SBT2050,2,9,,4,16288,3.56253,-2.936,2685.061,1101.283,28.1,
1408,1,SBT2050,2,9,,4,16318,3.553454,-2.9359,2685.061,1125.75,28.1,
1408,1,SBT2050,2,9,,4,16348,3.5445,-2.9359,2685.061,1150.216,28.1,
1408,1,SBT2050,2,9,,4,16378,3.53521,-2.9364,2685.061,1174.682,28.2,
1408,1,SBT2050,2,9,,4,16408,3.52675,-2.9361,2685.061,1199.148,28.2,
1408,1,SBT2050,2,9,,4,16438,3.51766,-2.9361,2685.061,1223.614,28.2,
1408,1,SBT2050,2,9,,4,16468,3.50867,-2.936,2685.061,1248.08,28.2,
1408,1,SBT2050,2,9,,4,16498,3.50013,-2.9358,2685.061,1272.546,28.2,
1408,1,SBT2050,2,9,,4,16528,3.49104,-2.9359,2685.061,1297.013,28.2,
1408,1,SBT2050,2,9,,4,16558,3.48257,-2.936,2685.061,1321.479,28.3,
1408,1,SBT2050,2,9,,4,16588,3.47401,-2.9361,2685.061,1345.945,28.2,
1408,1,SBT2050,2,9,,4,16618,3.465602,-2.9358,2685.061,1370.411,28.3,
1408,1,SBT2050,2,9,,4,16648,3.45744,-2.9361,2685.061,1394.877,28.3,
1408,1,SBT2050,2,9,,4,16678,3.44936,-2.9362,2685.061,1419.343,28.3,
1408,1,SBT2050,2,9,,4,16708,3.441486,-2.9359,2685.061,1443.81,28.4,
1408,1,SBT2050,2,9,,4,16738,3.43365,-2.9359,2685.061,1468.276,28.4,
1408,1,SBT2050,2,9,,4,16768,3.426,-2.9356,2685.061,1492.742,28.4,
1408,1,SBT2050,2,9,,4,16798,3.418564,-2.9365,2685.061,1517.208,28.4,
1408,1,SBT2050,2,9,,4,16828,3.411328,-2.9359,2685.061,1541.674,28.4,
1408,1,SBT2050,2,9,,4,16858,3.40429,-2.9366,2685.061,1566.141,28.4,
1408,1,SBT2050,2,9,,4,16888,3.39691,-2.9361,2685.061,1590.607,28.4,
1408,1,SBT2050,2,9,,4,16918,3.38993,-2.9359,2685.061,1615.073,28.4,
1408,1,SBT2050,2,9,,4,16948,3.38277,-2.9363,2685.061,1639.539,28.5,
1408,1,SBT2050,2,9,,4,16978,3.37597,-2.9357,2685.061,1664.006,28.5,
1408,1,SBT2050,2,9,,4,17008,3.36934,-2.936,2685.061,1688.472,28.5,
1408,1,SBT2050,2,9,,4,17038,3.362376,-2.9357,2685.061,1712.938,28.5,
1408,1,SBT2050,2,9,,4,17068,3.35536,-2.9362,2685.061,1737.404,28.5,
1408,1,SBT2050,2,9,,4,17098,3.34896,-2.9357,2685.061,1761.87,28.6,
1408,1,SBT2050,2,9,,4,17128,3.3418,-2.9361,2685.061,1786.336,28.6,
1408,1,SBT2050,2,9,,4,17158,3.33467,-2.9359,2685.061,1810.802,28.6,
1408,1,SBT2050,2,9,,4,17188,3.328007,-2.9359,2685.061,1835.269,28.7,
1408,1,SBT2050,2,9,,4,17218,3.320686,-2.9357,2685.061,1859.735,28.7,
1408,1,SBT2050,2,9,,4,17248,3.313647,-2.936,2685.061,1884.201,28.7,
1408,1,SBT2050,2,9,,4,17278,3.30586,-2.9359,2685.061,1908.667,28.7,
1408,1,SBT2050,2,9,,4,17308,3.29841,-2.9357,2685.061,1933.133,28.8,
1408,1,SBT2050,2,9,,4,17338,3.290457,-2.9362,2685.061,1957.599,28.8,
1408,1,SBT2050,2,9,,4,17368,3.28259,-2.9355,2685.061,1982.065,28.9,
1408,1,SBT2050,2,9,,4,17398,3.27428,-2.936,2685.061,2006.532,28.9,
1408,1,SBT2050,2,9,,4,17428,3.265917,-2.9358,2685.061,2030.998,28.9,
1408,1,SBT2050,2,9,,4,17458,3.256742,-2.9361,2685.061,2055.464,29,
1408,1,SBT2050,2,9,,4,17488,3.24731,-2.9361,2685.061,2079.93,29,
1408,1,SBT2050,2,9,,4,17518,3.23809,-2.936,2685.061,2104.396,29.1,
1408,1,SBT2050,2,9,,4,17548,3.22776,-2.9354,2685.061,2128.862,29.1,
1408,1,SBT2050,2,9,,4,17578,3.2171,-2.9353,2685.061,2153.328,29.2,
1408,1,SBT2050,2,9,,4,17608,3.2062,-2.9359,2685.061,2177.795,29.2,
1408,1,SBT2050,2,9,,4,17638,3.19452,-2.9357,2685.061,2202.261,29.3,
1408,1,SBT2050,2,9,,4,17668,3.18218,-2.9359,2685.061,2226.727,29.4,
1408,1,SBT2050,2,9,,4,17698,3.169007,-2.9356,2685.061,2251.193,29.5,
1408,1,SBT2050,2,9,,4,17728,3.1552,-2.936,2685.061,2275.659,29.7,
1408,1,SBT2050,2,9,,4,17758,3.140211,-2.9358,2685.061,2300.125,29.8,
1408,1,SBT2050,2,9,,4,17788,3.123989,-2.9356,2685.061,2324.592,29.9,
1408,1,SBT2050,2,9,,4,17818,3.10647,-2.9358,2685.061,2349.058,29.9,
1408,1,SBT2050,2,9,,4,17848,3.08787,-2.9362,2685.061,2373.524,30.1,
1408,1,SBT2050,2,9,,4,17878,3.067147,-2.9359,2685.061,2397.99,30.2,
1408,1,SBT2050,2,9,,4,17908,3.04465,-2.9356,2685.061,2422.457,30.3,
1408,1,SBT2050,2,9,,4,17938,3.01968,-2.9359,2685.061,2446.923,30.5,
1408,1,SBT2050,2,9,,4,17968,2.99212,-2.9356,2685.061,2471.389,30.7,
1408,1,SBT2050,2,9,,4,17998,2.96089,-2.9362,2685.061,2495.855,30.9,
1408,1,SBT2050,2,9,,4,18028,2.92596,-2.9357,2685.061,2520.321,31.1,
1408,1,SBT2050,2,9,,4,18058,2.88642,-2.9357,2685.061,2544.787,31.4,
1408,1,SBT2050,2,9,,4,18088,2.84107,-2.9363,2685.061,2569.253,31.7,
1408,1,SBT2050,2,9,,4,18118,2.78769,-2.9357,2685.061,2593.72,32.1,
1408,1,SBT2050,2,9,,4,18148,2.723734,-2.9359,2685.061,2618.186,32.4,
1408,1,SBT2050,2,9,,4,18178,2.64573,-2.9359,2685.061,2642.652,32.9,
1408,1,SBT2050,2,9,,4,18208,2.54718,-2.9362,2685.061,2667.118,33.5,
1408,1,SBT2050,2,9,,4,18238,2.49971,-2.5139,2685.061,2690.373,34,
1408,1,SBT2050,2,9,,4,18268,2.4997,-2.0378,2685.061,2709.28,34.4,
1408,1,SBT2050,2,9,,4,18298,2.49957,-1.6085,2685.061,2724.444,34.4,
1408,1,SBT2050,2,9,,4,18328,2.499269,-1.2251,2685.061,2736.216,34.2,
1408,1,SBT2050,2,9,,4,18358,2.49928,-0.9089,2685.061,2745.05,34,
1408,1,SBT2050,2,9,,4,18388,2.49936,-0.674,2685.061,2751.593,33.5,
1408,1,SBT2050,2,9,,4,18418,2.499436,-0.5059,2685.061,2756.472,32.9,
1408,1,SBT2050,2,9,,4,18448,2.49936,-0.382,2685.061,2760.142,32.4,
1408,1,SBT2050,2,9,,4,18478,2.499257,-0.29127,2685.061,2762.921,31.8,
1408,1,SBT2050,2,9,,4,18508,2.49957,-0.22493,2685.061,2765.055,31.3,
1408,1,SBT2050,2,9,,4,18538,2.49922,-0.17692,2685.061,2766.721,30.7,
1408,1,SBT2050,2,9,,4,18568,2.49966,-0.14325,2685.061,2768.046,30.2,
1408,1,SBT2050,2,9,,4,18598,2.49982,-0.1215,2685.061,2769.142,29.7,
1408,1,SBT2050,2,9,,4,18628,2.49967,-0.10743,2685.061,2770.093,29.3,
1408,1,SBT2050,2,9,,4,18658,2.49997,-0.09851,2685.061,2770.95,28.9,
1408,1,SBT2050,2,9,,4,18688,2.499901,-0.09199,2685.061,2771.742,28.6,
1408,1,SBT2050,2,9,,4,18718,2.50009,-0.08673,2685.061,2772.485,28.2,
1408,1,SBT2050,2,9,,4,18748,2.50004,-0.08205,2685.061,2773.187,27.9,
1408,1,SBT2050,2,9,,4,18778,2.50001,-0.0779,2685.061,2773.853,27.7,
1408,1,SBT2050,2,9,,4,18808,2.499901,-0.0743,2685.061,2774.487,27.4,
1408,1,SBT2050,2,9,,4,18838,2.49988,-0.07107,2685.061,2775.093,27.2,
1408,1,SBT2050,2,9,,4,18868,2.49987,-0.06824,2685.061,2775.673,27,
1408,1,SBT2050,2,9,,4,18898,2.49995,-0.06517,2685.061,2776.228,26.8,
1408,1,SBT2050,2,9,,4,18928,2.49998,-0.06282,2685.061,2776.761,26.6,
1408,1,SBT2050,2,9,,4,18958,2.49996,-0.06018,2685.061,2777.273,26.5,
1408,1,SBT2050,2,9,,4,18988,2.50004,-0.05799,2685.061,2777.766,26.4,
1408,1,SBT2050,2,9,,4,19018,2.49997,-0.05592,2685.061,2778.24,26.2,
1408,1,SBT2050,2,9,,4,19048,2.49995,-0.05385,2685.061,2778.697,26.1,
1408,1,SBT2050,2,9,,4,19078,2.49994,-0.05198,2685.061,2779.138,26,
1408,1,SBT2050,2,9,,4,19108,2.49977,-0.05016,2685.061,2779.563,25.9,
1408,1,SBT2050,2,9,,4,19138,2.49988,-0.04839,2685.061,2779.975,25.9,
1408,1,SBT2050,2,9,,4,19168,2.499913,-0.04687,2685.061,2780.372,25.8,
1408,1,SBT2050,2,9,,4,19198,2.499913,-0.045458,2685.061,2780.756,25.8,
1408,1,SBT2050,2,9,,4,19228,2.500068,-0.043912,2685.061,2781.128,25.7,
1408,1,SBT2050,2,9,,4,19258,2.50019,-0.042591,2685.061,2781.488,25.6,
1408,1,SBT2050,2,9,,4,19288,2.49996,-0.041064,2685.061,2781.836,25.6,
1408,1,SBT2050,2,9,,4,19318,2.50008,-0.039885,2685.061,2782.174,25.5,
1408,1,SBT2050,2,9,,4,19348,2.50012,-0.038936,2685.061,2782.502,25.4,
1408,1,SBT2050,2,9,,4,19378,2.499913,-0.037679,2685.061,2782.82,25.4,
1408,1,SBT2050,2,9,,4,19408,2.49998,-0.036526,2685.061,2783.129,25.4,
1408,1,SBT2050,2,9,,4,19438,2.49994,-0.035344,2685.061,2783.429,25.3,
1408,1,SBT2050,2,9,,4,19468,2.499901,-0.034417,2685.061,2783.72,25.3,
1408,1,SBT2050,2,9,,4,19498,2.499913,-0.033241,2685.061,2784.002,25.3,
1408,1,SBT2050,2,9,,4,19528,2.50004,-0.032397,2685.061,2784.276,25.3,
1408,1,SBT2050,2,9,,4,19558,2.5,-0.031678,2685.061,2784.543,25.2,
1408,1,SBT2050,2,9,,4,19588,2.49994,-0.030584,2685.061,2784.802,25.2,
1408,1,SBT2050,2,9,,4,19618,2.5001,-0.029908,2685.061,2785.054,25.2,
1408,1,SBT2050,2,9,,4,19648,2.50001,-0.029041,2685.061,2785.299,25.2,
1408,1,SBT2050,2,9,,4,19678,2.49995,-0.028127,2685.061,2785.537,25.1,
1408,1,SBT2050,2,9,,4,19708,2.50001,-0.027268,2685.061,2785.769,25.1,
1408,1,SBT2050,2,9,,4,19738,2.50009,-0.026616,2685.061,2785.994,25.1,
1408,1,SBT2050,2,9,,4,19768,2.50006,-0.025863,2685.061,2786.212,25.1,
1408,1,SBT2050,2,9,,4,19798,2.50003,-0.02517,2685.061,2786.425,25.1,
1408,1,SBT2050,2,9,,4,19828,2.49985,-0.024493,2685.061,2786.633,25.1,
1408,1,SBT2050,2,9,,4,19858,2.50001,-0.023902,2685.061,2786.835,25.1,
1408,1,SBT2050,2,9,,4,19888,2.50001,-0.023314,2685.061,2787.031,25.1,
1408,1,SBT2050,2,9,,4,19918,2.50016,-0.022929,2685.061,2787.223,25.1,
1408,1,SBT2050,2,9,,4,19948,2.49982,-0.022079,2685.061,2787.41,25,
1408,1,SBT2050,2,9,,4,19978,2.50008,-0.021585,2685.061,2787.592,25,
1408,1,SBT2050,2,9,,4,20008,2.50016,-0.020977,2685.061,2787.77,25,
1408,1,SBT2050,2,9,,4,20038,2.50004,-0.020389,2685.061,2787.943,25,
1408,1,SBT2050,2,9,,4,20068,2.50003,-0.020063,2685.061,2788.111,25,
1408,1,SBT2050,2,9,,4,20098,2.49985,-0.01937,2685.061,2788.275,25,
1408,1,SBT2050,2,9,,4,20128,2.49998,-0.019029,2685.061,2788.435,25,
1408,1,SBT2050,2,9,,4,20158,2.49996,-0.018422,2685.061,2788.591,25,
1408,1,SBT2050,2,9,,4,20188,2.49985,-0.017926,2685.061,2788.742,25,
1408,1,SBT2050,2,9,,4,20218,2.50002,-0.017467,2685.061,2788.89,25,
1408,1,SBT2050,2,9,,4,20248,2.49996,-0.016983,2685.061,2789.034,25,
1408,1,SBT2050,2,9,,4,20278,2.499913,-0.016588,2685.061,2789.175,25,
1408,1,SBT2050,2,9,,4,20308,2.499901,-0.016222,2685.061,2789.311,25,
1408,1,SBT2050,2,9,,4,20338,2.49987,-0.015767,2685.061,2789.445,25,
1408,1,SBT2050,2,9,,4,20368,2.49983,-0.015273,2685.061,2789.575,25,
1408,1,SBT2050,2,9,,4,20398,2.50001,-0.015057,2685.061,2789.702,24.9,
1408,1,SBT2050,2,9,,4,20428,2.50003,-0.01474,2685.061,2789.825,24.9,
1408,1,SBT2050,2,9,,4,20458,2.49996,-0.014284,2685.061,2789.946,24.9,
1408,1,SBT2050,2,9,,4,20488,2.5,-0.014019,2685.061,2790.064,24.9,
1408,1,SBT2050,2,9,,4,20518,2.50009,-0.013675,2685.061,2790.179,24.9,
1408,1,SBT2050,2,9,,4,20548,2.49994,-0.013361,2685.061,2790.291,24.9,
1408,1,SBT2050,2,9,,4,20578,2.49985,-0.012947,2685.061,2790.402,24.9,
1408,1,SBT2050,2,9,,4,20608,2.500068,-0.012811,2685.061,2790.509,24.9,
1408,1,SBT2050,2,9,,4,20638,2.50012,-0.012621,2685.061,2790.615,24.9,
1408,1,SBT2050,2,9,,4,20668,2.499913,-0.01234,2685.061,2790.719,24.9,
1408,1,SBT2050,2,9,,4,20698,2.49988,-0.01213,2685.061,2790.82,24.9,
1408,1,SBT2050,2,9,,4,20728,2.49994,-0.01185,2685.061,2790.92,24.9,
1408,1,SBT2050,2,9,,4,20758,2.49996,-0.011576,2685.061,2791.017,24.9,
1408,1,SBT2050,2,9,,4,20788,2.499913,-0.011294,2685.061,2791.112,24.9,
1408,1,SBT2050,2,9,,4,20818,2.50003,-0.011199,2685.061,2791.206,24.9,
1408,1,SBT2050,2,9,,4,20848,2.49984,-0.010843,2685.061,2791.297,24.9,
1408,1,SBT2050,2,9,,4,20878,2.50006,-0.010686,2685.061,2791.387,24.9,
1408,1,SBT2050,2,9,,4,20908,2.5,-0.010428,2685.061,2791.475,24.9,
1408,1,SBT2050,2,9,,4,20938,2.50008,-0.010336,2685.061,2791.561,24.9,
1408,1,SBT2050,2,9,,5,20967,2.51756,0,2685.061,2791.594,24.9,
1408,1,SBT2050,2,9,,5,20997,2.53848,0,2685.061,2791.594,24.9,
1408,1,SBT2050,2,9,,5,21027,2.55649,0,2685.061,2791.594,24.9,
1408,1,SBT2050,2,9,,5,21057,2.57226,0,2685.061,2791.594,24.9,
1408,1,SBT2050,2,9,,5,21087,2.58676,0,2685.061,2791.594,24.9,
1408,1,SBT2050,2,9,,5,21117,2.60038,0,2685.061,2791.594,24.9,
1408,1,SBT2050,2,9,,5,21147,2.61246,0,2685.061,2791.594,24.9,
1408,1,SBT2050,2,9,,5,21177,2.62393,0,2685.061,2791.594,24.9,
1408,1,SBT2050,2,9,,5,21207,2.634497,0,2685.061,2791.594,24.8,
1408,1,SBT2050,2,9,,5,21237,2.64442,0,2685.061,2791.594,24.9,
1408,1,SBT2050,2,9,,5,21267,2.65347,0,2685.061,2791.594,24.9,
1408,1,SBT2050,2,9,,5,21297,2.66168,0,2685.061,2791.594,24.9,
1408,1,SBT2050,2,9,,5,21327,2.66969,0,2685.061,2791.594,24.9,
1408,1,SBT2050,2,9,,5,21357,2.67704,0,2685.061,2791.594,24.9,
1408,1,SBT2050,2,9,,5,21387,2.68379,0,2685.061,2791.594,24.9,
1408,1,SBT2050,2,9,,5,21417,2.69034,0,2685.061,2791.594,24.9,
1408,1,SBT2050,2,9,,5,21447,2.696413,0,2685.061,2791.594,24.8,
1408,1,SBT2050,2,9,,5,21477,2.7021,0,2685.061,2791.594,24.8,
1408,1,SBT2050,2,9,,5,21507,2.70745,0,2685.061,2791.594,24.8,
1408,1,SBT2050,2,9,,5,21537,2.71224,0,2685.061,2791.594,24.8,
1408,1,SBT2050,2,9,,5,21567,2.71715,0,2685.061,2791.594,24.8,
1408,1,SBT2050,2,9,,5,21597,2.72183,0,2685.061,2791.594,24.9,
1408,1,SBT2050,2,9,,5,21627,2.726183,0,2685.061,2791.594,24.9,
1408,1,SBT2050,2,9,,5,21657,2.73025,0,2685.061,2791.594,24.8,
1408,1,SBT2050,2,9,,5,21687,2.73409,0,2685.061,2791.594,24.8,
1408,1,SBT2050,2,9,,5,21717,2.73793,0,2685.061,2791.594,24.8,
1408,1,SBT2050,2,9,,5,21747,2.74159,0,2685.061,2791.594,24.8,
1408,1,SBT2050,2,9,,5,21777,2.74515,0,2685.061,2791.594,24.8,
1408,1,SBT2050,2,9,,5,21807,2.748176,0,2685.061,2791.594,24.8,
1408,1,SBT2050,2,9,,5,21837,2.75155,0,2685.061,2791.594,24.9,
1408,1,SBT2050,2,9,,5,21867,2.75471,0,2685.061,2791.594,24.8,
1408,1,SBT2050,2,9,,5,21897,2.75766,0,2685.061,2791.594,24.8,
1408,1,SBT2050,2,9,,5,21927,2.76041,0,2685.061,2791.594,24.8,
1408,1,SBT2050,2,9,,5,21957,2.763055,0,2685.061,2791.594,24.8,
1408,1,SBT2050,2,9,,5,21987,2.76583,0,2685.061,2791.594,24.8,
1408,1,SBT2050,2,9,,5,22017,2.76824,0,2685.061,2791.594,24.8,
1408,1,SBT2050,2,9,,5,22047,2.770644,0,2685.061,2791.594,24.9,
1408,1,SBT2050,2,9,,5,22077,2.77286,0,2685.061,2791.594,24.8,
1408,1,SBT2050,2,9,,5,22107,2.775343,0,2685.061,2791.594,24.8,
1408,1,SBT2050,2,9,,5,22137,2.77725,0,2685.061,2791.594,24.9,
1408,1,SBT2050,2,9,,5,22167,2.779497,0,2685.061,2791.594,24.8,
1408,1,SBT2050,2,9,,5,22197,2.78146,0,2685.061,2791.594,24.8,
1408,1,SBT2050,2,9,,5,22227,2.78351,0,2685.061,2791.594,24.8,
1408,1,SBT2050,2,9,,5,22257,2.78524,0,2685.061,2791.594,24.8,
1408,1,SBT2050,2,9,,5,22287,2.78704,0,2685.061,2791.594,24.8,
1408,1,SBT2050,2,9,,5,22317,2.78895,0,2685.061,2791.594,24.8,
1408,1,SBT2050,2,9,,5,22347,2.79063,0,2685.061,2791.594,24.8,
1408,1,SBT2050,2,9,,5,22377,2.792314,0,2685.061,2791.594,24.8,
1408,1,SBT2050,2,9,,5,22407,2.79415,0,2685.061,2791.594,24.8,
1408,1,SBT2050,2,9,,5,22437,2.79555,0,2685.061,2791.594,24.8,
1408,1,SBT2050,2,9,,5,22467,2.79698,0,2685.061,2791.594,24.9,
1408,1,SBT2050,2,9,,5,22497,2.79885,0,2685.061,2791.594,24.9,
1408,1,SBT2050,2,9,,5,22527,2.80013,0,2685.061,2791.594,24.8,
1408,1,SBT2050,2,9,,5,22557,2.80167,0,2685.061,2791.594,24.8,
1408,1,SBT2050,2,9,,5,22587,2.80284,0,2685.061,2791.594,24.8,
1408,1,SBT2050,2,9,,5,22617,2.804258,0,2685.061,2791.594,24.8,
1408,1,SBT2050,2,9,,5,22647,2.80575,0,2685.061,2791.594,24.8,
1408,1,SBT2050,2,9,,5,22677,2.80669,0,2685.061,2791.594,24.8,
1408,1,SBT2050,2,9,,5,22707,2.80785,0,2685.061,2791.594,24.8,
1408,1,SBT2050,2,9,,5,22737,2.80918,0,2685.061,2791.594,24.8,
1408,1,SBT2050,2,9,,5,22749.843,2.80984,-9.9E-05,2685.061,2791.594,,