File: 2C/Test1537.csv
Request Year:,2018,,,,,,,,,,,,
Test:,1537,,,,,,,,,,,,
Test Description:,,,,,,,,,,,,,
TestRegime Name:,Aging_Performance,,,,,,,,,,,,
TestRegime Suffix:,SHP_LC,,,,,,,,,,,,
TestRegime CellSize:,18650,,,,,,,,,,,,
TestRegime Version:,1,,,,,,,,,,,,
Number Of Cells:,1,,,,,,,,,,,,
LotID:,,,,,,,,,,,,,
Lot Description:,,,,,,,,,,,,,
Date Made:,1/21/2003 12:00 AM,,,,,,,,,,,,
Origin:,Other,,,,,,,,,,,,
Requestor:,Admin,,,,,,,,,,,,
Product ID:,Default product,,,,,,,,,,,,
Storage Temp:,R.T./AMB,,,,,,,,,,,,
Storage Delay:,0 days,,,,,,,,,,,,
Test Temp:,R.T./AMB,,,,,,,,,,,,
Start Time:,4/22/2018 9:12 AM,,,,,,,,,,,,
End Time:,4/22/2018 7:26 PM,,,,,,,,,,,,
Operator Instructions:,,,,,,,,,,,,,
Test,Cell,Rack,Shelf,Position,Cell ID,Step,Total Time (Seconds),Voltage (V),Current (A),Charge Capacity (mAh),Discharge Capacity (mAh),TC1 (Â°C),
1537,1,SBT2050,2,9,,0,1,3.46637,0,0,0,24.7,
1537,1,SBT2050,2,9,,0,46,3.46692,0,0,0,24.6,
1537,1,SBT2050,2,9,,0,91,3.467538,0,0,0,24.7,
1537,1,SBT2050,2,9,,0,136,3.46839,0,0,0,24.8,
1537,1,SBT2050,2,9,,0,181,3.46877,0,0,0,24.9,
1537,1,SBT2050,2,9,,0,226,3.46909,0,0,0,25,
1537,1,SBT2050,2,9,,0,271,3.46984,0,0,0,24.9,
1537,1,SBT2050,2,9,,1,316,2.95217,-2.936,0,13.047,25.3,
1537,1,SBT2050,2,9,,1,361,2.74134,-2.9353,0,49.747,26.9,
1537,1,SBT2050,2,9,,1,406,2.53982,-2.9363,0,86.446,28.7,
1537,1,SBT2050,2,9,,1,451,2.49971,-2.1697,0,118.466,30.2,
1537,1,SBT2050,2,9,,1,496,2.49973,-1.6794,0,142.3,31,
1537,1,SBT2050,2,9,,1,541,2.49991,-1.3442,0,161.084,31.4,
1537,1,SBT2050,2,9,,1,586,2.499778,-1.0997,0,176.286,31.5,
1537,1,SBT2050,2,9,,1,631,2.499945,-0.9175,0,188.845,31.3,
1537,1,SBT2050,2,9,,1,676,2.49979,-0.7781,0,199.408,31.1,
1537,1,SBT2050,2,9,,1,721,2.499778,-0.6683,0,208.423,30.7,
1537,1,SBT2050,2,9,,1,766,2.49985,-0.5804,0,216.207,30.3,
1537,1,SBT2050,2,9,,1,811,2.49974,-0.5091,0,223.003,29.9,
1537,1,SBT2050,2,9,,1,856,2.499921,-0.45256,0,229.002,29.6,
1537,1,SBT2050,2,9,,1,901,2.49987,-0.40436,0,234.347,29.2,
1537,1,SBT2050,2,9,,1,946,2.4998,-0.3645,0,239.146,28.8,
1537,1,SBT2050,2,9,,1,991,2.499921,-0.33064,0,243.485,28.5,
1537,1,SBT2050,2,9,,1,1036,2.499921,-0.30181,0,247.435,28.2,
1537,1,SBT2050,2,9,,1,1081,2.49974,-0.27721,0,251.051,27.9,
1537,1,SBT2050,2,9,,1,1126,2.499933,-0.25637,0,254.382,27.7,
1537,1,SBT2050,2,9,,1,1171,2.499945,-0.23763,0,257.466,27.5,
1537,1,SBT2050,2,9,,1,1216,2.49989,-0.22157,0,260.336,27.3,
1537,1,SBT2050,2,9,,1,1261,2.49986,-0.20699,0,263.016,27.1,
1537,1,SBT2050,2,9,,1,1306,2.50015,-0.1943,0,265.523,26.9,
1537,1,SBT2050,2,9,,1,1351,2.499933,-0.18267,0,267.877,26.7,
1537,1,SBT2050,2,9,,1,1396,2.4999,-0.17234,0,270.093,26.6,
1537,1,SBT2050,2,9,,1,1441,2.49983,-0.1629,0,272.187,26.5,
1537,1,SBT2050,2,9,,1,1486,2.50002,-0.15443,0,274.17,26.4,
1537,1,SBT2050,2,9,,1,1531,2.499945,-0.14675,0,276.052,26.3,
1537,1,SBT2050,2,9,,1,1576,2.49997,-0.13978,0,277.842,26.2,
1537,1,SBT2050,2,9,,1,1621,2.50005,-0.1335,0,279.549,26.1,
1537,1,SBT2050,2,9,,1,1666,2.50002,-0.12792,0,281.183,26,
1537,1,SBT2050,2,9,,1,1711,2.49985,-0.12272,0,282.75,26,
1537,1,SBT2050,2,9,,1,1756,2.49987,-0.11803,0,284.255,25.9,
1537,1,SBT2050,2,9,,1,1801,2.50012,-0.11398,0,285.705,25.8,
1537,1,SBT2050,2,9,,1,1846,2.500088,-0.11001,0,287.104,25.8,
1537,1,SBT2050,2,9,,1,1891,2.50014,-0.10653,0,288.457,25.7,
1537,1,SBT2050,2,9,,1,1936,2.49989,-0.10311,0,289.766,25.7,
1537,1,SBT2050,2,9,,1,1981,2.499778,-0.10018,0,291.037,25.7,
1537,1,SBT2050,2,9,,1,2026,2.49981,-0.09725,0,292.272,25.6,
1537,1,SBT2050,2,9,,1,2071,2.50005,-0.09475,0,293.472,25.6,
1537,1,SBT2050,2,9,,1,2116,2.49989,-0.09232,0,294.642,25.6,
1537,1,SBT2050,2,9,,1,2161,2.50003,-0.09008,0,295.782,25.5,
1537,1,SBT2050,2,9,,1,2206,2.500112,-0.08809,0,296.896,25.6,
1537,1,SBT2050,2,9,,1,2251,2.49998,-0.08615,0,297.984,25.6,
1537,1,SBT2050,2,9,,1,2296,2.49999,-0.0843,0,299.049,25.5,
1537,1,SBT2050,2,9,,1,2341,2.500088,-0.08269,0,300.092,25.4,
1537,1,SBT2050,2,9,,1,2386,2.4999,-0.08104,0,301.115,25.4,
1537,1,SBT2050,2,9,,1,2431,2.49983,-0.07972,0,302.12,25.4,
1537,1,SBT2050,2,9,,1,2476,2.49991,-0.07843,0,303.108,25.4,
1537,1,SBT2050,2,9,,1,2521,2.5001,-0.07728,0,304.081,25.4,
1537,1,SBT2050,2,9,,1,2566,2.500088,-0.07616,0,305.039,25.4,
1537,1,SBT2050,2,9,,1,2611,2.50006,-0.07503,0,305.984,25.4,
1537,1,SBT2050,2,9,,1,2656,2.50002,-0.07414,0,306.916,25.4,
1537,1,SBT2050,2,9,,1,2701,2.50006,-0.07317,0,307.836,25.4,
1537,1,SBT2050,2,9,,1,2746,2.50006,-0.07232,0,308.745,25.4,
1537,1,SBT2050,2,9,,1,2791,2.49984,-0.07139,0,309.643,25.3,
1537,1,SBT2050,2,9,,1,2836,2.50006,-0.07067,0,310.531,25.3,
1537,1,SBT2050,2,9,,1,2881,2.50014,-0.06977,0,311.409,25.3,
1537,1,SBT2050,2,9,,1,2926,2.50008,-0.06924,0,312.277,25.3,
1537,1,SBT2050,2,9,,1,2971,2.49987,-0.06838,0,313.136,25.2,
1537,1,SBT2050,2,9,,1,3016,2.5001,-0.06775,0,313.986,25.2,
1537,1,SBT2050,2,9,,1,3061,2.499933,-0.06698,0,314.828,25.1,
1537,1,SBT2050,2,9,,1,3106,2.50012,-0.0664,0,315.662,25.1,
1537,1,SBT2050,2,9,,1,3151,2.50018,-0.06571,0,316.487,25.1,
1537,1,SBT2050,2,9,,1,3196,2.5001,-0.06502,0,317.304,25.1,
1537,1,SBT2050,2,9,,1,3241,2.49983,-0.06452,0,318.114,25.1,
1537,1,SBT2050,2,9,,1,3286,2.50003,-0.06393,0,318.917,25.1,
1537,1,SBT2050,2,9,,1,3331,2.499933,-0.06328,0,319.712,25.1,
1537,1,SBT2050,2,9,,1,3376,2.49996,-0.06276,0,320.5,25.1,
1537,1,SBT2050,2,9,,1,3421,2.50004,-0.06231,0,321.281,25.2,
1537,1,SBT2050,2,9,,1,3466,2.500088,-0.06181,0,322.056,25.2,
1537,1,SBT2050,2,9,,1,3511,2.50004,-0.0612,0,322.825,25.2,
1537,1,SBT2050,2,9,,1,3556,2.499921,-0.06081,0,323.587,25.2,
1537,1,SBT2050,2,9,,1,3601,2.5001,-0.06034,0,324.344,25.3,
1537,1,SBT2050,2,9,,1,3646,2.49986,-0.05966,0,325.094,25.2,
1537,1,SBT2050,2,9,,1,3691,2.499921,-0.05928,0,325.838,25.3,
1537,1,SBT2050,2,9,,1,3736,2.50002,-0.05885,0,326.577,25.2,
1537,1,SBT2050,2,9,,1,3781,2.50005,-0.05847,0,327.309,25.2,
1537,1,SBT2050,2,9,,1,3826,2.499921,-0.05809,0,328.037,25.3,
1537,1,SBT2050,2,9,,1,3871,2.5,-0.05759,0,328.76,25.3,
1537,1,SBT2050,2,9,,1,3916,2.499933,-0.05734,0,329.477,25.3,
1537,1,SBT2050,2,9,,1,3961,2.50003,-0.05679,0,330.19,25.3,
1537,1,SBT2050,2,9,,1,4006,2.499945,-0.05635,0,330.898,25.3,
1537,1,SBT2050,2,9,,1,4051,2.50003,-0.05603,0,331.601,25.3,
1537,1,SBT2050,2,9,,1,4096,2.49997,-0.05588,0,332.301,25.3,
1537,1,SBT2050,2,9,,1,4141,2.50016,-0.05547,0,332.996,25.3,
1537,1,SBT2050,2,9,,1,4186,2.49999,-0.05515,0,333.687,25.3,
1537,1,SBT2050,2,9,,1,4231,2.50003,-0.05465,0,334.373,25.3,
1537,1,SBT2050,2,9,,1,4276,2.49998,-0.05436,0,335.055,25.3,
1537,1,SBT2050,2,9,,1,4321,2.50005,-0.05409,0,335.732,25.3,
1537,1,SBT2050,2,9,,1,4366,2.50004,-0.05368,0,336.406,25.3,
1537,1,SBT2050,2,9,,1,4411,2.49998,-0.05351,0,337.077,25.3,
1537,1,SBT2050,2,9,,1,4456,2.50021,-0.05321,0,337.743,25.4,
1537,1,SBT2050,2,9,,1,4501,2.50004,-0.0528,0,338.405,25.3,
1537,1,SBT2050,2,9,,1,4546,2.499933,-0.05254,0,339.063,25.4,
1537,1,SBT2050,2,9,,1,4591,2.49996,-0.05224,0,339.718,25.3,
1537,1,SBT2050,2,9,,1,4636,2.50002,-0.052,0,340.37,25.4,
1537,1,SBT2050,2,9,,1,4681,2.500088,-0.05177,0,341.019,25.3,
1537,1,SBT2050,2,9,,1,4726,2.50008,-0.05154,0,341.664,25.4,
1537,1,SBT2050,2,9,,1,4771,2.50002,-0.05125,0,342.305,25.4,
1537,1,SBT2050,2,9,,1,4816,2.49991,-0.05086,0,342.944,25.4,
1537,1,SBT2050,2,9,,1,4861,2.500088,-0.05077,0,343.579,25.4,
1537,1,SBT2050,2,9,,1,4906,2.49996,-0.05044,0,344.212,25.4,
1537,1,SBT2050,2,9,,1,4951,2.49985,-0.05033,0,344.842,25.4,
1537,1,SBT2050,2,9,,1,4996,2.50006,-0.05004,0,345.469,25.4,
1537,1,SBT2050,2,9,,1,5041,2.499933,-0.04983,0,346.092,25.4,
1537,1,SBT2050,2,9,,1,5086,2.50008,-0.04969,0,346.713,25.4,
1537,1,SBT2050,2,9,,1,5131,2.5001,-0.04946,0,347.332,25.4,
1537,1,SBT2050,2,9,,1,5176,2.499933,-0.04889,0,347.948,25.4,
1537,1,SBT2050,2,9,,1,5221,2.49997,-0.04902,0,348.561,25.4,
1537,1,SBT2050,2,9,,1,5266,2.49987,-0.04865,0,349.171,25.4,
1537,1,SBT2050,2,9,,1,5311,2.499945,-0.0486,0,349.779,25.4,
1537,1,SBT2050,2,9,,1,5356,2.500088,-0.04828,0,350.385,25.4,
1537,1,SBT2050,2,9,,1,5401,2.5,-0.04816,0,350.988,25.4,
1537,1,SBT2050,2,9,,1,5446,2.50005,-0.04799,0,351.589,25.4,
1537,1,SBT2050,2,9,,1,5491,2.50006,-0.04777,0,352.187,25.4,
1537,1,SBT2050,2,9,,1,5536,2.5,-0.047736,0,352.784,25.4,
1537,1,SBT2050,2,9,,1,5581,2.50017,-0.047458,0,353.378,25.4,
1537,1,SBT2050,2,9,,1,5626,2.499945,-0.04731,0,353.97,25.4,
1537,1,SBT2050,2,9,,1,5671,2.499933,-0.047011,0,354.56,25.4,
1537,1,SBT2050,2,9,,1,5716,2.50006,-0.046942,0,355.147,25.4,
1537,1,SBT2050,2,9,,1,5761,2.499933,-0.046757,0,355.733,25.4,
1537,1,SBT2050,2,9,,1,5806,2.49987,-0.046571,0,356.316,25.4,
1537,1,SBT2050,2,9,,1,5851,2.50006,-0.046383,0,356.897,25.4,
1537,1,SBT2050,2,9,,1,5896,2.50003,-0.046226,0,357.476,25.4,
1537,1,SBT2050,2,9,,1,5941,2.50005,-0.046089,0,358.053,25.4,
1537,1,SBT2050,2,9,,1,5986,2.49989,-0.045877,0,358.628,25.4,
1537,1,SBT2050,2,9,,1,6031,2.500088,-0.045819,0,359.201,25.5,
1537,1,SBT2050,2,9,,1,6076,2.499921,-0.04554,0,359.772,25.4,
1537,1,SBT2050,2,9,,1,6121,2.499933,-0.045515,0,360.341,25.4,
1537,1,SBT2050,2,9,,1,6166,2.49987,-0.045224,0,360.908,25.4,
1537,1,SBT2050,2,9,,1,6211,2.49997,-0.045306,0,361.473,25.4,
1537,1,SBT2050,2,9,,1,6256,2.49999,-0.044904,0,362.036,25.5,
1537,1,SBT2050,2,9,,1,6301,2.49996,-0.044876,0,362.598,25.4,
1537,1,SBT2050,2,9,,1,6346,2.50006,-0.044655,0,363.157,25.4,
1537,1,SBT2050,2,9,,1,6391,2.5,-0.044617,0,363.715,25.4,
1537,1,SBT2050,2,9,,1,6436,2.49998,-0.04434,0,364.271,25.4,
1537,1,SBT2050,2,9,,1,6481,2.499945,-0.044164,0,364.825,25.5,
1537,1,SBT2050,2,9,,1,6526,2.49985,-0.043969,0,365.377,25.5,
1537,1,SBT2050,2,9,,1,6571,2.50002,-0.044119,0,365.928,25.4,
1537,1,SBT2050,2,9,,1,6616,2.50014,-0.044021,0,366.477,25.4,
1537,1,SBT2050,2,9,,1,6661,2.50003,-0.043691,0,367.025,25.4,
1537,1,SBT2050,2,9,,1,6706,2.49981,-0.043611,0,367.57,25.4,
1537,1,SBT2050,2,9,,1,6751,2.49996,-0.043526,0,368.114,25.4,
1537,1,SBT2050,2,9,,1,6796,2.5001,-0.043364,0,368.657,25.5,
1537,1,SBT2050,2,9,,1,6841,2.50002,-0.043092,0,369.197,25.5,
1537,1,SBT2050,2,9,,1,6886,2.50014,-0.043148,0,369.736,25.5,
1537,1,SBT2050,2,9,,1,6931,2.50018,-0.043067,0,370.274,25.5,
1537,1,SBT2050,2,9,,1,6976,2.50016,-0.042935,0,370.81,25.5,
1537,1,SBT2050,2,9,,1,7021,2.49989,-0.042676,0,371.345,25.4,
1537,1,SBT2050,2,9,,1,7066,2.50006,-0.042497,0,371.878,25.4,
1537,1,SBT2050,2,9,,1,7111,2.49997,-0.042415,0,372.409,25.4,
1537,1,SBT2050,2,9,,1,7156,2.50006,-0.042286,0,372.939,25.4,
1537,1,SBT2050,2,9,,1,7201,2.50002,-0.042203,0,373.468,25.4,
1537,1,SBT2050,2,9,,1,7246,2.50002,-0.042097,0,373.995,25.5,
1537,1,SBT2050,2,9,,1,7291,2.50003,-0.042097,0,374.521,25.5,
1537,1,SBT2050,2,9,,1,7336,2.50003,-0.041885,0,375.046,25.5,
1537,1,SBT2050,2,9,,1,7381,2.50018,-0.041853,0,375.569,25.4,
1537,1,SBT2050,2,9,,1,7426,2.4999,-0.041536,0,376.091,25.4,
1537,1,SBT2050,2,9,,1,7471,2.499778,-0.041505,0,376.611,25.5,
1537,1,SBT2050,2,9,,1,7516,2.499945,-0.041446,0,377.13,25.5,
1537,1,SBT2050,2,9,,1,7561,2.500088,-0.041409,0,377.648,25.5,
1537,1,SBT2050,2,9,,1,7606,2.49991,-0.041211,0,378.164,25.5,
1537,1,SBT2050,2,9,,1,7651,2.5,-0.041223,0,378.679,25.5,
1537,1,SBT2050,2,9,,1,7696,2.500112,-0.041079,0,379.192,25.4,
1537,1,SBT2050,2,9,,1,7741,2.49989,-0.040836,0,379.704,25.5,
1537,1,SBT2050,2,9,,1,7786,2.499921,-0.040858,0,380.215,25.5,
1537,1,SBT2050,2,9,,1,7831,2.5,-0.040676,0,380.725,25.5,
1537,1,SBT2050,2,9,,1,7876,2.49983,-0.04056,0,381.234,25.5,
1537,1,SBT2050,2,9,,1,7921,2.499921,-0.040512,0,381.741,25.5,
1537,1,SBT2050,2,9,,1,7966,2.49996,-0.040426,0,382.247,25.4,
1537,1,SBT2050,2,9,,1,8011,2.50015,-0.040394,0,382.751,25.5,
1537,1,SBT2050,2,9,,1,8056,2.49999,-0.04026,0,383.255,25.5,
1537,1,SBT2050,2,9,,1,8101,2.50004,-0.040183,0,383.757,25.5,
1537,1,SBT2050,2,9,,1,8146,2.49997,-0.040067,0,384.258,25.4,
1537,1,SBT2050,2,9,,1,8191,2.49996,-0.039959,0,384.758,25.5,
1537,1,SBT2050,2,9,,1,8236,2.49989,-0.039692,0,385.256,25.5,
1537,1,SBT2050,2,9,,1,8281,2.49999,-0.039666,0,385.754,25.5,
1537,1,SBT2050,2,9,,1,8326,2.50006,-0.039768,0,386.25,25.5,
1537,1,SBT2050,2,9,,1,8371,2.50012,-0.039539,0,386.745,25.5,
1537,1,SBT2050,2,9,,1,8416,2.5,-0.039425,0,387.239,25.5,
1537,1,SBT2050,2,9,,1,8461,2.49987,-0.039386,0,387.732,25.5,
1537,1,SBT2050,2,9,,1,8506,2.49987,-0.039226,0,388.223,25.5,
1537,1,SBT2050,2,9,,1,8551,2.50005,-0.039264,0,388.714,25.5,
1537,1,SBT2050,2,9,,1,8596,2.5002,-0.039192,0,389.203,25.5,
1537,1,SBT2050,2,9,,1,8641,2.49997,-0.038939,0,389.691,25.5,
1537,1,SBT2050,2,9,,1,8686,2.499945,-0.038825,0,390.178,25.5,
1537,1,SBT2050,2,9,,1,8731,2.50012,-0.038912,0,390.664,25.5,
1537,1,SBT2050,2,9,,1,8776,2.49991,-0.038704,0,391.15,25.5,
1537,1,SBT2050,2,9,,1,8821,2.49991,-0.038727,0,391.634,25.5,
1537,1,SBT2050,2,9,,1,8866,2.50005,-0.038621,0,392.117,25.5,
1537,1,SBT2050,2,9,,1,8911,2.49991,-0.038491,0,392.599,25.5,
1537,1,SBT2050,2,9,,1,8956,2.50002,-0.038482,0,393.08,25.5,
1537,1,SBT2050,2,9,,1,9001,2.5,-0.038403,0,393.56,25.5,
1537,1,SBT2050,2,9,,1,9046,2.49998,-0.03829,0,394.039,25.5,
1537,1,SBT2050,2,9,,1,9091,2.50006,-0.03824,0,394.517,25.5,
1537,1,SBT2050,2,9,,1,9136,2.50012,-0.0382,0,394.994,25.5,
1537,1,SBT2050,2,9,,1,9181,2.5,-0.038074,0,395.47,25.5,
1537,1,SBT2050,2,9,,1,9226,2.499945,-0.037923,0,395.945,25.5,
1537,1,SBT2050,2,9,,1,9271,2.49989,-0.037798,0,396.419,25.5,
1537,1,SBT2050,2,9,,1,9316,2.49999,-0.037767,0,396.891,25.5,
1537,1,SBT2050,2,9,,1,9361,2.499945,-0.037696,0,397.363,25.5,
1537,1,SBT2050,2,9,,1,9406,2.50006,-0.037612,0,397.834,25.5,
1537,1,SBT2050,2,9,,1,9451,2.4999,-0.037546,0,398.304,25.5,
1537,1,SBT2050,2,9,,1,9496,2.49989,-0.037371,0,398.773,25.5,
1537,1,SBT2050,2,9,,1,9541,2.5001,-0.037374,0,399.24,25.5,
1537,1,SBT2050,2,9,,1,9586,2.50014,-0.037395,0,399.707,25.5,
1537,1,SBT2050,2,9,,1,9631,2.499945,-0.037077,0,400.172,25.5,
1537,1,SBT2050,2,9,,1,9676,2.5,-0.037046,0,400.636,25.5,
1537,1,SBT2050,2,9,,1,9721,2.50008,-0.037013,0,401.099,25.5,
1537,1,SBT2050,2,9,,1,9766,2.50022,-0.037017,0,401.562,25.6,
1537,1,SBT2050,2,9,,1,9811,2.49998,-0.036949,0,402.023,25.5,
1537,1,SBT2050,2,9,,1,9856,2.50003,-0.036812,0,402.483,25.5,
1537,1,SBT2050,2,9,,1,9901,2.49979,-0.036528,0,402.942,25.5,
1537,1,SBT2050,2,9,,1,9946,2.499921,-0.036478,0,403.4,25.5,
1537,1,SBT2050,2,9,,1,9991,2.499933,-0.036413,0,403.857,25.5,
1537,1,SBT2050,2,9,,1,10036,2.500088,-0.036437,0,404.313,25.5,
1537,1,SBT2050,2,9,,1,10081,2.49997,-0.036403,0,404.768,25.5,
1537,1,SBT2050,2,9,,1,10126,2.50028,-0.036466,0,405.221,25.5,
1537,1,SBT2050,2,9,,1,10171,2.49996,-0.036132,0,405.674,25.5,
1537,1,SBT2050,2,9,,1,10216,2.499921,-0.036076,0,406.126,25.5,
1537,1,SBT2050,2,9,,1,10261,2.49996,-0.035911,0,406.576,25.5,
1537,1,SBT2050,2,9,,1,10306,2.499945,-0.035876,0,407.026,25.5,
1537,1,SBT2050,2,9,,1,10351,2.49983,-0.035777,0,407.474,25.5,
1537,1,SBT2050,2,9,,1,10396,2.50005,-0.035768,0,407.921,25.5,
1537,1,SBT2050,2,9,,1,10441,2.5,-0.035609,0,408.368,25.6,
1537,1,SBT2050,2,9,,1,10486,2.49998,-0.035361,0,408.812,25.5,
1537,1,SBT2050,2,9,,1,10531,2.50014,-0.035411,0,409.256,25.5,
1537,1,SBT2050,2,9,,1,10576,2.50006,-0.035422,0,409.699,25.5,
1537,1,SBT2050,2,9,,1,10621,2.49991,-0.03526,0,410.14,25.5,
1537,1,SBT2050,2,9,,1,10666,2.499921,-0.035143,0,410.581,25.5,
1537,1,SBT2050,2,9,,1,10711,2.499921,-0.035018,0,411.02,25.5,
1537,1,SBT2050,2,9,,1,10756,2.49985,-0.034931,0,411.458,25.5,
1537,1,SBT2050,2,9,,1,10801,2.49991,-0.034913,0,411.895,25.5,
1537,1,SBT2050,2,9,,1,10846,2.49998,-0.034779,0,412.331,25.5,
1537,1,SBT2050,2,9,,1,10891,2.49991,-0.03468,0,412.766,25.5,
1537,1,SBT2050,2,9,,1,10936,2.49998,-0.034741,0,413.2,25.5,
1537,1,SBT2050,2,9,,1,10981,2.5002,-0.034718,0,413.633,25.5,
1537,1,SBT2050,2,9,,1,11026,2.5001,-0.034473,0,414.064,25.5,
1537,1,SBT2050,2,9,,1,11071,2.49999,-0.03438,0,414.495,25.5,
1537,1,SBT2050,2,9,,1,11116,2.49987,-0.034273,0,414.925,25.5,
1537,1,SBT2050,2,9,,1,11161,2.50003,-0.034143,0,415.353,25.5,
1537,1,SBT2050,2,9,,1,11206,2.50004,-0.034115,0,415.781,25.5,
1537,1,SBT2050,2,9,,1,11251,2.50002,-0.034023,0,416.207,25.5,
1537,1,SBT2050,2,9,,1,11296,2.49987,-0.033991,0,416.632,25.5,
1537,1,SBT2050,2,9,,1,11341,2.499945,-0.033807,0,417.056,25.5,
1537,1,SBT2050,2,9,,1,11386,2.50002,-0.033743,0,417.479,25.5,
1537,1,SBT2050,2,9,,1,11431,2.49999,-0.033769,0,417.901,25.5,
1537,1,SBT2050,2,9,,1,11476,2.499945,-0.033659,0,418.322,25.5,
1537,1,SBT2050,2,9,,1,11521,2.49985,-0.033452,0,418.742,25.5,
1537,1,SBT2050,2,9,,1,11566,2.500088,-0.033441,0,419.16,25.5,
1537,1,SBT2050,2,9,,1,11611,2.49998,-0.03322,0,419.577,25.5,
1537,1,SBT2050,2,9,,1,11656,2.49991,-0.033199,0,419.993,25.5,
1537,1,SBT2050,2,9,,1,11701,2.50006,-0.033171,0,420.408,25.5,
1537,1,SBT2050,2,9,,1,11746,2.49986,-0.032988,0,420.821,25.5,
1537,1,SBT2050,2,9,,1,11791,2.50004,-0.032958,0,421.233,25.5,
1537,1,SBT2050,2,9,,1,11836,2.49997,-0.032755,0,421.644,25.5,
1537,1,SBT2050,2,9,,1,11881,2.499933,-0.032639,0,422.053,25.5,
1537,1,SBT2050,2,9,,1,11926,2.50003,-0.032647,0,422.461,25.5,
1537,1,SBT2050,2,9,,1,11971,2.49998,-0.032498,0,422.868,25.5,
1537,1,SBT2050,2,9,,1,12016,2.499933,-0.032335,0,423.273,25.5,
1537,1,SBT2050,2,9,,1,12061,2.50005,-0.032306,0,423.677,25.5,
1537,1,SBT2050,2,9,,1,12106,2.5002,-0.032249,0,424.08,25.5,
1537,1,SBT2050,2,9,,1,12151,2.49997,-0.032118,0,424.481,25.5,
1537,1,SBT2050,2,9,,1,12196,2.49999,-0.031897,0,424.881,25.5,
1537,1,SBT2050,2,9,,1,12241,2.50012,-0.031934,0,425.28,25.5,
1537,1,SBT2050,2,9,,1,12286,2.49996,-0.031751,0,425.677,25.5,
1537,1,SBT2050,2,9,,1,12331,2.50006,-0.031544,0,426.073,25.5,
1537,1,SBT2050,2,9,,1,12376,2.50017,-0.031545,0,426.468,25.5,
1537,1,SBT2050,2,9,,1,12421,2.49987,-0.03124,0,426.862,25.5,
1537,1,SBT2050,2,9,,1,12466,2.4999,-0.03125,0,427.254,25.5,
1537,1,SBT2050,2,9,,1,12511,2.49999,-0.031155,0,427.646,25.5,
1537,1,SBT2050,2,9,,1,12556,2.49999,-0.031254,0,428.036,25.5,
1537,1,SBT2050,2,9,,1,12601,2.49999,-0.031157,0,428.425,25.5,
1537,1,SBT2050,2,9,,1,12646,2.500088,-0.031082,0,428.814,25.5,
1537,1,SBT2050,2,9,,1,12691,2.50005,-0.030885,0,429.201,25.5,
1537,1,SBT2050,2,9,,1,12736,2.49999,-0.030914,0,429.587,25.5,
1537,1,SBT2050,2,9,,1,12781,2.50017,-0.030895,0,429.973,25.5,
1537,1,SBT2050,2,9,,1,12826,2.5,-0.030824,0,430.358,25.5,
1537,1,SBT2050,2,9,,1,12871,2.50021,-0.03068,0,430.742,25.5,
1537,1,SBT2050,2,9,,1,12916,2.50003,-0.03053,0,431.125,25.5,
1537,1,SBT2050,2,9,,1,12961,2.50003,-0.030427,0,431.508,25.5,
1537,1,SBT2050,2,9,,1,13006,2.500112,-0.030529,0,431.889,25.5,
1537,1,SBT2050,2,9,,1,13051,2.50012,-0.030314,0,432.27,25.5,
1537,1,SBT2050,2,9,,1,13096,2.50015,-0.030405,0,432.65,25.5,
1537,1,SBT2050,2,9,,1,13141,2.500088,-0.030283,0,433.029,25.5,
1537,1,SBT2050,2,9,,1,13186,2.499921,-0.030201,0,433.408,25.5,
1537,1,SBT2050,2,9,,1,13231,2.49987,-0.030114,0,433.785,25.5,
1537,1,SBT2050,2,9,,1,13276,2.49996,-0.030165,0,434.163,25.5,
1537,1,SBT2050,2,9,,1,13321,2.50008,-0.030026,0,434.539,25.5,
1537,1,SBT2050,2,9,,1,13366,2.50004,-0.030059,0,434.914,25.5,
1537,1,SBT2050,2,9,,1,13411,2.49991,-0.030029,0,435.289,25.5,
1537,1,SBT2050,2,9,,1,13456,2.50006,-0.029872,0,435.663,25.5,
1537,1,SBT2050,2,9,,1,13501,2.49991,-0.029778,0,436.036,25.5,
1537,1,SBT2050,2,9,,1,13546,2.50006,-0.029814,0,436.408,25.5,
1537,1,SBT2050,2,9,,1,13591,2.499945,-0.029794,0,436.78,25.5,
1537,1,SBT2050,2,9,,1,13636,2.500088,-0.029621,0,437.15,25.5,
1537,1,SBT2050,2,9,,1,13681,2.49986,-0.02948,0,437.52,25.5,
1537,1,SBT2050,2,9,,1,13726,2.500112,-0.029596,0,437.889,25.5,
1537,1,SBT2050,2,9,,1,13771,2.49991,-0.029342,0,438.258,25.5,
1537,1,SBT2050,2,9,,1,13816,2.50003,-0.029404,0,438.626,25.5,
1537,1,SBT2050,2,9,,1,13861,2.50005,-0.029423,0,438.992,25.5,
1537,1,SBT2050,2,9,,1,13906,2.49997,-0.029162,0,439.358,25.5,
1537,1,SBT2050,2,9,,1,13951,2.49997,-0.029138,0,439.724,25.5,
1537,1,SBT2050,2,9,,1,13996,2.49985,-0.02901,0,440.088,25.5,
1537,1,SBT2050,2,9,,1,14041,2.5,-0.028955,0,440.452,25.5,
1537,1,SBT2050,2,9,,1,14086,2.4998,-0.028968,0,440.815,25.5,
1537,1,SBT2050,2,9,,1,14131,2.5,-0.028924,0,441.177,25.5,
1537,1,SBT2050,2,9,,1,14176,2.499945,-0.028848,0,441.538,25.5,
1537,1,SBT2050,2,9,,1,14221,2.49996,-0.028953,0,441.898,25.5,
1537,1,SBT2050,2,9,,1,14266,2.49981,-0.028683,0,442.258,25.5,
1537,1,SBT2050,2,9,,1,14311,2.49973,-0.028525,0,442.617,25.5,
1537,1,SBT2050,2,9,,1,14356,2.50021,-0.028679,0,442.975,25.5,
1537,1,SBT2050,2,9,,1,14401,2.49998,-0.028577,0,443.332,25.5,
1537,1,SBT2050,2,9,,1,14446,2.4998,-0.028353,0,443.688,25.5,
1537,1,SBT2050,2,9,,1,14491,2.49979,-0.028344,0,444.044,25.5,
1537,1,SBT2050,2,9,,1,14536,2.5001,-0.028356,0,444.399,25.5,
1537,1,SBT2050,2,9,,1,14581,2.49996,-0.02822,0,444.753,25.5,
1537,1,SBT2050,2,9,,1,14626,2.50017,-0.028121,0,445.106,25.5,
1537,1,SBT2050,2,9,,1,14671,2.499945,-0.028179,0,445.458,25.5,
1537,1,SBT2050,2,9,,1,14716,2.49997,-0.028051,0,445.81,25.5,
1537,1,SBT2050,2,9,,1,14761,2.5002,-0.028056,0,446.16,25.5,
1537,1,SBT2050,2,9,,1,14806,2.5,-0.028025,0,446.51,25.5,
1537,1,SBT2050,2,9,,1,14851,2.50005,-0.027853,0,446.859,25.5,
1537,1,SBT2050,2,9,,1,14896,2.49985,-0.027748,0,447.207,25.5,
1537,1,SBT2050,2,9,,1,14941,2.49984,-0.027775,0,447.555,25.5,
1537,1,SBT2050,2,9,,1,14986,2.50012,-0.027798,0,447.901,25.5,
1537,1,SBT2050,2,9,,1,15031,2.50015,-0.027714,0,448.247,25.5,
1537,1,SBT2050,2,9,,1,15076,2.499766,-0.027518,0,448.592,25.5,
1537,1,SBT2050,2,9,,1,15121,2.500112,-0.027365,0,448.936,25.5,
1537,1,SBT2050,2,9,,1,15166,2.4998,-0.027198,0,449.279,25.5,
1537,1,SBT2050,2,9,,1,15211,2.49997,-0.027312,0,449.621,25.5,
1537,1,SBT2050,2,9,,1,15256,2.49981,-0.027288,0,449.963,25.5,
1537,1,SBT2050,2,9,,1,15301,2.49996,-0.027256,0,450.303,25.5,
1537,1,SBT2050,2,9,,1,15346,2.499778,-0.026974,0,450.643,25.5,
1537,1,SBT2050,2,9,,1,15391,2.50002,-0.027013,0,450.982,25.5,
1537,1,SBT2050,2,9,,1,15436,2.50005,-0.026974,0,451.32,25.5,
1537,1,SBT2050,2,9,,1,15481,2.499933,-0.026925,0,451.657,25.5,
1537,1,SBT2050,2,9,,1,15526,2.4999,-0.026841,0,451.994,25.5,
1537,1,SBT2050,2,9,,1,15571,2.50004,-0.026887,0,452.33,25.5,
1537,1,SBT2050,2,9,,1,15616,2.5001,-0.026789,0,452.664,25.5,
1537,1,SBT2050,2,9,,1,15661,2.499933,-0.026616,0,452.998,25.4,
1537,1,SBT2050,2,9,,1,15706,2.49987,-0.026481,0,453.331,25.5,
1537,1,SBT2050,2,9,,1,15751,2.49999,-0.026445,0,453.663,25.5,
1537,1,SBT2050,2,9,,1,15796,2.499921,-0.026305,0,453.994,25.5,
1537,1,SBT2050,2,9,,1,15841,2.49999,-0.026344,0,454.325,25.5,
1537,1,SBT2050,2,9,,1,15886,2.5,-0.026364,0,454.654,25.5,
1537,1,SBT2050,2,9,,1,15931,2.49999,-0.026285,0,454.983,25.5,
1537,1,SBT2050,2,9,,1,15976,2.49996,-0.026195,0,455.311,25.5,
1537,1,SBT2050,2,9,,1,16021,2.49991,-0.026123,0,455.638,25.5,
1537,1,SBT2050,2,9,,1,16066,2.500112,-0.026094,0,455.965,25.5,
1537,1,SBT2050,2,9,,1,16111,2.499933,-0.025998,0,456.29,25.5,
1537,1,SBT2050,2,9,,1,16156,2.50017,-0.026017,0,456.615,25.5,
1537,1,SBT2050,2,9,,1,16201,2.499945,-0.025959,0,456.939,25.5,
1537,1,SBT2050,2,9,,1,16246,2.500112,-0.02578,0,457.262,25.5,
1537,1,SBT2050,2,9,,1,16291,2.5,-0.025726,0,457.584,25.5,
1537,1,SBT2050,2,9,,1,16336,2.50041,-0.025899,0,457.906,25.5,
1537,1,SBT2050,2,9,,1,16381,2.500255,-0.025741,0,458.227,25.5,
1537,1,SBT2050,2,9,,1,16426,2.50014,-0.025662,0,458.547,25.5,
1537,1,SBT2050,2,9,,1,16471,2.499766,-0.025559,0,458.867,25.5,
1537,1,SBT2050,2,9,,1,16516,2.50014,-0.025372,0,459.185,25.5,
1537,1,SBT2050,2,9,,1,16561,2.49998,-0.025322,0,459.502,25.5,
1537,1,SBT2050,2,9,,1,16606,2.50002,-0.025171,0,459.819,25.5,
1537,1,SBT2050,2,9,,1,16651,2.499921,-0.0252,0,460.135,25.5,
1537,1,SBT2050,2,9,,1,16696,2.49999,-0.02502,0,460.45,25.5,
1537,1,SBT2050,2,9,,1,16741,2.4998,-0.024912,0,460.765,25.5,
1537,1,SBT2050,2,9,,1,16786,2.50017,-0.025101,0,461.078,25.5,
1537,1,SBT2050,2,9,,1,16831,2.49999,-0.024947,0,461.391,25.5,
1537,1,SBT2050,2,9,,1,16876,2.49985,-0.024897,0,461.703,25.5,
1537,1,SBT2050,2,9,,1,16921,2.50014,-0.025003,0,462.014,25.5,
1537,1,SBT2050,2,9,,1,16966,2.50022,-0.024851,0,462.324,25.5,
1537,1,SBT2050,2,9,,1,17011,2.50018,-0.024665,0,462.633,25.5,
1537,1,SBT2050,2,9,,1,17056,2.50008,-0.024791,0,462.942,25.5,
1537,1,SBT2050,2,9,,1,17101,2.5,-0.024651,0,463.25,25.5,
1537,1,SBT2050,2,9,,1,17146,2.49996,-0.02451,0,463.557,25.5,
1537,1,SBT2050,2,9,,1,17191,2.5,-0.024418,0,463.863,25.5,
1537,1,SBT2050,2,9,,1,17236,2.50014,-0.024519,0,464.168,25.5,
1537,1,SBT2050,2,9,,1,17281,2.50005,-0.024385,0,464.473,25.5,
1537,1,SBT2050,2,9,,1,17326,2.499945,-0.024342,0,464.777,25.5,
1537,1,SBT2050,2,9,,1,17371,2.50006,-0.024215,0,465.08,25.5,
1537,1,SBT2050,2,9,,1,17416,2.4999,-0.024022,0,465.382,25.5,
1537,1,SBT2050,2,9,,1,17461,2.5,-0.024109,0,465.684,25.5,
1537,1,SBT2050,2,9,,1,17506,2.49996,-0.024095,0,465.984,25.5,
1537,1,SBT2050,2,9,,1,17551,2.50023,-0.023996,0,466.284,25.5,
1537,1,SBT2050,2,9,,1,17596,2.49981,-0.023812,0,466.584,25.5,
1537,1,SBT2050,2,9,,1,17641,2.49997,-0.02386,0,466.882,25.5,
1537,1,SBT2050,2,9,,1,17686,2.50008,-0.023812,0,467.18,25.5,
1537,1,SBT2050,2,9,,1,17731,2.499933,-0.023806,0,467.477,25.5,
1537,1,SBT2050,2,9,,1,17776,2.49997,-0.023649,0,467.773,25.5,
1537,1,SBT2050,2,9,,1,17821,2.50008,-0.023546,0,468.068,25.5,
1537,1,SBT2050,2,9,,1,17866,2.49987,-0.023534,0,468.363,25.5,
1537,1,SBT2050,2,9,,1,17911,2.5002,-0.023382,0,468.656,25.5,
1537,1,SBT2050,2,9,,1,17956,2.50003,-0.023374,0,468.949,25.5,
1537,1,SBT2050,2,9,,1,18001,2.5001,-0.023316,0,469.242,25.5,
1537,1,SBT2050,2,9,,1,18046,2.50003,-0.023263,0,469.533,25.5,
1537,1,SBT2050,2,9,,1,18091,2.500088,-0.023214,0,469.824,25.5,
1537,1,SBT2050,2,9,,1,18136,2.499933,-0.023165,0,470.114,25.5,
1537,1,SBT2050,2,9,,1,18181,2.49986,-0.023065,0,470.404,25.5,
1537,1,SBT2050,2,9,,1,18226,2.49991,-0.023147,0,470.692,25.5,
1537,1,SBT2050,2,9,,1,18271,2.50008,-0.022981,0,470.98,25.4,
1537,1,SBT2050,2,9,,1,18316,2.49997,-0.022917,0,471.267,25.5,
1537,1,SBT2050,2,9,,1,18361,2.49981,-0.022774,0,471.553,25.5,
1537,1,SBT2050,2,9,,1,18406,2.50008,-0.02278,0,471.838,25.5,
1537,1,SBT2050,2,9,,1,18451,2.49998,-0.022775,0,472.123,25.5,
1537,1,SBT2050,2,9,,1,18496,2.49998,-0.0226,0,472.407,25.5,
1537,1,SBT2050,2,9,,1,18541,2.5,-0.022579,0,472.69,25.5,
1537,1,SBT2050,2,9,,1,18586,2.50003,-0.02262,0,472.972,25.5,
1537,1,SBT2050,2,9,,1,18631,2.50008,-0.022614,0,473.254,25.5,
1537,1,SBT2050,2,9,,1,18676,2.49991,-0.022365,0,473.534,25.5,
1537,1,SBT2050,2,9,,1,18721,2.50004,-0.0225,0,473.814,25.5,
1537,1,SBT2050,2,9,,1,18766,2.49986,-0.022215,0,474.094,25.5,
1537,1,SBT2050,2,9,,1,18811,2.5001,-0.022402,0,474.372,25.5,
1537,1,SBT2050,2,9,,1,18856,2.499945,-0.022269,0,474.65,25.5,
1537,1,SBT2050,2,9,,1,18901,2.49999,-0.022151,0,474.927,25.5,
1537,1,SBT2050,2,9,,1,18946,2.49999,-0.022047,0,475.203,25.5,
1537,1,SBT2050,2,9,,1,18991,2.50015,-0.021998,0,475.478,25.5,
1537,1,SBT2050,2,9,,1,19036,2.50018,-0.021997,0,475.753,25.4,
1537,1,SBT2050,2,9,,1,19081,2.50003,-0.021799,0,476.027,25.5,
1537,1,SBT2050,2,9,,1,19126,2.50002,-0.021786,0,476.3,25.5,
1537,1,SBT2050,2,9,,1,19171,2.49975,-0.021696,0,476.572,25.5,
1537,1,SBT2050,2,9,,1,19216,2.50004,-0.021658,0,476.844,25.5,
1537,1,SBT2050,2,9,,1,19261,2.50006,-0.021695,0,477.115,25.5,
1537,1,SBT2050,2,9,,1,19306,2.50002,-0.021543,0,477.385,25.5,
1537,1,SBT2050,2,9,,1,19351,2.49989,-0.021447,0,477.655,25.5,
1537,1,SBT2050,2,9,,1,19396,2.49983,-0.021488,0,477.923,25.5,
1537,1,SBT2050,2,9,,1,19441,2.499778,-0.021309,0,478.191,25.5,
1537,1,SBT2050,2,9,,1,19486,2.49998,-0.021326,0,478.459,25.5,
1537,1,SBT2050,2,9,,1,19531,2.5,-0.021255,0,478.725,25.5,
1537,1,SBT2050,2,9,,1,19576,2.50002,-0.021113,0,478.991,25.5,
1537,1,SBT2050,2,9,,1,19621,2.49989,-0.021226,0,479.256,25.5,
1537,1,SBT2050,2,9,,1,19666,2.500243,-0.021178,0,479.521,25.5,
1537,1,SBT2050,2,9,,1,19711,2.50018,-0.021027,0,479.784,25.5,
1537,1,SBT2050,2,9,,1,19756,2.50015,-0.021023,0,480.048,25.5,
1537,1,SBT2050,2,9,,1,19801,2.50008,-0.020887,0,480.31,25.5,
1537,1,SBT2050,2,9,,1,19846,2.500243,-0.021032,0,480.572,25.4,
1537,1,SBT2050,2,9,,1,19891,2.50004,-0.020877,0,480.833,25.5,
1537,1,SBT2050,2,9,,1,19936,2.50033,-0.020999,0,481.093,25.4,
1537,1,SBT2050,2,9,,1,19981,2.50002,-0.0208,0,481.353,25.4,
1537,1,SBT2050,2,9,,1,20026,2.49998,-0.020659,0,481.612,25.2,
1537,1,SBT2050,2,9,,1,20071,2.49999,-0.020642,0,481.871,25.1,
1537,1,SBT2050,2,9,,1,20116,2.50002,-0.020503,0,482.128,25,
1537,1,SBT2050,2,9,,1,20161,2.50018,-0.020579,0,482.385,24.9,
1537,1,SBT2050,2,9,,1,20206,2.49998,-0.020432,0,482.642,24.8,
1537,1,SBT2050,2,9,,1,20251,2.499921,-0.020389,0,482.898,24.8,
1537,1,SBT2050,2,9,,1,20296,2.4999,-0.020459,0,483.152,24.8,
1537,1,SBT2050,2,9,,1,20341,2.499945,-0.020183,0,483.407,24.7,
1537,1,SBT2050,2,9,,1,20386,2.500112,-0.020378,0,483.66,24.7,
1537,1,SBT2050,2,9,,1,20431,2.49999,-0.020307,0,483.913,24.7,
1537,1,SBT2050,2,9,,1,20476,2.50014,-0.02031,0,484.166,24.7,
1537,1,SBT2050,2,9,,1,20521,2.50003,-0.020089,0,484.418,24.7,
1537,1,SBT2050,2,9,,1,20566,2.499933,-0.020052,0,484.669,24.7,
1537,1,SBT2050,2,9,,1,20611,2.49999,-0.020029,0,484.919,24.7,
1537,1,SBT2050,2,9,,1,20656,2.499945,-0.019936,0,485.169,24.7,
1537,1,SBT2050,2,9,,1,20701,2.5,-0.019839,0,485.418,24.7,
1537,1,SBT2050,2,9,,1,20746,2.50003,-0.019799,0,485.666,24.7,
1537,1,SBT2050,2,9,,1,20791,2.50006,-0.019808,0,485.914,24.7,
1537,1,SBT2050,2,9,,1,20836,2.499921,-0.019737,0,486.161,24.7,
1537,1,SBT2050,2,9,,1,20881,2.50003,-0.019776,0,486.408,24.7,
1537,1,SBT2050,2,9,,1,20926,2.49999,-0.019586,0,486.654,24.7,
1537,1,SBT2050,2,9,,1,20971,2.50008,-0.019598,0,486.899,24.7,
1537,1,SBT2050,2,9,,1,21016,2.50004,-0.019485,0,487.143,24.8,
1537,1,SBT2050,2,9,,1,21061,2.49999,-0.01936,0,487.387,24.8,
1537,1,SBT2050,2,9,,1,21106,2.500112,-0.019472,0,487.63,24.9,
1537,1,SBT2050,2,9,,1,21151,2.50015,-0.019434,0,487.873,24.9,
1537,1,SBT2050,2,9,,1,21196,2.49997,-0.019293,0,488.115,24.9,
1537,1,SBT2050,2,9,,1,21241,2.50012,-0.019263,0,488.357,24.9,
1537,1,SBT2050,2,9,,1,21286,2.499921,-0.019222,0,488.598,24.9,
1537,1,SBT2050,2,9,,1,21331,2.499921,-0.019133,0,488.838,24.9,
1537,1,SBT2050,2,9,,1,21376,2.49991,-0.019078,0,489.078,24.9,
1537,1,SBT2050,2,9,,1,21421,2.49998,-0.019153,0,489.317,24.9,
1537,1,SBT2050,2,9,,1,21466,2.49998,-0.019001,0,489.556,24.9,
1537,1,SBT2050,2,9,,1,21511,2.499933,-0.018978,0,489.794,24.9,
1537,1,SBT2050,2,9,,1,21556,2.49991,-0.019071,0,490.031,25,
1537,1,SBT2050,2,9,,1,21601,2.49991,-0.018886,0,490.268,24.9,
1537,1,SBT2050,2,9,,1,21646,2.50002,-0.018876,0,490.505,25,
1537,1,SBT2050,2,9,,1,21691,2.499945,-0.018691,0,490.74,24.9,
1537,1,SBT2050,2,9,,1,21736,2.50015,-0.018806,0,490.976,24.9,
1537,1,SBT2050,2,9,,1,21781,2.50002,-0.018775,0,491.21,25,
1537,1,SBT2050,2,9,,1,21826,2.49998,-0.018711,0,491.444,25,
1537,1,SBT2050,2,9,,1,21871,2.49998,-0.018611,0,491.678,25,
1537,1,SBT2050,2,9,,1,21916,2.49983,-0.018563,0,491.911,24.9,
1537,1,SBT2050,2,9,,1,21961,2.5,-0.01858,0,492.143,25,
1537,1,SBT2050,2,9,,1,22006,2.49999,-0.018501,0,492.375,24.9,
1537,1,SBT2050,2,9,,1,22051,2.50003,-0.018438,0,492.607,24.9,
1537,1,SBT2050,2,9,,1,22096,2.5001,-0.018478,0,492.837,24.9,
1537,1,SBT2050,2,9,,1,22141,2.50005,-0.018435,0,493.068,24.9,
1537,1,SBT2050,2,9,,1,22186,2.49987,-0.018108,0,493.297,24.9,
1537,1,SBT2050,2,9,,1,22231,2.49979,-0.018153,0,493.526,24.8,
1537,1,SBT2050,2,9,,1,22276,2.49999,-0.018246,0,493.755,24.9,
1537,1,SBT2050,2,9,,1,22321,2.499945,-0.018164,0,493.983,24.9,
1537,1,SBT2050,2,9,,1,22366,2.49991,-0.018176,0,494.21,24.8,
1537,1,SBT2050,2,9,,1,22411,2.50006,-0.018214,0,494.437,24.8,
1537,1,SBT2050,2,9,,1,22456,2.50003,-0.018131,0,494.663,24.8,
1537,1,SBT2050,2,9,,1,22501,2.499933,-0.017957,0,494.889,24.8,
1537,1,SBT2050,2,9,,1,22546,2.49983,-0.017878,0,495.114,24.9,
1537,1,SBT2050,2,9,,1,22591,2.49991,-0.017981,0,495.339,24.9,
1537,1,SBT2050,2,9,,1,22636,2.5,-0.017923,0,495.563,24.9,
1537,1,SBT2050,2,9,,1,22681,2.50004,-0.017792,0,495.787,24.9,
1537,1,SBT2050,2,9,,1,22726,2.50004,-0.017736,0,496.01,24.9,
1537,1,SBT2050,2,9,,1,22771,2.50012,-0.017846,0,496.233,25,
1537,1,SBT2050,2,9,,1,22816,2.499921,-0.01771,0,496.455,25,
1537,1,SBT2050,2,9,,1,22861,2.49991,-0.017693,0,496.676,25,
1537,1,SBT2050,2,9,,1,22906,2.50003,-0.017606,0,496.898,25.1,
1537,1,SBT2050,2,9,,1,22951,2.499945,-0.017724,0,497.118,25.1,
1537,1,SBT2050,2,9,,1,22996,2.49997,-0.017544,0,497.338,25.1,
1537,1,SBT2050,2,9,,1,23041,2.50008,-0.01753,0,497.558,25.1,
1537,1,SBT2050,2,9,,1,23086,2.49987,-0.017335,0,497.777,25.1,
1537,1,SBT2050,2,9,,1,23131,2.49999,-0.017396,0,497.995,25.1,
1537,1,SBT2050,2,9,,1,23176,2.50002,-0.017475,0,498.213,25.2,
1537,1,SBT2050,2,9,,1,23221,2.49997,-0.017443,0,498.431,25.2,
1537,1,SBT2050,2,9,,1,23266,2.5001,-0.017462,0,498.648,25.1,
1537,1,SBT2050,2,9,,1,23311,2.50003,-0.017225,0,498.865,25.2,
1537,1,SBT2050,2,9,,1,23356,2.5002,-0.017334,0,499.081,25.2,
1537,1,SBT2050,2,9,,1,23401,2.50005,-0.017241,0,499.296,25.2,
1537,1,SBT2050,2,9,,1,23446,2.5001,-0.017183,0,499.512,25.1,
1537,1,SBT2050,2,9,,1,23491,2.50005,-0.01718,0,499.726,25.1,
1537,1,SBT2050,2,9,,1,23536,2.49998,-0.017122,0,499.94,25.1,
1537,1,SBT2050,2,9,,1,23581,2.49997,-0.017047,0,500.154,25.1,
1537,1,SBT2050,2,9,,1,23626,2.50002,-0.017094,0,500.367,25.1,
1537,1,SBT2050,2,9,,1,23671,2.5,-0.017047,0,500.58,25.1,
1537,1,SBT2050,2,9,,1,23716,2.49986,-0.016901,0,500.792,25.1,
1537,1,SBT2050,2,9,,1,23761,2.49997,-0.016812,0,501.004,25.1,
1537,1,SBT2050,2,9,,1,23806,2.499921,-0.016875,0,501.215,25.1,
1537,1,SBT2050,2,9,,1,23851,2.500088,-0.016841,0,501.426,25.1,
1537,1,SBT2050,2,9,,1,23896,2.5,-0.016822,0,501.636,25,
1537,1,SBT2050,2,9,,1,23941,2.49985,-0.016771,0,501.846,25.1,
1537,1,SBT2050,2,9,,1,23986,2.49987,-0.016738,0,502.056,25.1,
1537,1,SBT2050,2,9,,1,24031,2.49999,-0.016756,0,502.264,25.1,
1537,1,SBT2050,2,9,,1,24076,2.49989,-0.016532,0,502.473,25.1,
1537,1,SBT2050,2,9,,1,24121,2.49991,-0.016592,0,502.681,25.1,
1537,1,SBT2050,2,9,,1,24166,2.50003,-0.016549,0,502.889,25.1,
1537,1,SBT2050,2,9,,1,24211,2.5,-0.016582,0,503.096,25,
1537,1,SBT2050,2,9,,1,24256,2.50005,-0.016502,0,503.302,25.1,
1537,1,SBT2050,2,9,,1,24301,2.50003,-0.016398,0,503.508,25,
1537,1,SBT2050,2,9,,1,24346,2.49981,-0.016361,0,503.714,25.1,
1537,1,SBT2050,2,9,,1,24391,2.50005,-0.016444,0,503.919,25.1,
1537,1,SBT2050,2,9,,1,24436,2.49999,-0.016387,0,504.124,25.1,
1537,1,SBT2050,2,9,,1,24481,2.49996,-0.016281,0,504.329,25.1,
1537,1,SBT2050,2,9,,1,24526,2.49987,-0.016139,0,504.533,25,
1537,1,SBT2050,2,9,,1,24571,2.49997,-0.016276,0,504.736,25,
1537,1,SBT2050,2,9,,1,24616,2.49996,-0.01622,0,504.939,25,
1537,1,SBT2050,2,9,,1,24661,2.499933,-0.016262,0,505.142,25,
1537,1,SBT2050,2,9,,1,24706,2.5001,-0.016166,0,505.344,25,
1537,1,SBT2050,2,9,,1,24751,2.49997,-0.016137,0,505.545,25.1,
1537,1,SBT2050,2,9,,1,24796,2.49979,-0.015919,0,505.747,25.1,
1537,1,SBT2050,2,9,,1,24841,2.499945,-0.016017,0,505.947,25.1,
1537,1,SBT2050,2,9,,1,24886,2.50014,-0.01606,0,506.148,25.1,
1537,1,SBT2050,2,9,,1,24931,2.49998,-0.015962,0,506.347,25.1,
1537,1,SBT2050,2,9,,1,24976,2.499945,-0.015881,0,506.547,25.1,
1537,1,SBT2050,2,9,,1,25021,2.5001,-0.015852,0,506.746,25,
1537,1,SBT2050,2,9,,1,25066,2.49996,-0.015801,0,506.944,25,
1537,1,SBT2050,2,9,,1,25111,2.50022,-0.015935,0,507.142,25.1,
1537,1,SBT2050,2,9,,1,25156,2.50002,-0.01577,0,507.34,25.1,
1537,1,SBT2050,2,9,,1,25201,2.49997,-0.015708,0,507.537,25,
1537,1,SBT2050,2,9,,1,25246,2.49999,-0.015711,0,507.733,25,
1537,1,SBT2050,2,9,,1,25291,2.499933,-0.015676,0,507.929,25,
1537,1,SBT2050,2,9,,1,25336,2.4998,-0.015598,0,508.125,25,
1537,1,SBT2050,2,9,,1,25381,2.50002,-0.015604,0,508.32,25,
1537,1,SBT2050,2,9,,1,25426,2.499921,-0.015584,0,508.515,25,
1537,1,SBT2050,2,9,,1,25471,2.50003,-0.015577,0,508.71,25,
1537,1,SBT2050,2,9,,1,25516,2.50002,-0.015567,0,508.904,25,
1537,1,SBT2050,2,9,,1,25561,2.499945,-0.015497,0,509.097,25,
1537,1,SBT2050,2,9,,1,25606,2.49999,-0.01551,0,509.29,25,
1537,1,SBT2050,2,9,,1,25651,2.499945,-0.015286,0,509.483,25.1,
1537,1,SBT2050,2,9,,1,25696,2.49999,-0.015292,0,509.675,25,
1537,1,SBT2050,2,9,,1,25741,2.50005,-0.015345,0,509.867,25,
1537,1,SBT2050,2,9,,1,25786,2.49987,-0.015261,0,510.059,25,
1537,1,SBT2050,2,9,,1,25831,2.49998,-0.015209,0,510.25,25,
1537,1,SBT2050,2,9,,1,25876,2.499945,-0.01515,0,510.44,25,
1537,1,SBT2050,2,9,,1,25921,2.5001,-0.015159,0,510.63,25,
1537,1,SBT2050,2,9,,1,25966,2.50018,-0.015278,0,510.82,25,
1537,1,SBT2050,2,9,,1,26011,2.49999,-0.015109,0,511.009,25.1,
1537,1,SBT2050,2,9,,1,26056,2.49996,-0.015036,0,511.198,25,
1537,1,SBT2050,2,9,,1,26101,2.49999,-0.015033,0,511.386,25,
1537,1,SBT2050,2,9,,1,26146,2.50003,-0.015028,0,511.574,25,
1537,1,SBT2050,2,9,,1,26191,2.5,-0.015052,0,511.762,25,
1537,1,SBT2050,2,9,,1,26236,2.50002,-0.014967,0,511.949,25.1,
1537,1,SBT2050,2,9,,1,26281,2.50004,-0.01492,0,512.136,25.1,
1537,1,SBT2050,2,9,,1,26326,2.50012,-0.014911,0,512.322,25,
1537,1,SBT2050,2,9,,1,26371,2.5,-0.014879,0,512.508,25,
1537,1,SBT2050,2,9,,1,26416,2.49999,-0.014754,0,512.694,25.1,
1537,1,SBT2050,2,9,,1,26461,2.49997,-0.014787,0,512.879,25,
1537,1,SBT2050,2,9,,1,26506,2.499921,-0.014708,0,513.063,25,
1537,1,SBT2050,2,9,,1,26551,2.5001,-0.014731,0,513.248,25,
1537,1,SBT2050,2,9,,1,26596,2.499945,-0.014725,0,513.431,25,
1537,1,SBT2050,2,9,,1,26641,2.4999,-0.014536,0,513.615,25,
1537,1,SBT2050,2,9,,1,26686,2.50005,-0.014629,0,513.798,25,
1537,1,SBT2050,2,9,,1,26731,2.499933,-0.014632,0,513.98,25,
1537,1,SBT2050,2,9,,1,26776,2.49997,-0.014511,0,514.163,25,
1537,1,SBT2050,2,9,,1,26821,2.49981,-0.014353,0,514.344,25,
1537,1,SBT2050,2,9,,1,26866,2.50006,-0.014505,0,514.525,25,
1537,1,SBT2050,2,9,,1,26911,2.50018,-0.014469,0,514.707,25,
1537,1,SBT2050,2,9,,1,26956,2.50002,-0.014321,0,514.887,25,
1537,1,SBT2050,2,9,,1,27001,2.50005,-0.014402,0,515.067,25,
1537,1,SBT2050,2,9,,1,27046,2.4999,-0.014332,0,515.247,25.1,
1537,1,SBT2050,2,9,,1,27091,2.49999,-0.014301,0,515.426,25,
1537,1,SBT2050,2,9,,1,27136,2.499945,-0.014234,0,515.605,25.1,
1537,1,SBT2050,2,9,,1,27181,2.49996,-0.014294,0,515.783,25.1,
1537,1,SBT2050,2,9,,1,27226,2.5,-0.014231,0,515.961,25,
1537,1,SBT2050,2,9,,1,27271,2.49985,-0.014202,0,516.139,25,
1537,1,SBT2050,2,9,,1,27316,2.49997,-0.014181,0,516.317,25,
1537,1,SBT2050,2,9,,1,27361,2.49996,-0.014204,0,516.493,25,
1537,1,SBT2050,2,9,,1,27406,2.49996,-0.014114,0,516.67,25,
1537,1,SBT2050,2,9,,1,27451,2.49991,-0.014103,0,516.846,25.1,
1537,1,SBT2050,2,9,,1,27496,2.50005,-0.014053,0,517.022,25.1,
1537,1,SBT2050,2,9,,1,27541,2.49998,-0.014098,0,517.197,25,
1537,1,SBT2050,2,9,,1,27586,2.49985,-0.013998,0,517.372,25,
1537,1,SBT2050,2,9,,1,27631,2.500112,-0.013833,0,517.547,25,
1537,1,SBT2050,2,9,,1,27676,2.5,-0.01394,0,517.721,25,
1537,1,SBT2050,2,9,,1,27721,2.500112,-0.013897,0,517.895,25,
1537,1,SBT2050,2,9,,1,27766,2.49989,-0.013817,0,518.068,25,
1537,1,SBT2050,2,9,,1,27811,2.50006,-0.013867,0,518.242,25,
1537,1,SBT2050,2,9,,1,27856,2.50003,-0.013795,0,518.414,25,
1537,1,SBT2050,2,9,,1,27901,2.5001,-0.013807,0,518.587,25,
1537,1,SBT2050,2,9,,1,27946,2.50008,-0.013713,0,518.759,25.1,
1537,1,SBT2050,2,9,,1,27991,2.50003,-0.013621,0,518.93,25,
1537,1,SBT2050,2,9,,1,28036,2.5,-0.013618,0,519.101,25,
1537,1,SBT2050,2,9,,1,28081,2.50002,-0.013623,0,519.272,25.1,
1537,1,SBT2050,2,9,,1,28126,2.49987,-0.013535,0,519.443,25.1,
1537,1,SBT2050,2,9,,1,28171,2.49965,-0.013457,0,519.613,25,
1537,1,SBT2050,2,9,,1,28216,2.49997,-0.01358,0,519.782,25,
1537,1,SBT2050,2,9,,1,28261,2.49998,-0.013457,0,519.952,25,
1537,1,SBT2050,2,9,,1,28306,2.49998,-0.013516,0,520.121,25.1,
1537,1,SBT2050,2,9,,1,28351,2.49987,-0.01349,0,520.29,25,
1537,1,SBT2050,2,9,,1,28396,2.5,-0.013346,0,520.458,25,
1537,1,SBT2050,2,9,,1,28441,2.50017,-0.013527,0,520.626,25.1,
1537,1,SBT2050,2,9,,1,28486,2.499921,-0.013332,0,520.793,25,
1537,1,SBT2050,2,9,,1,28531,2.50017,-0.013428,0,520.96,25,
1537,1,SBT2050,2,9,,1,28576,2.5001,-0.013291,0,521.127,25.1,
1537,1,SBT2050,2,9,,1,28621,2.499921,-0.013372,0,521.293,25.1,
1537,1,SBT2050,2,9,,1,28666,2.49998,-0.013269,0,521.459,25.1,
1537,1,SBT2050,2,9,,1,28711,2.49991,-0.013301,0,521.625,25,
1537,1,SBT2050,2,9,,1,28756,2.50017,-0.013437,0,521.79,25,
1537,1,SBT2050,2,9,,1,28801,2.50005,-0.013169,0,521.955,25.1,
1537,1,SBT2050,2,9,,1,28846,2.50005,-0.013192,0,522.12,25,
1537,1,SBT2050,2,9,,1,28891,2.49998,-0.013103,0,522.284,25,
1537,1,SBT2050,2,9,,1,28936,2.50008,-0.013099,0,522.448,25.1,
1537,1,SBT2050,2,9,,1,28981,2.49999,-0.013007,0,522.611,25,
1537,1,SBT2050,2,9,,1,29026,2.50002,-0.013085,0,522.774,25,
1537,1,SBT2050,2,9,,1,29071,2.5001,-0.013004,0,522.937,25,
1537,1,SBT2050,2,9,,1,29116,2.5,-0.012975,0,523.099,25,
1537,1,SBT2050,2,9,,1,29161,2.50002,-0.012994,0,523.261,25,
1537,1,SBT2050,2,9,,1,29206,2.50014,-0.012936,0,523.423,25,
1537,1,SBT2050,2,9,,1,29251,2.499945,-0.012966,0,523.584,25.1,
1537,1,SBT2050,2,9,,1,29296,2.49997,-0.012828,0,523.745,25,
1537,1,SBT2050,2,9,,1,29341,2.5,-0.012818,0,523.906,25,
1537,1,SBT2050,2,9,,1,29386,2.50002,-0.012748,0,524.066,25,
1537,1,SBT2050,2,9,,1,29431,2.50005,-0.012837,0,524.226,25,
1537,1,SBT2050,2,9,,1,29476,2.49997,-0.01278,0,524.386,25,
1537,1,SBT2050,2,9,,1,29521,2.50004,-0.012768,0,524.545,25,
1537,1,SBT2050,2,9,,1,29566,2.499945,-0.012645,0,524.704,25,
1537,1,SBT2050,2,9,,1,29611,2.50003,-0.012664,0,524.863,25,
1537,1,SBT2050,2,9,,1,29656,2.49998,-0.012651,0,525.021,25,
1537,1,SBT2050,2,9,,1,29701,2.499945,-0.012602,0,525.179,25,
1537,1,SBT2050,2,9,,1,29746,2.50006,-0.012614,0,525.337,25,
1537,1,SBT2050,2,9,,1,29791,2.50014,-0.012568,0,525.494,25,
1537,1,SBT2050,2,9,,1,29836,2.50008,-0.012632,0,525.651,25.1,
1537,1,SBT2050,2,9,,1,29881,2.49975,-0.012585,0,525.807,25,
1537,1,SBT2050,2,9,,1,29926,2.499921,-0.012508,0,525.963,25,
1537,1,SBT2050,2,9,,1,29971,2.50012,-0.012469,0,526.119,25,
1537,1,SBT2050,2,9,,1,30016,2.50006,-0.012331,0,526.275,25,
1537,1,SBT2050,2,9,,1,30061,2.49987,-0.01234,0,526.43,25.1,
1537,1,SBT2050,2,9,,1,30106,2.50004,-0.012375,0,526.584,25,
1537,1,SBT2050,2,9,,1,30151,2.499945,-0.012344,0,526.739,25,
1537,1,SBT2050,2,9,,1,30196,2.50008,-0.012303,0,526.893,25,
1537,1,SBT2050,2,9,,1,30241,2.50008,-0.012288,0,527.047,25,
1537,1,SBT2050,2,9,,1,30286,2.4999,-0.012297,0,527.2,25,
1537,1,SBT2050,2,9,,1,30331,2.499945,-0.012223,0,527.353,25,
1537,1,SBT2050,2,9,,1,30376,2.49998,-0.012204,0,527.506,25,
1537,1,SBT2050,2,9,,1,30421,2.50021,-0.012288,0,527.658,25,
1537,1,SBT2050,2,9,,1,30466,2.50002,-0.012099,0,527.811,25,
1537,1,SBT2050,2,9,,1,30511,2.4998,-0.012031,0,527.963,25,
1537,1,SBT2050,2,9,,1,30556,2.5002,-0.012189,0,528.114,25,
1537,1,SBT2050,2,9,,1,30601,2.49979,-0.012014,0,528.265,25,
1537,1,SBT2050,2,9,,1,30646,2.5,-0.012055,0,528.416,25,
1537,1,SBT2050,2,9,,1,30691,2.49999,-0.012064,0,528.567,25,
1537,1,SBT2050,2,9,,1,30736,2.49985,-0.011962,0,528.717,25,
1537,1,SBT2050,2,9,,1,30781,2.49999,-0.011957,0,528.867,25,
1537,1,SBT2050,2,9,,1,30826,2.50008,-0.012038,0,529.017,25,
1537,1,SBT2050,2,9,,1,30871,2.4998,-0.01182,0,529.166,25,
1537,1,SBT2050,2,9,,1,30916,2.500088,-0.011864,0,529.315,25,
1537,1,SBT2050,2,9,,1,30961,2.49984,-0.011872,0,529.464,25,
1537,1,SBT2050,2,9,,1,31006,2.4999,-0.011889,0,529.612,25,
1537,1,SBT2050,2,9,,1,31051,2.49986,-0.011771,0,529.76,25,
1537,1,SBT2050,2,9,,1,31096,2.500088,-0.011839,0,529.908,25,
1537,1,SBT2050,2,9,,1,31141,2.500112,-0.011814,0,530.056,25,
1537,1,SBT2050,2,9,,1,31186,2.50015,-0.011762,0,530.203,25,
1537,1,SBT2050,2,9,,1,31231,2.50014,-0.011768,0,530.35,25,
1537,1,SBT2050,2,9,,1,31276,2.50004,-0.011776,0,530.497,25,
1537,1,SBT2050,2,9,,1,31321,2.50005,-0.011709,0,530.643,25,
1537,1,SBT2050,2,9,,1,31366,2.50012,-0.011656,0,530.789,25,
1537,1,SBT2050,2,9,,1,31411,2.49999,-0.011474,0,530.935,25,
1537,1,SBT2050,2,9,,1,31456,2.5,-0.011692,0,531.08,25,
1537,1,SBT2050,2,9,,1,31501,2.499945,-0.011552,0,531.225,25,
1537,1,SBT2050,2,9,,1,31546,2.49996,-0.011444,0,531.37,25,
1537,1,SBT2050,2,9,,1,31591,2.50006,-0.011514,0,531.514,25,
1537,1,SBT2050,2,9,,1,31636,2.50015,-0.011522,0,531.658,25,
1537,1,SBT2050,2,9,,1,31681,2.49987,-0.01138,0,531.802,25,
1537,1,SBT2050,2,9,,1,31726,2.50003,-0.011398,0,531.945,25,
1537,1,SBT2050,2,9,,1,31771,2.50006,-0.01152,0,532.088,25,
1537,1,SBT2050,2,9,,1,31816,2.500112,-0.011467,0,532.231,25,
1537,1,SBT2050,2,9,,1,31861,2.50008,-0.011392,0,532.374,25,
1537,1,SBT2050,2,9,,1,31906,2.49999,-0.011381,0,532.516,25,
1537,1,SBT2050,2,9,,1,31951,2.50002,-0.011295,0,532.658,25,
1537,1,SBT2050,2,9,,1,31996,2.499766,-0.011339,0,532.8,25,
1537,1,SBT2050,2,9,,1,32041,2.500112,-0.011336,0,532.941,25,
1537,1,SBT2050,2,9,,1,32086,2.50012,-0.011337,0,533.082,25,
1537,1,SBT2050,2,9,,1,32131,2.50003,-0.011322,0,533.223,25,
1537,1,SBT2050,2,9,,1,32176,2.49996,-0.011174,0,533.363,25,
1537,1,SBT2050,2,9,,1,32221,2.49998,-0.011165,0,533.504,25,
1537,1,SBT2050,2,9,,1,32266,2.499945,-0.011139,0,533.644,25,
1537,1,SBT2050,2,9,,1,32311,2.49986,-0.011084,0,533.783,25,
1537,1,SBT2050,2,9,,1,32356,2.49986,-0.011115,0,533.923,25,
1537,1,SBT2050,2,9,,1,32401,2.50004,-0.011136,0,534.062,25,
1537,1,SBT2050,2,9,,1,32446,2.50017,-0.011168,0,534.2,25,
1537,1,SBT2050,2,9,,1,32491,2.50004,-0.011075,0,534.339,25,
1537,1,SBT2050,2,9,,1,32536,2.5,-0.011071,0,534.477,25,
1537,1,SBT2050,2,9,,1,32581,2.50014,-0.011104,0,534.615,25,
1537,1,SBT2050,2,9,,1,32626,2.5,-0.011007,0,534.753,25,
1537,1,SBT2050,2,9,,1,32671,2.49986,-0.010984,0,534.89,25,
1537,1,SBT2050,2,9,,1,32716,2.499921,-0.010936,0,535.027,25,
1537,1,SBT2050,2,9,,1,32761,2.500088,-0.011028,0,535.164,25,
1537,1,SBT2050,2,9,,1,32806,2.50002,-0.010845,0,535.3,25,
1537,1,SBT2050,2,9,,1,32851,2.49974,-0.010676,0,535.437,25,
1537,1,SBT2050,2,9,,1,32896,2.50005,-0.010924,0,535.573,25,
1537,1,SBT2050,2,9,,1,32941,2.499921,-0.010805,0,535.709,25,
1537,1,SBT2050,2,9,,1,32986,2.5,-0.010656,0,535.844,25,
1537,1,SBT2050,2,9,,1,33031,2.49985,-0.010779,0,535.979,25,
1537,1,SBT2050,2,9,,1,33076,2.50003,-0.010807,0,536.114,25,
1537,1,SBT2050,2,9,,1,33121,2.49997,-0.010738,0,536.249,25,
1537,1,SBT2050,2,9,,1,33166,2.50006,-0.010741,0,536.383,25,
1537,1,SBT2050,2,9,,1,33211,2.50002,-0.010673,0,536.517,25,
1537,1,SBT2050,2,9,,1,33256,2.4999,-0.010642,0,536.651,25,
1537,1,SBT2050,2,9,,1,33301,2.49985,-0.01059,0,536.784,25,
1537,1,SBT2050,2,9,,1,33346,2.5,-0.010668,0,536.917,25,
1537,1,SBT2050,2,9,,1,33391,2.5001,-0.010638,0,537.05,25,
1537,1,SBT2050,2,9,,1,33436,2.49997,-0.010636,0,537.183,25,
1537,1,SBT2050,2,9,,1,33481,2.500112,-0.010632,0,537.315,25,
1537,1,SBT2050,2,9,,1,33526,2.49989,-0.010498,0,537.448,25,
1537,1,SBT2050,2,9,,1,33571,2.49996,-0.010505,0,537.58,25,
1537,1,SBT2050,2,9,,1,33616,2.5,-0.010525,0,537.711,25,
1537,1,SBT2050,2,9,,1,33661,2.49986,-0.010374,0,537.843,25,
1537,1,SBT2050,2,9,,1,33706,2.50005,-0.01069,0,537.974,25,
1537,1,SBT2050,2,9,,1,33751,2.49999,-0.010412,0,538.105,25,
1537,1,SBT2050,2,9,,1,33796,2.50004,-0.010411,0,538.236,25,
1537,1,SBT2050,2,9,,1,33841,2.500112,-0.01047,0,538.367,25,
1537,1,SBT2050,2,9,,1,33886,2.500088,-0.010525,0,538.497,25,
1537,1,SBT2050,2,9,,1,33931,2.49998,-0.010418,0,538.627,25,
1537,1,SBT2050,2,9,,1,33976,2.50008,-0.01033,0,538.757,25,
1537,1,SBT2050,2,9,,1,34021,2.49987,-0.01024,0,538.887,25,
1537,1,SBT2050,2,9,,1,34066,2.50012,-0.010304,0,539.016,25,
1537,1,SBT2050,2,9,,1,34111,2.49998,-0.010219,0,539.145,25,
1537,1,SBT2050,2,9,,1,34156,2.50004,-0.01028,0,539.274,25,
1537,1,SBT2050,2,9,,1,34201,2.5,-0.010278,0,539.402,25,
1537,1,SBT2050,2,9,,1,34246,2.49996,-0.010168,0,539.531,25,
1537,1,SBT2050,2,9,,1,34291,2.49997,-0.010258,0,539.658,25,
1537,1,SBT2050,2,9,,1,34336,2.500088,-0.010289,0,539.786,25,
1537,1,SBT2050,2,9,,1,34381,2.50006,-0.010252,0,539.914,25,
1537,1,SBT2050,2,9,,2,34425,3.49018,2.9359,14.985,539.986,25.2,
1537,1,SBT2050,2,9,,2,34470,3.80262,2.936,51.685,539.986,25.8,
1537,1,SBT2050,2,9,,2,34515,3.90067,2.9362,88.384,539.986,26.8,
1537,1,SBT2050,2,9,,2,34560,3.931652,2.9358,125.083,539.986,27.8,
1537,1,SBT2050,2,9,,2,34605,3.95488,2.936,161.783,539.986,28.8,
1537,1,SBT2050,2,9,,2,34650,3.97254,2.9357,198.482,539.986,29.6,
1537,1,SBT2050,2,9,,2,34695,3.98438,2.9362,235.182,539.986,30.2,
1537,1,SBT2050,2,9,,2,34740,3.99505,2.9363,271.881,539.986,30.9,
1537,1,SBT2050,2,9,,2,34785,4.00432,2.9354,308.581,539.986,31.3,
1537,1,SBT2050,2,9,,2,34830,4.01433,2.9358,345.28,539.986,31.6,
1537,1,SBT2050,2,9,,2,34875,4.02517,2.9359,381.979,539.986,31.9,
1537,1,SBT2050,2,9,,2,34920,4.03697,2.9358,418.679,539.986,32.1,
1537,1,SBT2050,2,9,,2,34965,4.04972,2.9356,455.378,539.986,32.4,
1537,1,SBT2050,2,9,,2,35010,4.06415,2.9361,492.078,539.986,32.5,
1537,1,SBT2050,2,9,,2,35055,4.07966,2.9358,528.777,539.986,32.7,
1537,1,SBT2050,2,9,,2,35100,4.09644,2.9364,565.477,539.986,32.8,
1537,1,SBT2050,2,9,,2,35145,4.11382,2.9362,602.176,539.986,32.9,
1537,1,SBT2050,2,9,,2,35190,4.13231,2.9362,638.876,539.986,33,
1537,1,SBT2050,2,9,,2,35235,4.150276,2.9218,675.57,539.986,33.1,
1537,1,SBT2050,2,9,,2,35280,4.15009,2.7587,711.021,539.986,33.2,
1537,1,SBT2050,2,9,,2,35325,4.149966,2.6122,744.577,539.986,33.2,
1537,1,SBT2050,2,9,,2,35370,4.14989,2.4677,776.32,539.986,33,
1537,1,SBT2050,2,9,,2,35415,4.1502,2.3266,806.278,539.986,32.9,
1537,1,SBT2050,2,9,,2,35460,4.149954,2.1958,834.541,539.986,32.7,
1537,1,SBT2050,2,9,,2,35505,4.149966,2.0725,861.204,539.986,32.5,
1537,1,SBT2050,2,9,,2,35550,4.15013,1.9569,886.38,539.986,32.2,
1537,1,SBT2050,2,9,,2,35595,4.1501,1.8529,910.191,539.986,31.9,
1537,1,SBT2050,2,9,,2,35640,4.14992,1.7608,932.766,539.986,31.6,
1537,1,SBT2050,2,9,,2,35685,4.150276,1.6792,954.252,539.986,31.4,
1537,1,SBT2050,2,9,,2,35730,4.15009,1.6127,974.814,539.986,31.2,
1537,1,SBT2050,2,9,,2,35775,4.15014,1.565,994.658,539.986,31,
1537,1,SBT2050,2,9,,2,35820,4.15013,1.5322,1013.997,539.986,31,
1537,1,SBT2050,2,9,,2,35865,4.14999,1.5166,1033.03,539.986,31,
1537,1,SBT2050,2,9,,2,35910,4.1502,1.5131,1051.947,539.986,31.3,
1537,1,SBT2050,2,9,,2,35955,4.15012,1.5296,1070.955,539.986,31.6,
1537,1,SBT2050,2,9,,2,36000,4.15,1.5628,1090.267,539.986,32.1,
1537,1,SBT2050,2,9,,2,36045,4.15001,1.6085,1110.079,539.986,32.8,
1537,1,SBT2050,2,9,,2,36090,4.14976,1.6651,1130.515,539.986,33.8,
1537,1,SBT2050,2,9,,2,36135,4.14993,1.7356,1151.763,539.986,34.8,
1537,1,SBT2050,2,9,,2,36180,4.149978,1.8196,1173.956,539.986,36,
1537,1,SBT2050,2,9,,2,36225,4.14983,1.9069,1197.257,539.986,37.4,
1537,1,SBT2050,2,9,,2,36270,4.15004,1.9964,1221.662,539.986,39.1,
1537,1,SBT2050,2,9,,2,36315,4.14989,2.0851,1247.174,539.986,40.8,
1537,1,SBT2050,2,9,,2,36360,4.14976,2.174,1273.78,539.986,42.6,
1537,1,SBT2050,2,9,,2,36405,4.14985,2.2523,1301.442,539.986,44.5,
1537,1,SBT2050,2,9,,2,36450,4.15006,2.331,1330.102,539.986,46.6,
1537,1,SBT2050,2,9,,2,36495,4.14988,2.3971,1359.659,539.986,48.5,
1537,1,SBT2050,2,9,,2,36540,4.15007,2.4536,1389.987,539.986,50.5,
1537,1,SBT2050,2,9,,2,36585,4.149954,2.4985,1420.96,539.986,52.4,
1537,1,SBT2050,2,9,,2,36630,4.14981,2.5323,1452.409,539.986,54.2,
1537,1,SBT2050,2,9,,2,36675,4.14991,2.5555,1484.219,539.986,55.9,
1537,1,SBT2050,2,9,,2,36720,4.14982,2.5664,1516.254,539.986,57.5,
1537,1,SBT2050,2,9,,2,36765,4.150252,2.5641,1548.337,539.986,59,
1537,1,SBT2050,2,9,,2,36800.002,4.15,-2.5564,1573.24,539.986,60.1,