File: 2C/Test1588.csv
Request Year:,2018,,,,,,,,,,,,
Test:,1588,,,,,,,,,,,,
Test Description:,,,,,,,,,,,,,
TestRegime Name:,Compare_2C,,,,,,,,,,,,
TestRegime Suffix:,SHP_LC,,,,,,,,,,,,
TestRegime CellSize:,18650,,,,,,,,,,,,
TestRegime Version:,1,,,,,,,,,,,,
Number Of Cells:,1,,,,,,,,,,,,
LotID:,,,,,,,,,,,,,
Lot Description:,,,,,,,,,,,,,
Date Made:,1/21/2003 12:00 AM,,,,,,,,,,,,
Origin:,Other,,,,,,,,,,,,
Requestor:,Admin,,,,,,,,,,,,
Product ID:,Default product,,,,,,,,,,,,
Storage Temp:,R.T./AMB,,,,,,,,,,,,
Storage Delay:,0 days,,,,,,,,,,,,
Test Temp:,R.T./AMB,,,,,,,,,,,,
Start Time:,5/3/2018 4:49 AM,,,,,,,,,,,,
End Time:,5/3/2018 7:11 AM,,,,,,,,,,,,
Operator Instructions:,,,,,,,,,,,,,
Test,Cell,Rack,Shelf,Position,Cell ID,Step,Total Time (Seconds),Voltage (V),Current (A),Charge Capacity (mAh),Discharge Capacity (mAh),TC1 (Â°C),
1588,1,SBT2050,2,9,,0,1,3.49436,0,0,0,24.8,
1588,1,SBT2050,2,9,,0,11,3.49425,0,0,0,24.8,
1588,1,SBT2050,2,9,,0,21,3.4941,0,0,0,24.8,
1588,1,SBT2050,2,9,,0,31,3.49427,0,0,0,24.8,
1588,1,SBT2050,2,9,,0,41,3.49412,0,0,0,24.8,
1588,1,SBT2050,2,9,,0,51,3.49414,0,0,0,24.9,
1588,1,SBT2050,2,9,,0,61,3.494054,0,0,0,24.9,
1588,1,SBT2050,2,9,,0,71,3.49411,0,0,0,24.9,
1588,1,SBT2050,2,9,,0,81,3.49387,0,0,0,24.9,
1588,1,SBT2050,2,9,,0,91,3.49405,0,0,0,25,
1588,1,SBT2050,2,9,,0,101,3.49406,0,0,0,25,
1588,1,SBT2050,2,9,,0,111,3.493868,0,0,0,25,
1588,1,SBT2050,2,9,,0,121,3.49406,0,0,0,25,
1588,1,SBT2050,2,9,,0,131,3.49408,0,0,0,25.1,
1588,1,SBT2050,2,9,,0,141,3.49406,0,0,0,25.1,
1588,1,SBT2050,2,9,,0,151,3.49376,0,0,0,25.1,
1588,1,SBT2050,2,9,,0,161,3.49395,0,0,0,25.1,
1588,1,SBT2050,2,9,,0,171,3.49372,0,0,0,25.1,
1588,1,SBT2050,2,9,,0,181,3.494128,0,0,0,25.1,
1588,1,SBT2050,2,9,,0,191,3.49422,0,0,0,25.2,
1588,1,SBT2050,2,9,,0,201,3.494138,0,0,0,25.2,
1588,1,SBT2050,2,9,,0,211,3.49409,0,0,0,25.2,
1588,1,SBT2050,2,9,,0,221,3.49385,0,0,0,25.2,
1588,1,SBT2050,2,9,,0,231,3.494,0,0,0,25.2,
1588,1,SBT2050,2,9,,0,241,3.49396,0,0,0,25.3,
1588,1,SBT2050,2,9,,0,251,3.493898,0,0,0,25.2,
1588,1,SBT2050,2,9,,0,261,3.49396,0,0,0,25.2,
1588,1,SBT2050,2,9,,0,271,3.49402,0,0,0,25.2,
1588,1,SBT2050,2,9,,0,281,3.493998,0,0,0,25.2,
1588,1,SBT2050,2,9,,0,291,3.49385,0,0,0,25.2,
1588,1,SBT2050,2,9,,1,301,4.05026,5.499,1.525,0,25.2,
1588,1,SBT2050,2,9,,1,311,4.14979,5.499,16.802,0,25.6,
1588,1,SBT2050,2,9,,1,321,4.20066,5.37,32.034,0,26.2,
1588,1,SBT2050,2,9,,1,331,4.20033,4.955,46.332,0,26.7,
1588,1,SBT2050,2,9,,1,341,4.20008,4.6772,59.683,0,27.3,
1588,1,SBT2050,2,9,,1,351,4.200148,4.481,72.386,0,27.8,
1588,1,SBT2050,2,9,,1,361,4.19999,4.343,84.63,0,28.3,
1588,1,SBT2050,2,9,,1,371,4.20005,4.2382,96.538,0,28.8,
1588,1,SBT2050,2,9,,1,381,4.20026,4.156,108.191,0,29.2,
1588,1,SBT2050,2,9,,1,391,4.20018,4.09,119.639,0,29.6,
1588,1,SBT2050,2,9,,1,401,4.19993,4.0364,130.92,0,30,
1588,1,SBT2050,2,9,,1,411,4.19999,3.992,142.068,0,30.3,
1588,1,SBT2050,2,9,,1,421,4.20003,3.9569,153.106,0,30.7,
1588,1,SBT2050,2,9,,1,431,4.20024,3.928,164.056,0,31,
1588,1,SBT2050,2,9,,1,441,4.20024,3.9019,174.932,0,31.3,
1588,1,SBT2050,2,9,,1,451,4.20021,3.8808,185.748,0,31.6,
1588,1,SBT2050,2,9,,1,461,4.200124,3.8611,196.502,0,31.9,
1588,1,SBT2050,2,9,,1,471,4.20009,3.8383,207.195,0,32.1,
1588,1,SBT2050,2,9,,1,481,4.20009,3.8121,217.822,0,32.4,
1588,1,SBT2050,2,9,,1,491,4.20029,3.7866,228.379,0,32.6,
1588,1,SBT2050,2,9,,1,501,4.2001,3.7604,238.861,0,32.8,
1588,1,SBT2050,2,9,,1,511,4.20016,3.729,249.262,0,32.9,
1588,1,SBT2050,2,9,,1,521,4.20008,3.6998,259.58,0,33.1,
1588,1,SBT2050,2,9,,1,531,4.20002,3.6684,269.811,0,33.3,
1588,1,SBT2050,2,9,,1,541,4.20005,3.6351,279.952,0,33.4,
1588,1,SBT2050,2,9,,1,551,4.20006,3.5993,289.999,0,33.6,
1588,1,SBT2050,2,9,,1,561,4.19996,3.5642,299.951,0,33.7,
1588,1,SBT2050,2,9,,1,571,4.200112,3.5271,309.803,0,33.8,
1588,1,SBT2050,2,9,,1,581,4.20005,3.4913,319.552,0,34,
1588,1,SBT2050,2,9,,1,591,4.19998,3.4541,329.199,0,34,
1588,1,SBT2050,2,9,,1,601,4.20022,3.4163,338.743,0,34.1,
1588,1,SBT2050,2,9,,1,611,4.199814,3.3784,348.181,0,34.2,
1588,1,SBT2050,2,9,,1,621,4.2002,3.339,357.512,0,34.3,
1588,1,SBT2050,2,9,,1,631,4.19993,3.3013,366.734,0,34.4,
1588,1,SBT2050,2,9,,1,641,4.19999,3.2611,375.85,0,34.4,
1588,1,SBT2050,2,9,,1,651,4.20022,3.2223,384.857,0,34.5,
1588,1,SBT2050,2,9,,1,661,4.19993,3.1835,393.754,0,34.5,
1588,1,SBT2050,2,9,,1,671,4.20028,3.1436,402.543,0,34.5,
1588,1,SBT2050,2,9,,1,681,4.20018,3.1046,411.222,0,34.6,
1588,1,SBT2050,2,9,,1,691,4.2001,3.0655,419.791,0,34.6,
1588,1,SBT2050,2,9,,1,701,4.200124,3.0251,428.251,0,34.6,
1588,1,SBT2050,2,9,,1,711,4.20009,2.9854,436.599,0,34.6,
1588,1,SBT2050,2,9,,1,721,4.19991,2.9465,444.839,0,34.5,
1588,1,SBT2050,2,9,,1,731,4.20034,2.9059,452.969,0,34.6,
1588,1,SBT2050,2,9,,1,741,4.200112,2.8692,460.992,0,34.6,
1588,1,SBT2050,2,9,,1,751,4.200172,2.8305,468.908,0,34.6,
1588,1,SBT2050,2,9,,1,761,4.20006,2.7909,476.717,0,34.5,
1588,1,SBT2050,2,9,,1,771,4.19997,2.7503,484.417,0,34.5,
1588,1,SBT2050,2,9,,1,781,4.20024,2.7148,492.011,0,34.5,
1588,1,SBT2050,2,9,,1,791,4.19989,2.6787,499.502,0,34.4,
1588,1,SBT2050,2,9,,1,801,4.200136,2.6421,506.89,0,34.4,
1588,1,SBT2050,2,9,,1,811,4.20021,2.604,514.177,0,34.3,
1588,1,SBT2050,2,9,,1,821,4.20024,2.5684,521.363,0,34.3,
1588,1,SBT2050,2,9,,1,831,4.20003,2.5329,528.448,0,34.2,
1588,1,SBT2050,2,9,,1,841,4.19999,2.4977,535.434,0,34.1,
1588,1,SBT2050,2,9,,1,851,4.19996,2.4621,542.322,0,34.1,
1588,1,SBT2050,2,9,,1,861,4.20027,2.4269,549.113,0,34.1,
1588,1,SBT2050,2,9,,1,871,4.20016,2.3942,555.809,0,34,
1588,1,SBT2050,2,9,,1,881,4.19999,2.3592,562.411,0,34,
1588,1,SBT2050,2,9,,1,891,4.200172,2.3266,568.92,0,33.9,
1588,1,SBT2050,2,9,,1,901,4.200124,2.2944,575.338,0,33.8,
1588,1,SBT2050,2,9,,1,911,4.20021,2.2617,581.667,0,33.8,
1588,1,SBT2050,2,9,,1,921,4.20008,2.2309,587.908,0,33.7,
1588,1,SBT2050,2,9,,1,931,4.19979,2.2002,594.061,0,33.6,
1588,1,SBT2050,2,9,,1,941,4.20009,2.1685,600.13,0,33.6,
1588,1,SBT2050,2,9,,1,951,4.2001,2.1415,606.116,0,33.5,
1588,1,SBT2050,2,9,,1,961,4.19997,2.1101,612.019,0,33.4,
1588,1,SBT2050,2,9,,1,971,4.20006,2.0825,617.842,0,33.3,
1588,1,SBT2050,2,9,,1,981,4.20009,2.0542,623.587,0,33.3,
1588,1,SBT2050,2,9,,1,991,4.20023,2.0261,629.256,0,33.2,
1588,1,SBT2050,2,9,,1,1001,4.200124,1.9991,634.847,0,33.1,
1588,1,SBT2050,2,9,,1,1011,4.1999,1.9735,640.365,0,33,
1588,1,SBT2050,2,9,,1,1021,4.20018,1.946,645.809,0,32.9,
1588,1,SBT2050,2,9,,1,1031,4.19996,1.9208,651.183,0,32.9,
1588,1,SBT2050,2,9,,1,1041,4.19995,1.897,656.486,0,32.8,
1588,1,SBT2050,2,9,,1,1051,4.2002,1.8726,661.72,0,32.7,
1588,1,SBT2050,2,9,,1,1061,4.19978,1.8488,666.885,0,32.6,
1588,1,SBT2050,2,9,,1,1071,4.20021,1.8248,671.987,0,32.5,
1588,1,SBT2050,2,9,,1,1081,4.19985,1.8033,677.027,0,32.4,
1588,1,SBT2050,2,9,,1,1091,4.2001,1.781,682.006,0,32.4,
1588,1,SBT2050,2,9,,1,1101,4.20047,1.7602,686.926,0,32.3,
1588,1,SBT2050,2,9,,1,1111,4.200124,1.7405,691.789,0,32.3,
1588,1,SBT2050,2,9,,1,1121,4.19989,1.7226,696.598,0,32.2,
1588,1,SBT2050,2,9,,1,1131,4.20021,1.7032,701.356,0,32.1,
1588,1,SBT2050,2,9,,1,1141,4.1999,1.6871,706.062,0,32.1,
1588,1,SBT2050,2,9,,1,1151,4.2,1.6695,710.722,0,32,
1588,1,SBT2050,2,9,,1,1161,4.19996,1.6529,715.336,0,31.9,
1588,1,SBT2050,2,9,,1,1171,4.20004,1.6375,719.905,0,31.9,
1588,1,SBT2050,2,9,,1,1181,4.2002,1.6223,724.433,0,31.9,
1588,1,SBT2050,2,9,,1,1191,4.199862,1.6093,728.921,0,31.8,
1588,1,SBT2050,2,9,,1,1201,4.20006,1.5961,733.372,0,31.7,
1588,1,SBT2050,2,9,,1,1211,4.20029,1.5835,737.789,0,31.7,
1588,1,SBT2050,2,9,,1,1221,4.19999,1.5726,742.173,0,31.7,
1588,1,SBT2050,2,9,,1,1231,4.20003,1.5619,746.525,0,31.6,
1588,1,SBT2050,2,9,,1,1241,4.20034,1.551,750.849,0,31.6,
1588,1,SBT2050,2,9,,1,1251,4.20002,1.5425,755.145,0,31.6,
1588,1,SBT2050,2,9,,1,1261,4.1999,1.5348,759.419,0,31.6,
1588,1,SBT2050,2,9,,1,1271,4.19995,1.5269,763.67,0,31.6,
1588,1,SBT2050,2,9,,1,1281,4.20003,1.5198,767.901,0,31.5,
1588,1,SBT2050,2,9,,1,1291,4.199862,1.5149,772.114,0,31.6,
1588,1,SBT2050,2,9,,1,1301,4.199862,1.5073,776.308,0,31.5,
1588,1,SBT2050,2,9,,1,1311,4.20004,1.5028,780.488,0,31.6,
1588,1,SBT2050,2,9,,1,1321,4.19992,1.499,784.658,0,31.6,
1588,1,SBT2050,2,9,,1,1331,4.19991,1.496,788.817,0,31.6,
1588,1,SBT2050,2,9,,1,1341,4.20004,1.4922,792.967,0,31.6,
1588,1,SBT2050,2,9,,1,1351,4.20002,1.4903,797.107,0,31.6,
1588,1,SBT2050,2,9,,1,1361,4.19979,1.489,801.245,0,31.7,
1588,1,SBT2050,2,9,,1,1371,4.200136,1.4881,805.379,0,31.7,
1588,1,SBT2050,2,9,,1,1381,4.20003,1.4891,809.515,0,31.8,
1588,1,SBT2050,2,9,,1,1391,4.19992,1.4905,813.653,0,31.8,
1588,1,SBT2050,2,9,,1,1401,4.200124,1.4908,817.794,0,31.9,
1588,1,SBT2050,2,9,,1,1411,4.20018,1.4943,821.941,0,32,
1588,1,SBT2050,2,9,,1,1421,4.19997,1.4966,826.095,0,32.1,
1588,1,SBT2050,2,9,,1,1431,4.199862,1.5003,830.255,0,32.1,
1588,1,SBT2050,2,9,,1,1441,4.20006,1.5035,834.427,0,32.3,
1588,1,SBT2050,2,9,,1,1451,4.19995,1.5081,838.611,0,32.3,
1588,1,SBT2050,2,9,,1,1461,4.19997,1.5137,842.808,0,32.5,
1588,1,SBT2050,2,9,,1,1471,4.19975,1.5189,847.02,0,32.6,
1588,1,SBT2050,2,9,,1,1481,4.19992,1.5258,851.249,0,32.7,
1588,1,SBT2050,2,9,,1,1491,4.19999,1.5337,855.499,0,32.8,
1588,1,SBT2050,2,9,,1,1501,4.200112,1.5416,859.769,0,33,
1588,1,SBT2050,2,9,,1,1511,4.20004,1.549,864.06,0,33.1,
1588,1,SBT2050,2,9,,1,1521,4.20003,1.558,868.375,0,33.3,
1588,1,SBT2050,2,9,,1,1531,4.199862,1.568,872.717,0,33.5,
1588,1,SBT2050,2,9,,1,1541,4.19975,1.576,877.083,0,33.7,
1588,1,SBT2050,2,9,,1,1551,4.19999,1.5854,881.474,0,33.8,
1588,1,SBT2050,2,9,,1,1561,4.19991,1.5965,885.893,0,34,
1588,1,SBT2050,2,9,,1,1571,4.19992,1.6052,890.34,0,34.2,
1588,1,SBT2050,2,9,,1,1581,4.20002,1.6179,894.818,0,34.4,
1588,1,SBT2050,2,9,,1,1591,4.20008,1.6281,899.326,0,34.6,
1588,1,SBT2050,2,9,,1,1601,4.20004,1.6398,903.866,0,34.8,
1588,1,SBT2050,2,9,,1,1611,4.2,1.6516,908.437,0,35,
1588,1,SBT2050,2,9,,1,1621,4.2,1.6637,913.042,0,35.3,
1588,1,SBT2050,2,9,,1,1631,4.19977,1.676,917.68,0,35.5,
1588,1,SBT2050,2,9,,1,1641,4.199826,1.6872,922.351,0,35.8,
1588,1,SBT2050,2,9,,1,1651,4.1999,1.6991,927.056,0,36,
1588,1,SBT2050,2,9,,1,1661,4.20003,1.7132,931.794,0,36.3,
1588,1,SBT2050,2,9,,1,1671,4.19999,1.7252,936.569,0,36.6,
1588,1,SBT2050,2,9,,1,1681,4.19989,1.738,941.379,0,36.7,
1588,1,SBT2050,2,9,,1,1691,4.20004,1.752,946.226,0,37.1,
1588,1,SBT2050,2,9,,1,1701,4.19997,1.7632,951.109,0,37.3,
1588,1,SBT2050,2,9,,1,1711,4.19972,1.7784,956.03,0,37.6,
1588,1,SBT2050,2,9,,1,1721,4.19989,1.7916,960.99,0,37.9,
1588,1,SBT2050,2,9,,1,1731,4.200112,1.8063,965.987,0,38.2,
1588,1,SBT2050,2,9,,1,1741,4.20002,1.8197,971.024,0,38.5,
1588,1,SBT2050,2,9,,1,1751,4.19991,1.8362,976.101,0,38.8,
1588,1,SBT2050,2,9,,1,1761,4.19993,1.8488,981.217,0,39.1,
1588,1,SBT2050,2,9,,1,1771,4.199838,1.8635,986.373,0,39.4,
1588,1,SBT2050,2,9,,1,1781,4.19987,1.8774,991.566,0,39.8,
1588,1,SBT2050,2,9,,1,1791,4.2,1.8891,996.796,0,40.1,
1588,1,SBT2050,2,9,,1,1801,4.200136,1.9038,1002.063,0,40.4,
1588,1,SBT2050,2,9,,1,1811,4.2,1.9145,1007.367,0,40.7,
1588,1,SBT2050,2,9,,1,1821,4.19996,1.9298,1012.708,0,41,
1588,1,SBT2050,2,9,,1,1831,4.19993,1.9454,1018.09,0,41.4,
1588,1,SBT2050,2,9,,1,1841,4.19998,1.9577,1023.508,0,41.8,
1588,1,SBT2050,2,9,,1,1851,4.199814,1.9713,1028.963,0,42.1,
1588,1,SBT2050,2,9,,1,1861,4.200148,1.9827,1034.456,0,42.4,
1588,1,SBT2050,2,9,,1,1871,4.199814,1.9962,1039.985,0,42.8,
1588,1,SBT2050,2,9,,1,1881,4.199862,2.0097,1045.548,0,43.2,
1588,1,SBT2050,2,9,,1,1891,4.1998,2.0212,1051.145,0,43.5,
1588,1,SBT2050,2,9,,1,1901,4.199838,2.0335,1056.777,0,43.9,
1588,1,SBT2050,2,9,,1,1911,4.19991,2.0463,1062.444,0,44.3,
1588,1,SBT2050,2,9,,1,1921,4.19993,2.0584,1068.143,0,44.6,
1588,1,SBT2050,2,9,,1,1931,4.19996,2.0687,1073.873,0,45,
1588,1,SBT2050,2,9,,1,1941,4.1999,2.0766,1079.629,0,45.3,
1588,1,SBT2050,2,9,,1,1951,4.19995,2.0871,1085.412,0,45.7,
1588,1,SBT2050,2,9,,1,1961,4.20009,2.098,1091.226,0,46.1,
1588,1,SBT2050,2,9,,1,1971,4.200112,2.1079,1097.07,0,46.4,
1588,1,SBT2050,2,9,,1,1981,4.1999,2.1167,1102.94,0,46.8,
1588,1,SBT2050,2,9,,1,1991,4.19991,2.1261,1108.834,0,47.2,
1588,1,SBT2050,2,9,,1,2001,4.19999,2.1352,1114.752,0,47.6,
1588,1,SBT2050,2,9,,1,2011,4.2,2.1438,1120.693,0,47.9,
1588,1,SBT2050,2,9,,1,2021,4.199838,2.1509,1126.657,0,48.2,
1588,1,SBT2050,2,9,,1,2031,4.19985,2.1561,1132.64,0,48.6,
1588,1,SBT2050,2,9,,1,2041,4.2,2.1616,1138.636,0,48.9,
1588,1,SBT2050,2,9,,1,2051,4.20016,2.1661,1144.647,0,49.4,
1588,1,SBT2050,2,9,,1,2061,4.20008,2.172,1150.674,0,49.6,
1588,1,SBT2050,2,9,,1,2071,4.19959,2.1802,1156.717,0,50,
1588,1,SBT2050,2,9,,1,2081,4.199862,2.1832,1162.776,0,50.4,
1588,1,SBT2050,2,9,,1,2091,4.19997,2.188,1168.846,0,50.7,
1588,1,SBT2050,2,9,,1,2101,4.20008,2.1898,1174.926,0,50.9,
1588,1,SBT2050,2,9,,1,2111,4.200136,2.1946,1181.019,0,51.3,
1588,1,SBT2050,2,9,,1,2121,4.20003,2.1981,1187.121,0,51.6,
1588,1,SBT2050,2,9,,1,2131,4.19993,2.2019,1193.232,0,52,
1588,1,SBT2050,2,9,,1,2141,4.20002,2.203,1199.35,0,52.3,
1588,1,SBT2050,2,9,,1,2151,4.20018,2.2039,1205.473,0,52.7,
1588,1,SBT2050,2,9,,1,2161,4.19991,2.2049,1211.596,0,52.9,
1588,1,SBT2050,2,9,,1,2171,4.20006,2.2055,1217.72,0,53.2,
1588,1,SBT2050,2,9,,1,2181,4.19991,2.2046,1223.845,0,53.4,
1588,1,SBT2050,2,9,,1,2191,4.200148,2.2048,1229.969,0,53.7,
1588,1,SBT2050,2,9,,1,2201,4.19998,2.2033,1236.091,0,54,
1588,1,SBT2050,2,9,,1,2211,4.19996,2.201,1242.21,0,54.2,
1588,1,SBT2050,2,9,,1,2221,4.20005,2.2002,1248.323,0,54.5,
1588,1,SBT2050,2,9,,1,2231,4.19977,2.1998,1254.435,0,54.8,
1588,1,SBT2050,2,9,,1,2241,4.19975,2.1975,1260.541,0,55,
1588,1,SBT2050,2,9,,1,2251,4.20004,2.1952,1266.641,0,55.2,
1588,1,SBT2050,2,9,,1,2261,4.1998,2.1911,1272.731,0,55.4,
1588,1,SBT2050,2,9,,1,2271,4.1998,2.1872,1278.811,0,55.6,
1588,1,SBT2050,2,9,,1,2281,4.200136,2.1837,1284.883,0,55.9,
1588,1,SBT2050,2,9,,1,2291,4.19996,2.1795,1290.943,0,56.1,
1588,1,SBT2050,2,9,,1,2301,4.20024,2.1758,1296.989,0,56.3,
1588,1,SBT2050,2,9,,1,2311,4.1999,2.1711,1303.025,0,56.6,
1588,1,SBT2050,2,9,,1,2321,4.19995,2.1658,1309.048,0,56.7,
1588,1,SBT2050,2,9,,1,2331,4.19997,2.1611,1315.057,0,56.9,
1588,1,SBT2050,2,9,,1,2341,4.19999,2.1564,1321.051,0,57,
1588,1,SBT2050,2,9,,1,2351,4.200148,2.1482,1327.03,0,57.1,
1588,1,SBT2050,2,9,,1,2361,4.19989,2.1434,1332.99,0,57.3,
1588,1,SBT2050,2,9,,1,2371,4.2002,2.1364,1338.934,0,57.4,
1588,1,SBT2050,2,9,,1,2381,4.1999,2.1289,1344.856,0,57.6,
1588,1,SBT2050,2,9,,1,2391,4.2,2.1203,1350.757,0,57.8,
1588,1,SBT2050,2,9,,1,2401,4.19989,2.1123,1356.637,0,57.9,
1588,1,SBT2050,2,9,,1,2411,4.20006,2.1057,1362.494,0,58,
1588,1,SBT2050,2,9,,1,2421,4.19992,2.0966,1368.33,0,58.1,
1588,1,SBT2050,2,9,,1,2431,4.20024,2.0865,1374.141,0,58.2,
1588,1,SBT2050,2,9,,1,2441,4.20009,2.0789,1379.928,0,58.3,
1588,1,SBT2050,2,9,,1,2451,4.19991,2.0708,1385.693,0,58.4,
1588,1,SBT2050,2,9,,1,2461,4.19998,2.0636,1391.435,0,58.5,
1588,1,SBT2050,2,9,,1,2471,4.2001,2.0523,1397.151,0,58.5,
1588,1,SBT2050,2,9,,1,2481,4.19999,2.0445,1402.841,0,58.6,
1588,1,SBT2050,2,9,,1,2491,4.20003,2.0364,1408.508,0,58.8,
1588,1,SBT2050,2,9,,1,2501,4.199826,2.0282,1414.154,0,58.8,
1588,1,SBT2050,2,9,,1,2511,4.200172,2.0211,1419.779,0,58.8,
1588,1,SBT2050,2,9,,1,2521,4.20004,2.0124,1425.38,0,58.9,
1588,1,SBT2050,2,9,,1,2531,4.19999,2.0017,1430.955,0,58.9,
1588,1,SBT2050,2,9,,1,2541,4.2002,1.9927,1436.501,0,59,
1588,1,SBT2050,2,9,,1,2551,4.20008,1.9826,1442.021,0,59,
1588,1,SBT2050,2,9,,1,2561,4.19993,1.9727,1447.514,0,59,
1588,1,SBT2050,2,9,,1,2571,4.199862,1.9632,1452.982,0,59,
1588,1,SBT2050,2,9,,1,2581,4.20008,1.9536,1458.424,0,59.1,
1588,1,SBT2050,2,9,,1,2591,4.20027,1.9436,1463.837,0,59,
1588,1,SBT2050,2,9,,1,2601,4.20016,1.9331,1469.222,0,59,
1588,1,SBT2050,2,9,,1,2611,4.19993,1.9237,1474.578,0,59.1,
1588,1,SBT2050,2,9,,1,2621,4.19995,1.9146,1479.908,0,59.1,
1588,1,SBT2050,2,9,,1,2631,4.200124,1.9038,1485.21,0,59,
1588,1,SBT2050,2,9,,1,2641,4.199838,1.894,1490.484,0,59,
1588,1,SBT2050,2,9,,1,2651,4.2,1.8835,1495.73,0,59,
1588,1,SBT2050,2,9,,1,2661,4.200136,1.8746,1500.949,0,58.9,
1588,1,SBT2050,2,9,,1,2671,4.20006,1.8661,1506.143,0,59,
1588,1,SBT2050,2,9,,1,2681,4.19987,1.8567,1511.312,0,59,
1588,1,SBT2050,2,9,,1,2691,4.19991,1.847,1516.457,0,58.9,
1588,1,SBT2050,2,9,,1,2701,4.20006,1.8386,1521.575,0,58.9,
1588,1,SBT2050,2,9,,1,2711,4.20009,1.8283,1526.666,0,58.8,
1588,1,SBT2050,2,9,,1,2721,4.200136,1.8175,1531.729,0,58.8,
1588,1,SBT2050,2,9,,1,2731,4.20008,1.809,1536.765,0,58.7,
1588,1,SBT2050,2,9,,1,2741,4.19998,1.799,1541.776,0,58.6,
1588,1,SBT2050,2,9,,1,2751,4.20009,1.7883,1546.761,0,58.6,
1588,1,SBT2050,2,9,,1,2761,4.20003,1.7795,1551.719,0,58.6,
1588,1,SBT2050,2,9,,1,2771,4.199838,1.7696,1556.649,0,58.4,
1588,1,SBT2050,2,9,,1,2781,4.20018,1.7591,1561.551,0,58.5,
1588,1,SBT2050,2,9,,1,2791,4.19996,1.7499,1566.425,0,58.4,
1588,1,SBT2050,2,9,,1,2801,4.20021,1.7377,1571.27,0,58.3,
1588,1,SBT2050,2,9,,1,2811,4.19997,1.7289,1576.087,0,58.2,
1588,1,SBT2050,2,9,,1,2821,4.2,1.7189,1580.874,0,58.2,
1588,1,SBT2050,2,9,,1,2831,4.20008,1.7079,1585.632,0,58.1,
1588,1,SBT2050,2,9,,1,2841,4.20004,1.6982,1590.363,0,58,
1588,1,SBT2050,2,9,,1,2851,4.20034,1.6868,1595.065,0,57.9,
1588,1,SBT2050,2,9,,1,2861,4.20005,1.6768,1599.737,0,57.8,
1588,1,SBT2050,2,9,,1,2871,4.200124,1.6646,1604.378,0,57.7,
1588,1,SBT2050,2,9,,1,2881,4.200124,1.6564,1608.993,0,57.6,
1588,1,SBT2050,2,9,,1,2891,4.20005,1.6457,1613.579,0,57.5,
1588,1,SBT2050,2,9,,1,2901,4.19997,1.6346,1618.136,0,57.4,
1588,1,SBT2050,2,9,,1,2911,4.19978,1.6272,1622.665,0,57.3,
1588,1,SBT2050,2,9,,1,2921,4.20008,1.6161,1627.169,0,57.3,
1588,1,SBT2050,2,9,,1,2931,4.20004,1.6071,1631.646,0,57.1,
1588,1,SBT2050,2,9,,1,2941,4.20016,1.5983,1636.098,0,57,
1588,1,SBT2050,2,9,,1,2951,4.19989,1.5886,1640.525,0,56.9,
1588,1,SBT2050,2,9,,1,2961,4.20021,1.5776,1644.925,0,56.9,
1588,1,SBT2050,2,9,,1,2971,4.19999,1.5706,1649.3,0,56.8,
1588,1,SBT2050,2,9,,1,2981,4.20008,1.5606,1653.649,0,56.6,
1588,1,SBT2050,2,9,,1,2991,4.19991,1.5509,1657.97,0,56.6,
1588,1,SBT2050,2,9,,1,3001,4.200172,1.5401,1662.264,0,56.5,
1588,1,SBT2050,2,9,,1,3011,4.20034,1.5301,1666.531,0,56.4,
1588,1,SBT2050,2,9,,1,3021,4.2001,1.5213,1670.771,0,56.2,
1588,1,SBT2050,2,9,,1,3031,4.200124,1.5111,1674.982,0,56.1,
1588,1,SBT2050,2,9,,1,3041,4.19992,1.5026,1679.166,0,56,
1588,1,SBT2050,2,9,,1,3051,4.19998,1.4953,1683.328,0,55.9,
1588,1,SBT2050,2,9,,1,3061,4.20003,1.4868,1687.47,0,55.8,
1588,1,SBT2050,2,9,,1,3071,4.200148,1.4784,1691.587,0,55.6,
1588,1,SBT2050,2,9,,1,3081,4.20004,1.468,1695.68,0,55.5,
1588,1,SBT2050,2,9,,1,3091,4.200172,1.4597,1699.746,0,55.4,
1588,1,SBT2050,2,9,,1,3101,4.20002,1.4515,1703.789,0,55.3,
1588,1,SBT2050,2,9,,1,3111,4.2001,1.4436,1707.811,0,55.2,
1588,1,SBT2050,2,9,,1,3121,4.20009,1.4356,1711.809,0,55.1,
1588,1,SBT2050,2,9,,1,3131,4.19996,1.425,1715.782,0,54.8,
1588,1,SBT2050,2,9,,1,3141,4.200124,1.4159,1719.728,0,54.8,
1588,1,SBT2050,2,9,,1,3151,4.20008,1.4069,1723.649,0,54.6,
1588,1,SBT2050,2,9,,1,3161,4.20018,1.398,1727.545,0,54.6,
1588,1,SBT2050,2,9,,1,3171,4.200124,1.3902,1731.418,0,54.5,
1588,1,SBT2050,2,9,,1,3181,4.20008,1.3828,1735.269,0,54.4,
1588,1,SBT2050,2,9,,1,3191,4.20005,1.3758,1739.101,0,54.2,
1588,1,SBT2050,2,9,,1,3201,4.200136,1.3678,1742.911,0,54.1,
1588,1,SBT2050,2,9,,1,3211,4.20024,1.3596,1746.699,0,53.9,
1588,1,SBT2050,2,9,,1,3221,4.20004,1.3515,1750.465,0,53.8,
1588,1,SBT2050,2,9,,1,3231,4.20006,1.3446,1754.21,0,53.7,
1588,1,SBT2050,2,9,,1,3241,4.19979,1.3373,1757.935,0,53.6,
1588,1,SBT2050,2,9,,1,3251,4.200112,1.3297,1761.64,0,53.4,
1588,1,SBT2050,2,9,,1,3261,4.20002,1.3224,1765.324,0,53.4,
1588,1,SBT2050,2,9,,1,3271,4.20002,1.3147,1768.987,0,53.3,
1588,1,SBT2050,2,9,,1,3281,4.19996,1.3101,1772.636,0,53.2,
1588,1,SBT2050,2,9,,1,3291,4.19996,1.3022,1776.265,0,53.1,
1588,1,SBT2050,2,9,,1,3301,4.19989,1.2945,1779.873,0,53,
1588,1,SBT2050,2,9,,1,3311,4.19998,1.2881,1783.46,0,52.9,
1588,1,SBT2050,2,9,,1,3321,4.20009,1.2812,1787.028,0,52.7,
1588,1,SBT2050,2,9,,1,3331,4.19995,1.2746,1790.577,0,52.6,
1588,1,SBT2050,2,9,,1,3341,4.20021,1.2671,1794.107,0,52.5,
1588,1,SBT2050,2,9,,1,3351,4.20002,1.2596,1797.618,0,52.4,
1588,1,SBT2050,2,9,,1,3361,4.19991,1.2537,1801.11,0,52.3,
1588,1,SBT2050,2,9,,1,3371,4.19987,1.2457,1804.58,0,52.2,
1588,1,SBT2050,2,9,,1,3381,4.2002,1.2375,1808.03,0,52.1,
1588,1,SBT2050,2,9,,1,3391,4.20022,1.2322,1811.461,0,51.9,
1588,1,SBT2050,2,9,,1,3401,4.20004,1.2259,1814.875,0,51.8,
1588,1,SBT2050,2,9,,1,3411,4.20022,1.2197,1818.271,0,51.7,
1588,1,SBT2050,2,9,,1,3421,4.20008,1.2137,1821.65,0,51.6,
1588,1,SBT2050,2,9,,1,3431,4.19992,1.2074,1825.012,0,51.4,
1588,1,SBT2050,2,9,,1,3441,4.20031,1.2005,1828.358,0,51.4,
1588,1,SBT2050,2,9,,1,3451,4.19991,1.1952,1831.685,0,51.3,
1588,1,SBT2050,2,9,,1,3461,4.19991,1.19,1834.997,0,51.2,
1588,1,SBT2050,2,9,,1,3471,4.19995,1.1838,1838.294,0,51.1,
1588,1,SBT2050,2,9,,1,3481,4.20003,1.177,1841.573,0,51,
1588,1,SBT2050,2,9,,1,3491,4.200148,1.1704,1844.834,0,50.9,
1588,1,SBT2050,2,9,,1,3501,4.19985,1.1644,1848.076,0,50.7,
1588,1,SBT2050,2,9,,1,3511,4.19995,1.1569,1851.3,0,50.6,
1588,1,SBT2050,2,9,,1,3521,4.20005,1.1509,1854.505,0,50.5,
1588,1,SBT2050,2,9,,1,3531,4.20016,1.1459,1857.696,0,50.4,
1588,1,SBT2050,2,9,,1,3541,4.2001,1.1404,1860.871,0,50.3,
1588,1,SBT2050,2,9,,1,3551,4.19993,1.1349,1864.031,0,50.2,
1588,1,SBT2050,2,9,,1,3561,4.200148,1.1293,1867.177,0,50.1,
1588,1,SBT2050,2,9,,1,3571,4.1999,1.1228,1870.305,0,50,
1588,1,SBT2050,2,9,,1,3581,4.19989,1.1172,1873.417,0,50,
1588,1,SBT2050,2,9,,1,3591,4.20021,1.1129,1876.513,0,49.8,
1588,1,SBT2050,2,9,,1,3601,4.20003,1.1064,1879.595,0,49.7,
1588,1,SBT2050,2,9,,1,3611,4.19999,1.1013,1882.661,0,49.5,
1588,1,SBT2050,2,9,,1,3621,4.20003,1.0946,1885.711,0,49.4,
1588,1,SBT2050,2,9,,1,3631,4.200112,1.0887,1888.744,0,49.4,
1588,1,SBT2050,2,9,,1,3641,4.20009,1.0849,1891.763,0,49.3,
1588,1,SBT2050,2,9,,1,3651,4.19969,1.0802,1894.77,0,49.2,
1588,1,SBT2050,2,9,,1,3661,4.200112,1.0738,1897.762,0,49.1,
1588,1,SBT2050,2,9,,1,3671,4.20018,1.0685,1900.738,0,48.9,
1588,1,SBT2050,2,9,,1,3681,4.20008,1.0638,1903.7,0,48.9,
1588,1,SBT2050,2,9,,1,3691,4.20021,1.0588,1906.648,0,48.8,
1588,1,SBT2050,2,9,,1,3701,4.20022,1.0544,1909.584,0,48.7,
1588,1,SBT2050,2,9,,1,3711,4.19999,1.0494,1912.506,0,48.6,
1588,1,SBT2050,2,9,,1,3721,4.20006,1.0439,1915.413,0,48.5,
1588,1,SBT2050,2,9,,1,3731,4.200124,1.0409,1918.309,0,48.4,
1588,1,SBT2050,2,9,,1,3741,4.199826,1.0357,1921.192,0,48.3,
1588,1,SBT2050,2,9,,1,3751,4.200124,1.0315,1924.063,0,48.2,
1588,1,SBT2050,2,9,,1,3761,4.2001,1.0268,1926.921,0,48.1,
1588,1,SBT2050,2,9,,1,3771,4.20008,1.0222,1929.766,0,48,
1588,1,SBT2050,2,9,,1,3781,4.2001,1.0171,1932.598,0,47.9,
1588,1,SBT2050,2,9,,1,3791,4.20031,1.0128,1935.418,0,47.8,
1588,1,SBT2050,2,9,,1,3801,4.20018,1.0098,1938.227,0,47.8,
1588,1,SBT2050,2,9,,1,3811,4.19995,1.006,1941.026,0,47.7,
1588,1,SBT2050,2,9,,1,3821,4.19992,1.0011,1943.813,0,47.6,
1588,1,SBT2050,2,9,,1,3831,4.19999,0.997,1946.587,0,47.5,
1588,1,SBT2050,2,9,,1,3841,4.2,0.9923,1949.351,0,47.4,
1588,1,SBT2050,2,9,,1,3851,4.19985,0.9895,1952.104,0,47.4,
1588,1,SBT2050,2,9,,1,3861,4.19995,0.9858,1954.846,0,47.3,
1588,1,SBT2050,2,9,,1,3871,4.2001,0.9819,1957.578,0,47.2,
1588,1,SBT2050,2,9,,1,3881,4.19993,0.9772,1960.298,0,47.1,
1588,1,SBT2050,2,9,,1,3891,4.19979,0.9726,1963.005,0,47,
1588,1,SBT2050,2,9,,1,3901,4.20003,0.9682,1965.701,0,46.9,
1588,1,SBT2050,2,9,,1,3911,4.20005,0.9647,1968.385,0,46.9,
1588,1,SBT2050,2,9,,1,3921,4.19999,0.9594,1971.056,0,46.8,
1588,1,SBT2050,2,9,,1,3931,4.20004,0.9552,1973.714,0,46.8,
1588,1,SBT2050,2,9,,1,3941,4.200112,0.9505,1976.36,0,46.7,
1588,1,SBT2050,2,9,,1,3951,4.19996,0.9471,1978.996,0,46.6,
1588,1,SBT2050,2,9,,1,3961,4.20003,0.9438,1981.622,0,46.5,
1588,1,SBT2050,2,9,,1,3971,4.200148,0.9399,1984.239,0,46.4,
1588,1,SBT2050,2,9,,1,3981,4.20009,0.937,1986.846,0,46.3,
1588,1,SBT2050,2,9,,1,3991,4.20027,0.9326,1989.444,0,46.2,
1588,1,SBT2050,2,9,,1,4001,4.20027,0.9305,1992.033,0,46.2,
1588,1,SBT2050,2,9,,1,4011,4.19995,0.9264,1994.613,0,46.1,
1588,1,SBT2050,2,9,,1,4021,4.20034,0.9232,1997.183,0,46.1,
1588,1,SBT2050,2,9,,1,4031,4.200112,0.9203,1999.744,0,46,
1588,1,SBT2050,2,9,,1,4041,4.2,0.918,2002.298,0,45.9,
1588,1,SBT2050,2,9,,1,4051,4.200172,0.9139,2004.841,0,45.8,
1588,1,SBT2050,2,9,,1,4061,4.200136,0.9104,2007.377,0,45.7,
1588,1,SBT2050,2,9,,1,4071,4.2,0.9071,2009.902,0,45.7,
1588,1,SBT2050,2,9,,1,4081,4.19996,0.9036,2012.416,0,45.7,
1588,1,SBT2050,2,9,,1,4091,4.200148,0.8994,2014.921,0,45.5,
1588,1,SBT2050,2,9,,1,4101,4.19992,0.8969,2017.417,0,45.5,
1588,1,SBT2050,2,9,,1,4111,4.2002,0.8931,2019.903,0,45.4,
1588,1,SBT2050,2,9,,1,4121,4.19993,0.8906,2022.38,0,45.3,
1588,1,SBT2050,2,9,,1,4131,4.19997,0.8869,2024.849,0,45.2,
1588,1,SBT2050,2,9,,1,4141,4.19999,0.8846,2027.31,0,45.2,
1588,1,SBT2050,2,9,,1,4151,4.20029,0.8824,2029.764,0,45.2,
1588,1,SBT2050,2,9,,1,4161,4.20008,0.8784,2032.21,0,45.1,
1588,1,SBT2050,2,9,,1,4171,4.199814,0.8759,2034.648,0,45,
1588,1,SBT2050,2,9,,1,4181,4.1999,0.8731,2037.077,0,44.9,
1588,1,SBT2050,2,9,,1,4191,4.2,0.8707,2039.499,0,44.9,
1588,1,SBT2050,2,9,,1,4201,4.19997,0.8684,2041.913,0,44.8,
1588,1,SBT2050,2,9,,1,4211,4.199826,0.8655,2044.32,0,44.8,
1588,1,SBT2050,2,9,,1,4221,4.2,0.8625,2046.72,0,44.7,
1588,1,SBT2050,2,9,,1,4231,4.20016,0.8598,2049.113,0,44.7,
1588,1,SBT2050,2,9,,1,4241,4.19996,0.8567,2051.498,0,44.6,
1588,1,SBT2050,2,9,,1,4251,4.20036,0.8543,2053.875,0,44.6,
1588,1,SBT2050,2,9,,1,4261,4.19999,0.8522,2056.246,0,44.5,
1588,1,SBT2050,2,9,,1,4271,4.19997,0.8499,2058.61,0,44.4,
1588,1,SBT2050,2,9,,1,4281,4.19987,0.8472,2060.968,0,44.5,
1588,1,SBT2050,2,9,,1,4291,4.19995,0.846,2063.319,0,44.3,
1588,1,SBT2050,2,9,,1,4301,4.19993,0.8428,2065.665,0,44.3,
1588,1,SBT2050,2,9,,1,4311,4.1999,0.842,2068.005,0,44.3,
1588,1,SBT2050,2,9,,1,4321,4.200112,0.8396,2070.34,0,44.2,
1588,1,SBT2050,2,9,,1,4331,4.19996,0.8384,2072.67,0,44.1,
1588,1,SBT2050,2,9,,1,4341,4.19995,0.8363,2074.997,0,44.1,
1588,1,SBT2050,2,9,,1,4351,4.20002,0.8346,2077.318,0,44,
1588,1,SBT2050,2,9,,1,4361,4.200112,0.8325,2079.633,0,44,
1588,1,SBT2050,2,9,,1,4371,4.19989,0.831,2081.944,0,43.9,
1588,1,SBT2050,2,9,,1,4381,4.20005,0.8282,2084.248,0,43.9,
1588,1,SBT2050,2,9,,1,4391,4.19995,0.8272,2086.548,0,43.9,
1588,1,SBT2050,2,9,,1,4401,4.19995,0.8247,2088.842,0,43.8,
1588,1,SBT2050,2,9,,1,4411,4.20004,0.8226,2091.131,0,43.8,
1588,1,SBT2050,2,9,,1,4421,4.2,0.8206,2093.413,0,43.7,
1588,1,SBT2050,2,9,,1,4431,4.1999,0.8185,2095.688,0,43.7,
1588,1,SBT2050,2,9,,1,4441,4.19995,0.8153,2097.957,0,43.7,
1588,1,SBT2050,2,9,,1,4451,4.200172,0.8141,2100.221,0,43.5,
1588,1,SBT2050,2,9,,1,4461,4.20002,0.812,2102.481,0,43.6,
1588,1,SBT2050,2,9,,1,4471,4.200172,0.8111,2104.736,0,43.5,
1588,1,SBT2050,2,9,,1,4481,4.19996,0.8097,2106.987,0,43.5,
1588,1,SBT2050,2,9,,1,4491,4.20009,0.8077,2109.233,0,43.4,
1588,1,SBT2050,2,9,,1,4501,4.200112,0.8073,2111.476,0,43.4,
1588,1,SBT2050,2,9,,1,4511,4.19985,0.8058,2113.716,0,43.4,
1588,1,SBT2050,2,9,,1,4521,4.20016,0.8044,2115.951,0,43.3,
1588,1,SBT2050,2,9,,1,4531,4.20027,0.802,2118.183,0,43.3,
1588,1,SBT2050,2,9,,1,4541,4.2001,0.8008,2120.41,0,43.2,
1588,1,SBT2050,2,9,,1,4551,4.20003,0.7999,2122.633,0,43.2,
1588,1,SBT2050,2,9,,1,4561,4.200112,0.798,2124.851,0,43.2,
1588,1,SBT2050,2,9,,1,4571,4.20006,0.7961,2127.064,0,43.2,
1588,1,SBT2050,2,9,,1,4581,4.200172,0.7945,2129.272,0,43.2,
1588,1,SBT2050,2,9,,1,4591,4.2002,0.7924,2131.476,0,43.1,
1588,1,SBT2050,2,9,,1,4601,4.1999,0.7923,2133.677,0,43.1,
1588,1,SBT2050,2,9,,1,4611,4.20006,0.7909,2135.876,0,43,
1588,1,SBT2050,2,9,,1,4621,4.20016,0.7892,2138.07,0,43,
1588,1,SBT2050,2,9,,1,4631,4.1999,0.7888,2140.262,0,43,
1588,1,SBT2050,2,9,,1,4641,4.20033,0.7868,2142.45,0,43,
1588,1,SBT2050,2,9,,1,4651,4.19998,0.7853,2144.633,0,43,
1588,1,SBT2050,2,9,,1,4661,4.20021,0.7845,2146.813,0,42.9,
1588,1,SBT2050,2,9,,1,4671,4.19993,0.7845,2148.993,0,42.9,
1588,1,SBT2050,2,9,,1,4681,4.20016,0.783,2151.17,0,42.9,
1588,1,SBT2050,2,9,,1,4691,4.19987,0.7829,2153.344,0,42.8,
1588,1,SBT2050,2,9,,1,4701,4.20024,0.7806,2155.515,0,42.8,
1588,1,SBT2050,2,9,,1,4711,4.19997,0.7797,2157.682,0,42.8,
1588,1,SBT2050,2,9,,1,4721,4.199838,0.7795,2159.847,0,42.7,
1588,1,SBT2050,2,9,,1,4731,4.199862,0.7771,2162.008,0,42.7,
1588,1,SBT2050,2,9,,1,4741,4.19971,0.776,2164.165,0,42.7,
1588,1,SBT2050,2,9,,1,4751,4.20023,0.7747,2166.32,0,42.7,
1588,1,SBT2050,2,9,,1,4761,4.20008,0.7736,2168.47,0,42.6,
1588,1,SBT2050,2,9,,1,4771,4.20005,0.7732,2170.618,0,42.6,
1588,1,SBT2050,2,9,,1,4781,4.19989,0.7722,2172.765,0,42.6,
1588,1,SBT2050,2,9,,1,4791,4.19995,0.7716,2174.91,0,42.5,
1588,1,SBT2050,2,9,,1,4801,4.19987,0.7698,2177.051,0,42.5,
1588,1,SBT2050,2,9,,1,4811,4.19998,0.7698,2179.19,0,42.5,
1588,1,SBT2050,2,9,,1,4821,4.199862,0.7688,2181.328,0,42.5,
1588,1,SBT2050,2,9,,1,4831,4.20004,0.7697,2183.465,0,42.5,
1588,1,SBT2050,2,9,,1,4841,4.2001,0.7675,2185.6,0,42.5,
1588,1,SBT2050,2,9,,1,4851,4.200124,0.7672,2187.731,0,42.5,
1588,1,SBT2050,2,9,,1,4861,4.20026,0.7654,2189.86,0,42.5,
1588,1,SBT2050,2,9,,1,4871,4.19989,0.765,2191.986,0,42.5,
1588,1,SBT2050,2,9,,1,4881,4.19985,0.7654,2194.111,0,42.4,
1588,1,SBT2050,2,9,,1,4891,4.19998,0.7648,2196.236,0,42.5,
1588,1,SBT2050,2,9,,1,4901,4.20024,0.7639,2198.359,0,42.4,
1588,1,SBT2050,2,9,,1,4911,4.19993,0.7638,2200.481,0,42.4,
1588,1,SBT2050,2,9,,1,4921,4.19968,0.7639,2202.602,0,42.4,
1588,1,SBT2050,2,9,,1,4931,4.200124,0.7631,2204.723,0,42.4,
1588,1,SBT2050,2,9,,1,4941,4.20009,0.7621,2206.841,0,42.4,
1588,1,SBT2050,2,9,,1,4951,4.19998,0.7619,2208.958,0,42.3,
1588,1,SBT2050,2,9,,1,4961,4.19987,0.7615,2211.074,0,42.4,
1588,1,SBT2050,2,9,,1,4971,4.2,0.7603,2213.189,0,42.3,
1588,1,SBT2050,2,9,,1,4981,4.19991,0.76,2215.301,0,42.3,
1588,1,SBT2050,2,9,,1,4991,4.19989,0.7601,2217.411,0,42.3,
1588,1,SBT2050,2,9,,1,5001,4.19995,0.7584,2219.52,0,42.3,
1588,1,SBT2050,2,9,,1,5011,4.2001,0.7574,2221.626,0,42.3,
1588,1,SBT2050,2,9,,1,5021,4.1999,0.7571,2223.73,0,42.3,
1588,1,SBT2050,2,9,,1,5031,4.1999,0.7568,2225.832,0,42.2,
1588,1,SBT2050,2,9,,1,5041,4.20004,0.7557,2227.932,0,42.2,
1588,1,SBT2050,2,9,,1,5051,4.20022,0.755,2230.031,0,42.2,
1588,1,SBT2050,2,9,,1,5061,4.20002,0.754,2232.126,0,42.2,
1588,1,SBT2050,2,9,,1,5071,4.19961,0.7537,2234.22,0,42.2,
1588,1,SBT2050,2,9,,1,5081,4.2001,0.7534,2236.312,0,42.2,
1588,1,SBT2050,2,9,,1,5091,4.2,0.7533,2238.404,0,42.2,
1588,1,SBT2050,2,9,,1,5101,4.19985,0.7534,2240.496,0,42.2,
1588,1,SBT2050,2,9,,1,5111,4.199862,0.7531,2242.586,0,42.2,
1588,1,SBT2050,2,9,,1,5121,4.19975,0.7521,2244.676,0,42.2,
1588,1,SBT2050,2,9,,1,5131,4.19995,0.7527,2246.765,0,42.1,
1588,1,SBT2050,2,9,,1,5141,4.19998,0.7519,2248.854,0,42.2,
1588,1,SBT2050,2,9,,1,5151,4.19999,0.7515,2250.943,0,42.2,
1588,1,SBT2050,2,9,,1,5161,4.19992,0.751,2253.03,0,42.1,
1588,1,SBT2050,2,9,,1,5171,4.20004,0.7499,2255.114,0,42.1,
1588,1,SBT2050,2,9,,1,5181,4.20005,0.7493,2257.196,0,42.1,
1588,1,SBT2050,2,9,,1,5191,4.200124,0.7486,2259.277,0,42.1,
1588,1,SBT2050,2,9,,1,5201,4.2001,0.7492,2261.358,0,42.1,
1588,1,SBT2050,2,9,,1,5211,4.20003,0.7495,2263.44,0,42.1,
1588,1,SBT2050,2,9,,1,5221,4.200172,0.7493,2265.521,0,42.1,
1588,1,SBT2050,2,9,,1,5231,4.1999,0.7487,2267.601,0,42,
1588,1,SBT2050,2,9,,1,5241,4.20016,0.7481,2269.679,0,42,
1588,1,SBT2050,2,9,,1,5251,4.19991,0.7484,2271.758,0,42,
1588,1,SBT2050,2,9,,1,5261,4.19995,0.7484,2273.836,0,42.1,
1588,1,SBT2050,2,9,,1,5271,4.19992,0.7474,2275.913,0,42.1,
1588,1,SBT2050,2,9,,1,5281,4.20018,0.7483,2277.991,0,42.1,
1588,1,SBT2050,2,9,,1,5291,4.19995,0.7483,2280.069,0,42,
1588,1,SBT2050,2,9,,1,5301,4.19997,0.7478,2282.147,0,42.1,
1588,1,SBT2050,2,9,,1,5311,4.19997,0.748,2284.225,0,42,
1588,1,SBT2050,2,9,,1,5321,4.20009,0.7471,2286.302,0,42.1,
1588,1,SBT2050,2,9,,1,5331,4.20004,0.7472,2288.378,0,42,
1588,1,SBT2050,2,9,,1,5341,4.200124,0.7472,2290.453,0,42,
1588,1,SBT2050,2,9,,1,5351,4.19991,0.7457,2292.527,0,42,
1588,1,SBT2050,2,9,,1,5361,4.19985,0.7463,2294.599,0,42,
1588,1,SBT2050,2,9,,1,5371,4.19998,0.7459,2296.672,0,42,
1588,1,SBT2050,2,9,,1,5381,4.20004,0.7463,2298.745,0,42,
1588,1,SBT2050,2,9,,1,5391,4.20004,0.7468,2300.818,0,42.1,
1588,1,SBT2050,2,9,,1,5401,4.19999,0.7465,2302.892,0,42.1,
1588,1,SBT2050,2,9,,1,5411,4.200124,0.7469,2304.966,0,42.1,
1588,1,SBT2050,2,9,,1,5421,4.200172,0.746,2307.04,0,42.1,
1588,1,SBT2050,2,9,,1,5431,4.19996,0.7466,2309.113,0,42,
1588,1,SBT2050,2,9,,1,5441,4.19997,0.7462,2311.187,0,42.1,
1588,1,SBT2050,2,9,,1,5451,4.19997,0.7466,2313.26,0,42,
1588,1,SBT2050,2,9,,1,5461,4.19978,0.7454,2315.333,0,42.1,
1588,1,SBT2050,2,9,,1,5471,4.19991,0.7452,2317.404,0,42,
1588,1,SBT2050,2,9,,1,5481,4.20003,0.7456,2319.474,0,42,
1588,1,SBT2050,2,9,,1,5491,4.1999,0.7454,2321.545,0,42,
1588,1,SBT2050,2,9,,1,5501,4.20018,0.7449,2323.615,0,42,
1588,1,SBT2050,2,9,,1,5511,4.20024,0.7454,2325.685,0,42,
1588,1,SBT2050,2,9,,1,5521,4.199814,0.7448,2327.754,0,42.1,
1588,1,SBT2050,2,9,,1,5531,4.19998,0.7445,2329.823,0,42,
1588,1,SBT2050,2,9,,1,5541,4.19979,0.7443,2331.89,0,42.1,
1588,1,SBT2050,2,9,,1,5551,4.20024,0.7439,2333.957,0,42,
1588,1,SBT2050,2,9,,1,5561,4.20009,0.7445,2336.025,0,42,
1588,1,SBT2050,2,9,,1,5571,4.19995,0.7436,2338.091,0,42.1,
1588,1,SBT2050,2,9,,1,5581,4.200136,0.7431,2340.155,0,42.1,
1588,1,SBT2050,2,9,,1,5591,4.19999,0.7437,2342.221,0,42.1,
1588,1,SBT2050,2,9,,1,5601,4.19995,0.7436,2344.286,0,42.1,
1588,1,SBT2050,2,9,,1,5611,4.19997,0.7431,2346.351,0,42,
1588,1,SBT2050,2,9,,1,5621,4.19999,0.7437,2348.417,0,42.1,
1588,1,SBT2050,2,9,,1,5631,4.19991,0.7445,2350.483,0,42.1,
1588,1,SBT2050,2,9,,1,5641,4.20018,0.7443,2352.552,0,42.1,
1588,1,SBT2050,2,9,,1,5651,4.19998,0.7442,2354.619,0,42.1,
1588,1,SBT2050,2,9,,1,5661,4.20002,0.744,2356.686,0,42.1,
1588,1,SBT2050,2,9,,1,5671,4.2002,0.7433,2358.753,0,42.1,
1588,1,SBT2050,2,9,,1,5681,4.199862,0.7442,2360.82,0,42.1,
1588,1,SBT2050,2,9,,1,5691,4.20004,0.7442,2362.885,0,42.1,
1588,1,SBT2050,2,9,,1,5701,4.19991,0.744,2364.95,0,42.1,
1588,1,SBT2050,2,9,,1,5711,4.19991,0.7437,2367.016,0,42.1,
1588,1,SBT2050,2,9,,1,5721,4.19996,0.744,2369.082,0,42.1,
1588,1,SBT2050,2,9,,1,5731,4.19993,0.7439,2371.147,0,42.2,
1588,1,SBT2050,2,9,,1,5741,4.19999,0.7436,2373.213,0,42.1,
1588,1,SBT2050,2,9,,1,5751,4.200124,0.7437,2375.279,0,42.2,
1588,1,SBT2050,2,9,,1,5761,4.200112,0.7431,2377.344,0,42.2,
1588,1,SBT2050,2,9,,1,5771,4.20018,0.7424,2379.407,0,42.1,
1588,1,SBT2050,2,9,,1,5781,4.200136,0.7421,2381.469,0,42.2,
1588,1,SBT2050,2,9,,1,5791,4.19995,0.7425,2383.532,0,42.1,
1588,1,SBT2050,2,9,,1,5801,4.19996,0.7421,2385.594,0,42.1,
1588,1,SBT2050,2,9,,1,5811,4.20005,0.7422,2387.655,0,42.1,
1588,1,SBT2050,2,9,,1,5821,4.200124,0.7422,2389.717,0,42.1,
1588,1,SBT2050,2,9,,1,5831,4.200172,0.7415,2391.778,0,42.1,
1588,1,SBT2050,2,9,,1,5841,4.19985,0.7412,2393.838,0,42.1,
1588,1,SBT2050,2,9,,1,5851,4.2,0.7405,2395.896,0,42.1,
1588,1,SBT2050,2,9,,1,5861,4.20005,0.7413,2397.955,0,42.1,
1588,1,SBT2050,2,9,,1,5871,4.19993,0.7415,2400.014,0,42.1,
1588,1,SBT2050,2,9,,1,5881,4.20005,0.7412,2402.073,0,42.1,
1588,1,SBT2050,2,9,,1,5891,4.199838,0.7413,2404.132,0,42.2,
1588,1,SBT2050,2,9,,1,5901,4.20006,0.7412,2406.191,0,42.1,
1588,1,SBT2050,2,9,,1,5911,4.20004,0.7416,2408.25,0,42.2,
1588,1,SBT2050,2,9,,1,5921,4.20006,0.741,2410.309,0,42.2,
1588,1,SBT2050,2,9,,1,5931,4.199814,0.7419,2412.368,0,42.1,
1588,1,SBT2050,2,9,,1,5941,4.19996,0.7418,2414.428,0,42.2,
1588,1,SBT2050,2,9,,1,5951,4.19996,0.7419,2416.488,0,42.2,
1588,1,SBT2050,2,9,,1,5961,4.20002,0.7421,2418.55,0,42.2,
1588,1,SBT2050,2,9,,1,5971,4.19999,0.7428,2420.612,0,42.2,
1588,1,SBT2050,2,9,,1,5981,4.20005,0.7427,2422.675,0,42.2,
1588,1,SBT2050,2,9,,1,5991,4.1999,0.7434,2424.739,0,42.2,
1588,1,SBT2050,2,9,,1,6001,4.19999,0.7433,2426.804,0,42.2,
1588,1,SBT2050,2,9,,1,6011,4.2,0.7439,2428.87,0,42.2,
1588,1,SBT2050,2,9,,1,6021,4.20004,0.7434,2430.936,0,42.2,
1588,1,SBT2050,2,9,,1,6031,4.19975,0.7437,2433.001,0,42.2,
1588,1,SBT2050,2,9,,1,6041,4.20022,0.7433,2435.065,0,42.2,
1588,1,SBT2050,2,9,,1,6051,4.20009,0.7439,2437.132,0,42.3,
1588,1,SBT2050,2,9,,1,6061,4.200136,0.7442,2439.198,0,42.2,
1588,1,SBT2050,2,9,,1,6071,4.19995,0.7443,2441.265,0,42.2,
1588,1,SBT2050,2,9,,1,6081,4.19992,0.7442,2443.331,0,42.2,
1588,1,SBT2050,2,9,,1,6091,4.1998,0.7442,2445.398,0,42.3,
1588,1,SBT2050,2,9,,1,6101,4.20008,0.744,2447.466,0,42.2,
1588,1,SBT2050,2,9,,1,6111,4.19991,0.7456,2449.534,0,42.3,
1588,1,SBT2050,2,9,,1,6121,4.19999,0.7451,2451.604,0,42.3,
1588,1,SBT2050,2,9,,1,6131,4.199862,0.7457,2453.674,0,42.3,
1588,1,SBT2050,2,9,,1,6141,4.20003,0.7456,2455.745,0,42.3,
1588,1,SBT2050,2,9,,1,6151,4.19998,0.7456,2457.816,0,42.3,
1588,1,SBT2050,2,9,,1,6161,4.20004,0.7457,2459.889,0,42.3,
1588,1,SBT2050,2,9,,1,6171,4.20008,0.7465,2461.962,0,42.3,
1588,1,SBT2050,2,9,,1,6181,4.199814,0.7466,2464.035,0,42.3,
1588,1,SBT2050,2,9,,1,6191,4.19993,0.7472,2466.109,0,42.4,
1588,1,SBT2050,2,9,,1,6201,4.2,0.7471,2468.184,0,42.3,
1588,1,SBT2050,2,9,,1,6211,4.19997,0.748,2470.26,0,42.3,
1588,1,SBT2050,2,9,,1,6221,4.19987,0.7478,2472.337,0,42.3,
1588,1,SBT2050,2,9,,1,6231,4.1999,0.7484,2474.415,0,42.3,
1588,1,SBT2050,2,9,,1,6241,4.20006,0.7483,2476.494,0,42.4,
1588,1,SBT2050,2,9,,1,6251,4.20004,0.7489,2478.574,0,42.4,
1588,1,SBT2050,2,9,,1,6261,4.2001,0.7487,2480.653,0,42.4,
1588,1,SBT2050,2,9,,1,6271,4.19997,0.7481,2482.731,0,42.4,
1588,1,SBT2050,2,9,,1,6281,4.1999,0.7481,2484.809,0,42.4,
1588,1,SBT2050,2,9,,1,6291,4.19996,0.7483,2486.887,0,42.4,
1588,1,SBT2050,2,9,,1,6301,4.200136,0.7489,2488.965,0,42.4,
1588,1,SBT2050,2,9,,1,6311,4.19997,0.7486,2491.045,0,42.4,
1588,1,SBT2050,2,9,,1,6321,4.199838,0.7486,2493.124,0,42.4,
1588,1,SBT2050,2,9,,1,6331,4.20002,0.7475,2495.202,0,42.5,
1588,1,SBT2050,2,9,,1,6341,4.199862,0.7481,2497.279,0,42.5,
1588,1,SBT2050,2,9,,1,6351,4.20008,0.7483,2499.357,0,42.5,
1588,1,SBT2050,2,9,,1,6361,4.20003,0.748,2501.434,0,42.5,
1588,1,SBT2050,2,9,,1,6371,4.19992,0.7487,2503.514,0,42.4,
1588,1,SBT2050,2,9,,1,6381,4.19992,0.7487,2505.594,0,42.5,
1588,1,SBT2050,2,9,,1,6391,4.19985,0.7483,2507.673,0,42.4,
1588,1,SBT2050,2,9,,1,6401,4.2,0.7483,2509.752,0,42.5,
1588,1,SBT2050,2,9,,1,6411,4.2,0.7478,2511.83,0,42.5,
1588,1,SBT2050,2,9,,1,6421,4.19992,0.7478,2513.907,0,42.5,
1588,1,SBT2050,2,9,,1,6431,4.20002,0.7481,2515.983,0,42.5,
1588,1,SBT2050,2,9,,1,6441,4.19978,0.7474,2518.061,0,42.5,
1588,1,SBT2050,2,9,,1,6451,4.20023,0.7474,2520.137,0,42.5,
1588,1,SBT2050,2,9,,1,6461,4.1998,0.7474,2522.214,0,42.6,
1588,1,SBT2050,2,9,,1,6471,4.199862,0.7484,2524.29,0,42.6,
1588,1,SBT2050,2,9,,1,6481,4.20024,0.7478,2526.369,0,42.5,
1588,1,SBT2050,2,9,,1,6491,4.19996,0.7484,2528.447,0,42.5,
1588,1,SBT2050,2,9,,1,6501,4.200124,0.7487,2530.528,0,42.6,
1588,1,SBT2050,2,9,,1,6511,4.19997,0.7495,2532.609,0,42.5,
1588,1,SBT2050,2,9,,1,6521,4.19998,0.7484,2534.689,0,42.6,
1588,1,SBT2050,2,9,,1,6531,4.1998,0.7486,2536.767,0,42.6,
1588,1,SBT2050,2,9,,1,6541,4.19995,0.7477,2538.846,0,42.6,
1588,1,SBT2050,2,9,,1,6551,4.20005,0.7471,2540.922,0,42.6,
1588,1,SBT2050,2,9,,1,6561,4.2001,0.7466,2542.997,0,42.6,
1588,1,SBT2050,2,9,,1,6571,4.20008,0.7463,2545.071,0,42.6,
1588,1,SBT2050,2,9,,1,6581,4.19974,0.7465,2547.144,0,42.6,
1588,1,SBT2050,2,9,,1,6591,4.2,0.7457,2549.216,0,42.5,
1588,1,SBT2050,2,9,,1,6601,4.20002,0.7449,2551.286,0,42.6,
1588,1,SBT2050,2,9,,1,6611,4.19996,0.7445,2553.354,0,42.6,
1588,1,SBT2050,2,9,,1,6621,4.19999,0.7439,2555.42,0,42.6,
1588,1,SBT2050,2,9,,1,6631,4.19998,0.7442,2557.488,0,42.6,
1588,1,SBT2050,2,9,,1,6641,4.20005,0.744,2559.553,0,42.6,
1588,1,SBT2050,2,9,,1,6651,4.200112,0.7437,2561.62,0,42.6,
1588,1,SBT2050,2,9,,1,6661,4.19979,0.7443,2563.687,0,42.6,
1588,1,SBT2050,2,9,,1,6671,4.2,0.7437,2565.754,0,42.6,
1588,1,SBT2050,2,9,,1,6681,4.20009,0.7442,2567.821,0,42.6,
1588,1,SBT2050,2,9,,1,6691,4.2,0.7454,2569.889,0,42.6,
1588,1,SBT2050,2,9,,1,6701,4.19999,0.7445,2571.957,0,42.6,
1588,1,SBT2050,2,9,,1,6711,4.200172,0.7434,2574.025,0,42.6,
1588,1,SBT2050,2,9,,1,6721,4.200112,0.7448,2576.092,0,42.6,
1588,1,SBT2050,2,9,,1,6731,4.19998,0.7437,2578.158,0,42.6,
1588,1,SBT2050,2,9,,1,6741,4.20003,0.7425,2580.222,0,42.7,
1588,1,SBT2050,2,9,,1,6751,4.200112,0.7428,2582.285,0,42.6,
1588,1,SBT2050,2,9,,1,6761,4.19975,0.7434,2584.35,0,42.7,
1588,1,SBT2050,2,9,,1,6771,4.199838,0.7434,2586.414,0,42.6,
1588,1,SBT2050,2,9,,1,6781,4.19989,0.7427,2588.477,0,42.6,
1588,1,SBT2050,2,9,,1,6791,4.20023,0.7424,2590.541,0,42.6,
1588,1,SBT2050,2,9,,1,6801,4.19989,0.743,2592.605,0,42.6,
1588,1,SBT2050,2,9,,1,6811,4.19987,0.7428,2594.668,0,42.7,
1588,1,SBT2050,2,9,,1,6821,4.19997,0.7436,2596.731,0,42.6,
1588,1,SBT2050,2,9,,1,6831,4.20009,0.743,2598.795,0,42.6,
1588,1,SBT2050,2,9,,1,6841,4.19997,0.7422,2600.858,0,42.7,
1588,1,SBT2050,2,9,,1,6851,4.19989,0.7424,2602.92,0,42.6,
1588,1,SBT2050,2,9,,1,6861,4.19985,0.7431,2604.983,0,42.6,
1588,1,SBT2050,2,9,,1,6871,4.20005,0.7418,2607.046,0,42.6,
1588,1,SBT2050,2,9,,1,6881,4.20004,0.7416,2609.107,0,42.7,
1588,1,SBT2050,2,9,,1,6891,4.20002,0.7415,2611.168,0,42.7,
1588,1,SBT2050,2,9,,1,6901,4.200136,0.7412,2613.226,0,42.7,
1588,1,SBT2050,2,9,,1,6911,4.19996,0.7415,2615.285,0,42.7,
1588,1,SBT2050,2,9,,1,6921,4.19993,0.7412,2617.343,0,42.6,
1588,1,SBT2050,2,9,,1,6931,4.2,0.7407,2619.401,0,42.7,
1588,1,SBT2050,2,9,,1,6941,4.19999,0.7408,2621.458,0,42.6,
1588,1,SBT2050,2,9,,1,6951,4.19997,0.7404,2623.514,0,42.6,
1588,1,SBT2050,2,9,,1,6961,4.20009,0.7399,2625.57,0,42.7,
1588,1,SBT2050,2,9,,1,6971,4.20006,0.7393,2627.625,0,42.7,
1588,1,SBT2050,2,9,,1,6981,4.19993,0.7389,2629.677,0,42.6,
1588,1,SBT2050,2,9,,1,6991,4.20004,0.7378,2631.728,0,42.6,
1588,1,SBT2050,2,9,,1,7001,4.200124,0.7384,2633.779,0,42.7,
1588,1,SBT2050,2,9,,1,7011,4.19995,0.7375,2635.829,0,42.7,
1588,1,SBT2050,2,9,,1,7021,4.20004,0.7366,2637.877,0,42.7,
1588,1,SBT2050,2,9,,1,7031,4.200172,0.7366,2639.923,0,42.7,
1588,1,SBT2050,2,9,,1,7041,4.20005,0.7366,2641.97,0,42.7,
1588,1,SBT2050,2,9,,1,7051,4.20003,0.7364,2644.015,0,42.7,
1588,1,SBT2050,2,9,,1,7061,4.200136,0.7364,2646.061,0,42.7,
1588,1,SBT2050,2,9,,1,7071,4.19995,0.7363,2648.106,0,42.7,
1588,1,SBT2050,2,9,,1,7081,4.19996,0.7358,2650.15,0,42.7,
1588,1,SBT2050,2,9,,1,7091,4.20005,0.7346,2652.193,0,42.6,
1588,1,SBT2050,2,9,,1,7101,4.19991,0.7352,2654.235,0,42.6,
1588,1,SBT2050,2,9,,1,7111,4.19991,0.7346,2656.277,0,42.7,
1588,1,SBT2050,2,9,,1,7121,4.20005,0.7337,2658.316,0,42.6,
1588,1,SBT2050,2,9,,1,7131,4.19972,0.7345,2660.356,0,42.6,
1588,1,SBT2050,2,9,,1,7141,4.20006,0.7337,2662.394,0,42.6,
1588,1,SBT2050,2,9,,1,7151,4.200172,0.7343,2664.432,0,42.6,
1588,1,SBT2050,2,9,,1,7161,4.20002,0.7328,2666.469,0,42.6,
1588,1,SBT2050,2,9,,1,7171,4.20004,0.7327,2668.504,0,42.6,
1588,1,SBT2050,2,9,,1,7181,4.19996,0.7317,2670.537,0,42.6,
1588,1,SBT2050,2,9,,1,7191,4.20002,0.7311,2672.568,0,42.6,
1588,1,SBT2050,2,9,,1,7201,4.200112,0.7308,2674.599,0,42.6,
1588,1,SBT2050,2,9,,1,7211,4.1999,0.7311,2676.629,0,42.6,
1588,1,SBT2050,2,9,,1,7221,4.19978,0.7311,2678.659,0,42.5,
1588,1,SBT2050,2,9,,1,7231,4.20006,0.7296,2680.688,0,42.5,
1588,1,SBT2050,2,9,,1,7241,4.20002,0.7299,2682.716,0,42.5,
1588,1,SBT2050,2,9,,1,7251,4.199862,0.729,2684.743,0,42.6,
1588,1,SBT2050,2,9,,1,7261,4.2002,0.7292,2686.767,0,42.6,
1588,1,SBT2050,2,9,,1,7271,4.19989,0.7286,2688.792,0,42.6,
1588,1,SBT2050,2,9,,1,7281,4.20004,0.7275,2690.814,0,42.5,
1588,1,SBT2050,2,9,,1,7291,4.200112,0.7269,2692.834,0,42.6,
1588,1,SBT2050,2,9,,1,7301,4.2,0.7269,2694.853,0,42.5,
1588,1,SBT2050,2,9,,1,7311,4.20024,0.7261,2696.872,0,42.5,
1588,1,SBT2050,2,9,,1,7321,4.199862,0.7261,2698.889,0,42.6,
1588,1,SBT2050,2,9,,1,7331,4.20004,0.7261,2700.906,0,42.5,
1588,1,SBT2050,2,9,,1,7341,4.19999,0.7257,2702.922,0,42.5,
1588,1,SBT2050,2,9,,1,7351,4.200136,0.7248,2704.936,0,42.5,
1588,1,SBT2050,2,9,,1,7361,4.200172,0.7251,2706.95,0,42.5,
1588,1,SBT2050,2,9,,1,7371,4.20008,0.7248,2708.965,0,42.5,
1588,1,SBT2050,2,9,,1,7381,4.19999,0.7249,2710.979,0,42.5,
1588,1,SBT2050,2,9,,1,7391,4.1998,0.7246,2712.991,0,42.5,
1588,1,SBT2050,2,9,,1,7401,4.19996,0.7231,2715.001,0,42.6,
1588,1,SBT2050,2,9,,1,7411,4.19969,0.7234,2717.009,0,42.5,
1588,1,SBT2050,2,9,,1,7421,4.2001,0.7223,2719.017,0,42.5,
1588,1,SBT2050,2,9,,1,7431,4.20003,0.7223,2721.023,0,42.5,
1588,1,SBT2050,2,9,,1,7441,4.20003,0.7217,2723.029,0,42.5,
1588,1,SBT2050,2,9,,1,7451,4.1998,0.722,2725.034,0,42.5,
1588,1,SBT2050,2,9,,1,7461,4.19987,0.7208,2727.038,0,42.5,
1588,1,SBT2050,2,9,,1,7471,4.20005,0.7205,2729.041,0,42.4,
1588,1,SBT2050,2,9,,1,7481,4.19995,0.7201,2731.042,0,42.5,
1588,1,SBT2050,2,9,,1,7491,4.19996,0.7195,2733.042,0,42.5,
1588,1,SBT2050,2,9,,1,7501,4.20003,0.7195,2735.041,0,42.4,
1588,1,SBT2050,2,9,,1,7511,4.19985,0.7187,2737.038,0,42.5,
1588,1,SBT2050,2,9,,1,7521,4.19999,0.7176,2739.033,0,42.4,
1588,1,SBT2050,2,9,,1,7531,4.20026,0.717,2741.026,0,42.4,
1588,1,SBT2050,2,9,,1,7541,4.200136,0.7167,2743.017,0,42.4,
1588,1,SBT2050,2,9,,1,7551,4.2,0.716,2745.007,0,42.4,
1588,1,SBT2050,2,9,,1,7561,4.199814,0.7157,2746.996,0,42.3,
1588,1,SBT2050,2,9,,1,7571,4.20004,0.7155,2748.984,0,42.4,
1588,1,SBT2050,2,9,,1,7581,4.19993,0.7149,2750.97,0,42.4,
1588,1,SBT2050,2,9,,1,7591,4.19979,0.7132,2752.954,0,42.4,
1588,1,SBT2050,2,9,,1,7601,4.19998,0.7137,2754.936,0,42.3,
1588,1,SBT2050,2,9,,1,7611,4.2001,0.7134,2756.918,0,42.3,
1588,1,SBT2050,2,9,,1,7621,4.20009,0.7125,2758.899,0,42.3,
1588,1,SBT2050,2,9,,1,7631,4.19992,0.7134,2760.88,0,42.4,
1588,1,SBT2050,2,9,,1,7641,4.19972,0.7129,2762.861,0,42.4,
1588,1,SBT2050,2,9,,1,7651,4.19969,0.7123,2764.839,0,42.4,
1588,1,SBT2050,2,9,,1,7661,4.19989,0.7122,2766.817,0,42.3,
1588,1,SBT2050,2,9,,1,7671,4.200112,0.7111,2768.793,0,42.3,
1588,1,SBT2050,2,9,,1,7681,4.19997,0.7102,2770.767,0,42.3,
1588,1,SBT2050,2,9,,1,7691,4.19991,0.7102,2772.74,0,42.3,
1588,1,SBT2050,2,9,,1,7701,4.199838,0.7099,2774.713,0,42.3,
1588,1,SBT2050,2,9,,1,7711,4.19996,0.709,2776.683,0,42.2,
1588,1,SBT2050,2,9,,1,7721,4.19985,0.7093,2778.652,0,42.2,
1588,1,SBT2050,2,9,,1,7731,4.19975,0.7087,2780.621,0,42.3,
1588,1,SBT2050,2,9,,1,7741,4.19995,0.7075,2782.587,0,42.3,
1588,1,SBT2050,2,9,,1,7751,4.200136,0.7069,2784.553,0,42.3,
1588,1,SBT2050,2,9,,1,7761,4.19993,0.7061,2786.515,0,42.3,
1588,1,SBT2050,2,9,,1,7771,4.20004,0.7058,2788.477,0,42.2,
1588,1,SBT2050,2,9,,1,7781,4.20006,0.7052,2790.437,0,42.2,
1588,1,SBT2050,2,9,,1,7791,4.19998,0.7054,2792.397,0,42.2,
1588,1,SBT2050,2,9,,1,7801,4.2,0.7046,2794.354,0,42.3,
1588,1,SBT2050,2,9,,1,7811,4.20002,0.7032,2796.308,0,42.2,
1588,1,SBT2050,2,9,,1,7821,4.20008,0.7022,2798.261,0,42.2,
1588,1,SBT2050,2,9,,1,7831,4.19993,0.7026,2800.212,0,42.2,
1588,1,SBT2050,2,9,,1,7841,4.200124,0.7011,2802.161,0,42.2,
1588,1,SBT2050,2,9,,1,7851,4.19989,0.7005,2804.109,0,42.1,
1588,1,SBT2050,2,9,,1,7861,4.20018,0.7,2806.054,0,42.1,
1588,1,SBT2050,2,9,,1,7871,4.200124,0.6994,2807.999,0,42.1,
1588,1,SBT2050,2,9,,1,7881,4.20002,0.6987,2809.941,0,42.1,
1588,1,SBT2050,2,9,,1,7891,4.2001,0.6981,2811.881,0,42.1,
1588,1,SBT2050,2,9,,1,7901,4.20004,0.6972,2813.819,0,42.1,
1588,1,SBT2050,2,9,,1,7911,4.20023,0.697,2815.755,0,42.1,
1588,1,SBT2050,2,9,,1,7921,4.19997,0.6949,2817.688,0,42.1,
1588,1,SBT2050,2,9,,1,7931,4.199814,0.695,2819.619,0,42.1,
1588,1,SBT2050,2,9,,1,7941,4.20002,0.6938,2821.548,0,42.1,
1588,1,SBT2050,2,9,,1,7951,4.20023,0.6929,2823.476,0,42,
1588,1,SBT2050,2,9,,1,7961,4.19995,0.6931,2825.401,0,42,
1588,1,SBT2050,2,9,,1,7971,4.19993,0.6922,2827.325,0,42,
1588,1,SBT2050,2,9,,1,7981,4.20018,0.6915,2829.247,0,42.1,
1588,1,SBT2050,2,9,,1,7991,4.1999,0.6909,2831.167,0,42,
1588,1,SBT2050,2,9,,1,8001,4.19998,0.6902,2833.085,0,42,
1588,1,SBT2050,2,9,,1,8011,4.20008,0.6897,2835.003,0,42,
1588,1,SBT2050,2,9,,1,8021,4.200124,0.6893,2836.918,0,41.9,
1588,1,SBT2050,2,9,,1,8031,4.20003,0.6881,2838.832,0,41.9,
1588,1,SBT2050,2,9,,1,8041,4.199862,0.6878,2840.743,0,42,
1588,1,SBT2050,2,9,,1,8051,4.20018,0.6865,2842.653,0,42,
1588,1,SBT2050,2,9,,1,8061,4.19987,0.6859,2844.559,0,41.9,
1588,1,SBT2050,2,9,,1,8071,4.20022,0.6847,2846.464,0,41.9,
1588,1,SBT2050,2,9,,1,8081,4.20002,0.6844,2848.366,0,41.9,
1588,1,SBT2050,2,9,,1,8091,4.199838,0.6844,2850.266,0,41.9,
1588,1,SBT2050,2,9,,1,8101,4.200136,0.6828,2852.165,0,41.9,
1588,1,SBT2050,2,9,,1,8111,4.20018,0.6824,2854.06,0,41.9,
1588,1,SBT2050,2,9,,1,8121,4.200172,0.6812,2855.954,0,41.9,
1588,1,SBT2050,2,9,,1,8131,4.19997,0.6815,2857.847,0,41.8,
1588,1,SBT2050,2,9,,1,8141,4.20002,0.6802,2859.738,0,41.8,
1588,1,SBT2050,2,9,,1,8151,4.19995,0.6796,2861.628,0,41.9,
1588,1,SBT2050,2,9,,1,8161,4.19995,0.6793,2863.514,0,41.8,
1588,1,SBT2050,2,9,,1,8171,4.19987,0.6784,2865.4,0,41.8,
1588,1,SBT2050,2,9,,1,8181,4.19998,0.6777,2867.282,0,41.8,
1588,1,SBT2050,2,9,,1,8191,4.19979,0.6779,2869.165,0,41.8,
1588,1,SBT2050,2,9,,1,8201,4.20008,0.6765,2871.045,0,41.7,
1588,1,SBT2050,2,9,,1,8211,4.20018,0.6761,2872.924,0,41.8,
1588,1,SBT2050,2,9,,1,8221,4.20002,0.6755,2874.801,0,41.7,
1588,1,SBT2050,2,9,,1,8231,4.200148,0.6756,2876.677,0,41.7,
1588,1,SBT2050,2,9,,1,8241,4.2,0.6741,2878.551,0,41.7,
1588,1,SBT2050,2,9,,1,8251,4.199814,0.6737,2880.423,0,41.7,
1588,1,SBT2050,2,9,,1,8261,4.20002,0.6723,2882.292,0,41.7,
1588,1,SBT2050,2,9,,1,8271,4.2001,0.6718,2884.16,0,41.6,
1588,1,SBT2050,2,9,,1,8281,4.19998,0.6712,2886.025,0,41.6,
1588,1,SBT2050,2,9,,1,8291,4.200112,0.6709,2887.889,0,41.6,
1588,1,SBT2050,2,9,,1,8301,4.2001,0.6699,2889.751,0,41.6,
1588,1,SBT2050,2,9,,1,8311,4.19995,0.67,2891.611,0,41.6,
1588,1,SBT2050,2,9,,1,8321,4.20022,0.6696,2893.472,0,41.6,
1588,1,SBT2050,2,9,,1,8331,4.199862,0.6682,2895.33,0,41.6,
1588,1,SBT2050,2,9,,1,8341,4.200148,0.6673,2897.185,0,41.6,
1588,1,SBT2050,2,9,,1,8351,4.19999,0.6664,2899.038,0,41.6,
1588,1,SBT2050,2,9,,1,8361,4.19999,0.6664,2900.889,0,41.5,
1588,1,SBT2050,2,9,,1,8371,4.19966,0.6656,2902.738,0,41.5,
1588,1,SBT2050,2,9,,1,8381,4.20003,0.6645,2904.585,0,41.5,
1588,1,SBT2050,2,9,,1,8391,4.20004,0.6644,2906.431,0,41.5,
1588,1,SBT2050,2,9,,1,8401,4.19991,0.6632,2908.274,0,41.4,
1588,1,SBT2050,2,9,,1,8411,4.2,0.6623,2910.114,0,41.4,
1588,1,SBT2050,2,9,,1,8421,4.20023,0.6605,2911.951,0,41.4,
1588,1,SBT2050,2,9,,1,8431,4.19996,0.6603,2913.785,0,41.4,
1588,1,SBT2050,2,9,,1,8441,4.20016,0.6594,2915.619,0,41.4,
1588,1,SBT2050,2,9,,1,8451,4.2001,0.6585,2917.45,0,41.4,
1588,1,SBT2050,2,9,,1,8461,4.19993,0.6579,2919.278,0,41.3,
1588,1,SBT2050,2,9,,1,8471,4.2001,0.6576,2921.105,0,41.3,
1588,1,SBT2050,2,9,,1,8474.68,4.199862,0.657,2921.777,0,,