File: 2C/Test1445.csv
Request Year:,2018,,,,,,,,,,,,
Test:,1445,,,,,,,,,,,,
Test Description:,,,,,,,,,,,,,
TestRegime Name:,Aging_Performance,,,,,,,,,,,,
TestRegime Suffix:,SHP_LC,,,,,,,,,,,,
TestRegime CellSize:,18650,,,,,,,,,,,,
TestRegime Version:,1,,,,,,,,,,,,
Number Of Cells:,1,,,,,,,,,,,,
LotID:,,,,,,,,,,,,,
Lot Description:,,,,,,,,,,,,,
Date Made:,1/21/2003 12:00 AM,,,,,,,,,,,,
Origin:,Other,,,,,,,,,,,,
Requestor:,Admin,,,,,,,,,,,,
Product ID:,Default product,,,,,,,,,,,,
Storage Temp:,R.T./AMB,,,,,,,,,,,,
Storage Delay:,0 days,,,,,,,,,,,,
Test Temp:,R.T./AMB,,,,,,,,,,,,
Start Time:,3/31/2018 1:16 PM,,,,,,,,,,,,
End Time:,4/1/2018 1:21 AM,,,,,,,,,,,,
Operator Instructions:,,,,,,,,,,,,,
Test,Cell,Rack,Shelf,Position,Cell ID,Step,Total Time (Seconds),Voltage (V),Current (A),Charge Capacity (mAh),Discharge Capacity (mAh),TC1 (Â°C),
1445,1,SBT2050,2,9,,0,1,3.42018,0,0,0,24.2,
1445,1,SBT2050,2,9,,0,59,3.42014,0,0,0,24.3,
1445,1,SBT2050,2,9,,0,117,3.42031,0,0,0,24.5,
1445,1,SBT2050,2,9,,0,175,3.42052,0,0,0,24.7,
1445,1,SBT2050,2,9,,0,233,3.42092,0,0,0,24.7,
1445,1,SBT2050,2,9,,0,291,3.42079,0,0,0,24.7,
1445,1,SBT2050,2,9,,1,349,2.97943,-2.9357,0,39.96,25.7,
1445,1,SBT2050,2,9,,1,407,2.83179,-2.9361,0,87.261,27.1,
1445,1,SBT2050,2,9,,1,465,2.644525,-2.9357,0,134.563,28.7,
1445,1,SBT2050,2,9,,1,523,2.499721,-2.3764,0,179.521,30.6,
1445,1,SBT2050,2,9,,1,581,2.49976,-1.7411,0,212.258,31.5,
1445,1,SBT2050,2,9,,1,639,2.49969,-1.2961,0,236.587,31.8,
1445,1,SBT2050,2,9,,1,697,2.499554,-0.9224,0,254.394,31.6,
1445,1,SBT2050,2,9,,1,755,2.49964,-0.6026,0,266.587,31,
1445,1,SBT2050,2,9,,1,813,2.499566,-0.37198,0,274.306,30.2,
1445,1,SBT2050,2,9,,1,871,2.4996,-0.23185,0,279.066,29.3,
1445,1,SBT2050,2,9,,1,929,2.499554,-0.15494,0,282.122,28.5,
1445,1,SBT2050,2,9,,1,987,2.49974,-0.11166,0,284.234,27.8,
1445,1,SBT2050,2,9,,1,1045,2.49967,-0.08776,0,285.823,27.3,
1445,1,SBT2050,2,9,,1,1103,2.49985,-0.07379,0,287.115,26.8,
1445,1,SBT2050,2,9,,1,1161,2.49992,-0.0649,0,288.228,26.4,
1445,1,SBT2050,2,9,,1,1219,2.50008,-0.05912,0,289.224,26,
1445,1,SBT2050,2,9,,1,1277,2.5,-0.05445,0,290.137,25.8,
1445,1,SBT2050,2,9,,1,1335,2.50001,-0.0509,0,290.985,25.6,
1445,1,SBT2050,2,9,,1,1393,2.50011,-0.04811,0,291.783,25.5,
1445,1,SBT2050,2,9,,1,1451,2.50001,-0.045736,0,292.538,25.4,
1445,1,SBT2050,2,9,,1,1509,2.49985,-0.043701,0,293.26,25.4,
1445,1,SBT2050,2,9,,1,1567,2.499876,-0.042042,0,293.952,25.3,
1445,1,SBT2050,2,9,,1,1625,2.49998,-0.040713,0,294.619,25.3,
1445,1,SBT2050,2,9,,1,1683,2.500055,-0.03952,0,295.265,25.2,
1445,1,SBT2050,2,9,,1,1741,2.500043,-0.03839,0,295.891,25.2,
1445,1,SBT2050,2,9,,1,1799,2.50002,-0.037206,0,296.5,25.2,
1445,1,SBT2050,2,9,,1,1857,2.500031,-0.036419,0,297.093,25.1,
1445,1,SBT2050,2,9,,1,1915,2.500031,-0.035439,0,297.671,25.1,
1445,1,SBT2050,2,9,,1,1973,2.499888,-0.034542,0,298.235,25.1,
1445,1,SBT2050,2,9,,1,2031,2.49998,-0.033861,0,298.787,25.1,
1445,1,SBT2050,2,9,,1,2089,2.50009,-0.033338,0,299.327,25.1,
1445,1,SBT2050,2,9,,1,2147,2.49992,-0.032441,0,299.857,25.1,
1445,1,SBT2050,2,9,,1,2205,2.49998,-0.031759,0,300.375,25.1,
1445,1,SBT2050,2,9,,1,2263,2.49995,-0.03127,0,300.883,25.1,
1445,1,SBT2050,2,9,,1,2321,2.50013,-0.030801,0,301.382,25.1,
1445,1,SBT2050,2,9,,1,2379,2.49991,-0.030123,0,301.872,25.1,
1445,1,SBT2050,2,9,,1,2437,2.500055,-0.029609,0,302.354,25.1,
1445,1,SBT2050,2,9,,1,2495,2.50007,-0.029204,0,302.827,25.1,
1445,1,SBT2050,2,9,,1,2553,2.499864,-0.028598,0,303.294,25.1,
1445,1,SBT2050,2,9,,1,2611,2.50019,-0.028316,0,303.752,25.1,
1445,1,SBT2050,2,9,,1,2669,2.5,-0.027833,0,304.204,25.2,
1445,1,SBT2050,2,9,,1,2727,2.500055,-0.027333,0,304.649,25.1,
1445,1,SBT2050,2,9,,1,2785,2.50008,-0.027003,0,305.087,25.1,
1445,1,SBT2050,2,9,,1,2843,2.500031,-0.026706,0,305.519,25.1,
1445,1,SBT2050,2,9,,1,2901,2.49997,-0.026262,0,305.946,25.2,
1445,1,SBT2050,2,9,,1,2959,2.49992,-0.025953,0,306.367,25.2,
1445,1,SBT2050,2,9,,1,3017,2.50008,-0.025686,0,306.782,25.1,
1445,1,SBT2050,2,9,,1,3075,2.500031,-0.025386,0,307.192,25.1,
1445,1,SBT2050,2,9,,1,3133,2.49994,-0.024864,0,307.597,25,
1445,1,SBT2050,2,9,,1,3191,2.50008,-0.024698,0,307.997,24.9,
1445,1,SBT2050,2,9,,1,3249,2.50013,-0.024341,0,308.392,24.8,
1445,1,SBT2050,2,9,,1,3307,2.49997,-0.024069,0,308.781,24.7,
1445,1,SBT2050,2,9,,1,3365,2.49985,-0.023714,0,309.165,24.7,
1445,1,SBT2050,2,9,,1,3423,2.50008,-0.023449,0,309.545,24.8,
1445,1,SBT2050,2,9,,1,3481,2.5,-0.023177,0,309.921,24.8,
1445,1,SBT2050,2,9,,1,3539,2.49994,-0.022984,0,310.293,24.8,
1445,1,SBT2050,2,9,,1,3597,2.49996,-0.022539,0,310.66,24.8,
1445,1,SBT2050,2,9,,1,3655,2.5,-0.022407,0,311.023,24.9,
1445,1,SBT2050,2,9,,1,3713,2.50009,-0.022128,0,311.381,24.9,
1445,1,SBT2050,2,9,,1,3771,2.49995,-0.021838,0,311.735,25,
1445,1,SBT2050,2,9,,1,3829,2.499888,-0.021503,0,312.085,25,
1445,1,SBT2050,2,9,,1,3887,2.500031,-0.021223,0,312.43,25,
1445,1,SBT2050,2,9,,1,3945,2.49994,-0.020903,0,312.77,25,
1445,1,SBT2050,2,9,,1,4003,2.49982,-0.020627,0,313.105,24.9,
1445,1,SBT2050,2,9,,1,4061,2.50001,-0.020513,0,313.436,24.9,
1445,1,SBT2050,2,9,,1,4119,2.50011,-0.020278,0,313.763,24.9,
1445,1,SBT2050,2,9,,1,4177,2.49997,-0.019949,0,314.087,24.8,
1445,1,SBT2050,2,9,,1,4235,2.50009,-0.019753,0,314.406,24.8,
1445,1,SBT2050,2,9,,1,4293,2.49994,-0.019556,0,314.722,24.8,
1445,1,SBT2050,2,9,,1,4351,2.50016,-0.019276,0,315.034,24.9,
1445,1,SBT2050,2,9,,1,4409,2.50007,-0.019009,0,315.342,24.8,
1445,1,SBT2050,2,9,,1,4467,2.4999,-0.01874,0,315.647,24.9,
1445,1,SBT2050,2,9,,1,4525,2.500043,-0.018575,0,315.949,24.9,
1445,1,SBT2050,2,9,,1,4583,2.49998,-0.018412,0,316.246,24.9,
1445,1,SBT2050,2,9,,1,4641,2.50001,-0.018202,0,316.541,24.9,
1445,1,SBT2050,2,9,,1,4699,2.50015,-0.018044,0,316.833,24.9,
1445,1,SBT2050,2,9,,1,4757,2.49996,-0.017923,0,317.122,24.8,
1445,1,SBT2050,2,9,,1,4815,2.49998,-0.017713,0,317.408,24.8,
1445,1,SBT2050,2,9,,1,4873,2.49994,-0.017512,0,317.691,24.8,
1445,1,SBT2050,2,9,,1,4931,2.49996,-0.017318,0,317.971,24.8,
1445,1,SBT2050,2,9,,1,4989,2.5001,-0.017213,0,318.248,24.8,
1445,1,SBT2050,2,9,,1,5047,2.499876,-0.01688,0,318.523,24.8,
1445,1,SBT2050,2,9,,1,5105,2.50002,-0.016898,0,318.794,24.8,
1445,1,SBT2050,2,9,,1,5163,2.49994,-0.016511,0,319.062,24.8,
1445,1,SBT2050,2,9,,1,5221,2.500031,-0.016316,0,319.327,24.8,
1445,1,SBT2050,2,9,,1,5279,2.50001,-0.016235,0,319.59,24.9,
1445,1,SBT2050,2,9,,1,5337,2.49985,-0.016017,0,319.849,24.8,
1445,1,SBT2050,2,9,,1,5395,2.500031,-0.015946,0,320.106,24.9,
1445,1,SBT2050,2,9,,1,5453,2.49992,-0.015684,0,320.36,24.9,
1445,1,SBT2050,2,9,,1,5511,2.4998,-0.015323,0,320.61,24.9,
1445,1,SBT2050,2,9,,1,5569,2.50002,-0.015247,0,320.857,24.8,
1445,1,SBT2050,2,9,,1,5627,2.49979,-0.01495,0,321.101,24.8,
1445,1,SBT2050,2,9,,1,5685,2.500031,-0.014768,0,321.34,24.8,
1445,1,SBT2050,2,9,,1,5743,2.50002,-0.014491,0,321.576,24.9,
1445,1,SBT2050,2,9,,1,5801,2.5,-0.014374,0,321.808,24.9,
1445,1,SBT2050,2,9,,1,5859,2.50011,-0.014081,0,322.037,24.8,
1445,1,SBT2050,2,9,,1,5917,2.50008,-0.013924,0,322.263,24.8,
1445,1,SBT2050,2,9,,1,5975,2.500043,-0.013792,0,322.486,24.8,
1445,1,SBT2050,2,9,,1,6033,2.500031,-0.013626,0,322.706,24.9,
1445,1,SBT2050,2,9,,1,6091,2.499876,-0.013362,0,322.923,24.8,
1445,1,SBT2050,2,9,,1,6149,2.49996,-0.013125,0,323.138,24.8,
1445,1,SBT2050,2,9,,1,6207,2.49991,-0.012972,0,323.349,24.8,
1445,1,SBT2050,2,9,,1,6265,2.50009,-0.012881,0,323.557,24.8,
1445,1,SBT2050,2,9,,1,6323,2.49985,-0.012613,0,323.762,24.8,
1445,1,SBT2050,2,9,,1,6381,2.49998,-0.012396,0,323.965,24.8,
1445,1,SBT2050,2,9,,1,6439,2.50015,-0.012424,0,324.164,24.8,
1445,1,SBT2050,2,9,,1,6497,2.499876,-0.012296,0,324.362,24.8,
1445,1,SBT2050,2,9,,1,6555,2.49998,-0.011988,0,324.557,24.9,
1445,1,SBT2050,2,9,,1,6613,2.49998,-0.011842,0,324.749,24.8,
1445,1,SBT2050,2,9,,1,6671,2.50011,-0.011769,0,324.94,24.8,
1445,1,SBT2050,2,9,,1,6729,2.50014,-0.011635,0,325.128,24.8,
1445,1,SBT2050,2,9,,1,6787,2.499876,-0.011485,0,325.314,24.8,
1445,1,SBT2050,2,9,,1,6845,2.50011,-0.011272,0,325.498,24.9,
1445,1,SBT2050,2,9,,1,6903,2.49996,-0.011155,0,325.679,24.8,
1445,1,SBT2050,2,9,,1,6961,2.50007,-0.011109,0,325.857,24.8,
1445,1,SBT2050,2,9,,1,7019,2.500055,-0.010987,0,326.034,24.8,
1445,1,SBT2050,2,9,,1,7077,2.49995,-0.010678,0,326.208,24.8,
1445,1,SBT2050,2,9,,1,7135,2.49992,-0.010538,0,326.38,24.9,
1445,1,SBT2050,2,9,,1,7193,2.50001,-0.010442,0,326.55,24.8,
1445,1,SBT2050,2,9,,1,7251,2.5,-0.010376,0,326.718,24.8,
1445,1,SBT2050,2,9,,1,7309,2.500043,-0.01016,0,326.885,24.8,
1445,1,SBT2050,2,9,,2,7366,3.43528,2.9359,26.655,326.954,25,
1445,1,SBT2050,2,9,,2,7424,3.656528,2.9357,73.956,326.954,25.6,
1445,1,SBT2050,2,9,,2,7482,3.71144,2.9359,121.257,326.954,26.4,
1445,1,SBT2050,2,9,,2,7540,3.72939,2.9358,168.559,326.954,27.2,
1445,1,SBT2050,2,9,,2,7598,3.746924,2.9356,215.86,326.954,27.8,
1445,1,SBT2050,2,9,,2,7656,3.764,2.9358,263.161,326.954,28.3,
1445,1,SBT2050,2,9,,2,7714,3.77886,2.9356,310.462,326.954,28.7,
1445,1,SBT2050,2,9,,2,7772,3.79147,2.936,357.764,326.954,29,
1445,1,SBT2050,2,9,,2,7830,3.80411,2.936,405.065,326.954,29.3,
1445,1,SBT2050,2,9,,2,7888,3.81637,2.9354,452.366,326.954,29.4,
1445,1,SBT2050,2,9,,2,7946,3.8292,2.9357,499.668,326.954,29.6,
1445,1,SBT2050,2,9,,2,8004,3.84152,2.9356,546.969,326.954,29.7,
1445,1,SBT2050,2,9,,2,8062,3.85504,2.9354,594.27,326.954,29.8,
1445,1,SBT2050,2,9,,2,8120,3.868982,2.9363,641.571,326.954,29.9,
1445,1,SBT2050,2,9,,2,8178,3.88313,2.9359,688.872,326.954,29.9,
1445,1,SBT2050,2,9,,2,8236,3.89814,2.936,736.174,326.954,29.9,
1445,1,SBT2050,2,9,,2,8294,3.91368,2.9358,783.475,326.954,30,
1445,1,SBT2050,2,9,,2,8352,3.93021,2.936,830.776,326.954,30.1,
1445,1,SBT2050,2,9,,2,8410,3.947722,2.9362,878.077,326.954,30.2,
1445,1,SBT2050,2,9,,2,8468,3.96518,2.9358,925.379,326.954,30.2,
1445,1,SBT2050,2,9,,2,8526,3.98361,2.9359,972.68,326.954,30.3,
1445,1,SBT2050,2,9,,2,8584,4.00265,2.9357,1019.981,326.954,30.4,
1445,1,SBT2050,2,9,,2,8642,4.02135,2.9363,1067.282,326.954,30.6,
1445,1,SBT2050,2,9,,2,8700,4.03999,2.9359,1114.584,326.954,30.6,
1445,1,SBT2050,2,9,,2,8758,4.0582,2.9356,1161.885,326.954,30.7,
1445,1,SBT2050,2,9,,2,8816,4.07639,2.9358,1209.186,326.954,30.8,
1445,1,SBT2050,2,9,,2,8874,4.09348,2.9353,1256.487,326.954,30.9,
1445,1,SBT2050,2,9,,2,8932,4.11097,2.9357,1303.789,326.954,30.9,
1445,1,SBT2050,2,9,,2,8990,4.128424,2.9362,1351.09,326.954,31.1,
1445,1,SBT2050,2,9,,2,9048,4.14657,2.9356,1398.391,326.954,31.1,
1445,1,SBT2050,2,9,,2,9106,4.15005,2.7514,1444.378,326.954,31.2,
1445,1,SBT2050,2,9,,2,9164,4.150132,2.5752,1487.262,326.954,31.1,
1445,1,SBT2050,2,9,,2,9222,4.15022,2.4067,1527.366,326.954,31,
1445,1,SBT2050,2,9,,2,9280,4.150132,2.2475,1564.836,326.954,30.7,
1445,1,SBT2050,2,9,,2,9338,4.15016,2.0987,1599.834,326.954,30.5,
1445,1,SBT2050,2,9,,2,9396,4.15005,1.9621,1632.534,326.954,30.2,
1445,1,SBT2050,2,9,,2,9454,4.15024,1.8365,1663.113,326.954,29.9,
1445,1,SBT2050,2,9,,2,9512,4.15005,1.7213,1691.768,326.954,29.7,
1445,1,SBT2050,2,9,,2,9570,4.150108,1.6166,1718.658,326.954,29.3,
1445,1,SBT2050,2,9,,2,9628,4.150108,1.5216,1743.929,326.954,29,
1445,1,SBT2050,2,9,,2,9686,4.15008,1.4345,1767.727,326.954,28.8,
1445,1,SBT2050,2,9,,2,9744,4.14988,1.3556,1790.187,326.954,28.4,
1445,1,SBT2050,2,9,,2,9802,4.15001,1.2804,1811.416,326.954,28.2,
1445,1,SBT2050,2,9,,2,9860,4.15004,1.2133,1831.509,326.954,28,
1445,1,SBT2050,2,9,,2,9918,4.15012,1.1501,1850.551,326.954,27.7,
1445,1,SBT2050,2,9,,2,9976,4.14991,1.0948,1868.64,326.954,27.5,
1445,1,SBT2050,2,9,,2,10034,4.150108,1.0405,1885.834,326.954,27.3,
1445,1,SBT2050,2,9,,2,10092,4.15023,0.9906,1902.197,326.954,27.2,
1445,1,SBT2050,2,9,,2,10150,4.15016,0.9439,1917.787,326.954,27,
1445,1,SBT2050,2,9,,2,10208,4.14999,0.9027,1932.66,326.954,26.9,
1445,1,SBT2050,2,9,,2,10266,4.14999,0.8625,1946.864,326.954,26.7,
1445,1,SBT2050,2,9,,2,10324,4.14987,0.8246,1960.448,326.954,26.6,
1445,1,SBT2050,2,9,,2,10382,4.14998,0.7889,1973.442,326.954,26.5,
1445,1,SBT2050,2,9,,2,10440,4.15007,0.7554,1985.886,326.954,26.4,
1445,1,SBT2050,2,9,,2,10498,4.14997,0.7248,1997.811,326.954,26.3,
1445,1,SBT2050,2,9,,2,10556,4.15018,0.6956,2009.252,326.954,26.2,
1445,1,SBT2050,2,9,,2,10614,4.15017,0.668,2020.235,326.954,26.1,
1445,1,SBT2050,2,9,,2,10672,4.15017,0.6409,2030.78,326.954,25.9,
1445,1,SBT2050,2,9,,2,10730,4.15001,0.6172,2040.92,326.954,25.9,
1445,1,SBT2050,2,9,,2,10788,4.15012,0.594,2050.667,326.954,25.8,
1445,1,SBT2050,2,9,,2,10846,4.15008,0.5714,2060.055,326.954,25.8,
1445,1,SBT2050,2,9,,2,10904,4.150144,0.5509,2069.09,326.954,25.7,
1445,1,SBT2050,2,9,,2,10962,4.15016,0.5321,2077.805,326.954,25.7,
1445,1,SBT2050,2,9,,2,11020,4.15006,0.5119,2086.208,326.954,25.6,
1445,1,SBT2050,2,9,,2,11078,4.14986,0.4941,2094.316,326.954,25.5,
1445,1,SBT2050,2,9,,2,11136,4.149846,0.4776,2102.14,326.954,25.5,
1445,1,SBT2050,2,9,,2,11194,4.150132,0.46132,2109.698,326.954,25.5,
1445,1,SBT2050,2,9,,2,11252,4.15018,0.44557,2117.01,326.954,25.5,
1445,1,SBT2050,2,9,,2,11310,4.150108,0.43074,2124.079,326.954,25.4,
1445,1,SBT2050,2,9,,2,11368,4.15012,0.41761,2130.916,326.954,25.4,
1445,1,SBT2050,2,9,,2,11426,4.15035,0.40375,2137.538,326.954,25.4,
1445,1,SBT2050,2,9,,2,11484,4.150108,0.39128,2143.946,326.954,25.4,
1445,1,SBT2050,2,9,,2,11542,4.14998,0.3788,2150.149,326.954,25.3,
1445,1,SBT2050,2,9,,2,11600,4.15004,0.36787,2156.163,326.954,25.3,
1445,1,SBT2050,2,9,,2,11658,4.14998,0.35616,2161.989,326.954,25.3,
1445,1,SBT2050,2,9,,2,11716,4.15006,0.34503,2167.634,326.954,25.3,
1445,1,SBT2050,2,9,,2,11774,4.15001,0.33532,2173.115,326.954,25.3,
1445,1,SBT2050,2,9,,2,11832,4.15017,0.32496,2178.433,326.954,25.3,
1445,1,SBT2050,2,9,,2,11890,4.14994,0.31537,2183.595,326.954,25.2,
1445,1,SBT2050,2,9,,2,11948,4.15004,0.30674,2188.608,326.954,25.2,
1445,1,SBT2050,2,9,,2,12006,4.15005,0.29744,2193.479,326.954,25.2,
1445,1,SBT2050,2,9,,2,12064,4.150144,0.2898,2198.215,326.954,25.2,
1445,1,SBT2050,2,9,,2,12122,4.14976,0.28218,2202.823,326.954,25.2,
1445,1,SBT2050,2,9,,2,12180,4.14991,0.27458,2207.307,326.954,25.1,
1445,1,SBT2050,2,9,,2,12238,4.15005,0.26683,2211.662,326.954,25.2,
1445,1,SBT2050,2,9,,2,12296,4.15007,0.25912,2215.899,326.954,25.1,
1445,1,SBT2050,2,9,,2,12354,4.14995,0.25324,2220.023,326.954,25.1,
1445,1,SBT2050,2,9,,2,12412,4.14999,0.24581,2224.041,326.954,25.1,
1445,1,SBT2050,2,9,,2,12470,4.149822,0.23957,2227.956,326.954,25.1,
1445,1,SBT2050,2,9,,2,12528,4.15007,0.23359,2231.769,326.954,25.1,
1445,1,SBT2050,2,9,,2,12586,4.15008,0.22806,2235.486,326.954,25.1,
1445,1,SBT2050,2,9,,2,12644,4.14994,0.22185,2239.109,326.954,25,
1445,1,SBT2050,2,9,,2,12702,4.15016,0.21723,2242.646,326.954,25,
1445,1,SBT2050,2,9,,2,12760,4.14992,0.21202,2246.101,326.954,25.1,
1445,1,SBT2050,2,9,,2,12818,4.14997,0.20624,2249.461,326.954,25.1,
1445,1,SBT2050,2,9,,2,12876,4.15002,0.20063,2252.739,326.954,25.1,
1445,1,SBT2050,2,9,,2,12934,4.15001,0.19622,2255.942,326.954,25.1,
1445,1,SBT2050,2,9,,2,12992,4.15006,0.19211,2259.071,326.954,25,
1445,1,SBT2050,2,9,,2,13050,4.15028,0.18721,2262.128,326.954,25,
1445,1,SBT2050,2,9,,2,13108,4.15001,0.18293,2265.108,326.954,25,
1445,1,SBT2050,2,9,,2,13166,4.15008,0.17891,2268.024,326.954,25,
1445,1,SBT2050,2,9,,2,13224,4.14994,0.1744,2270.871,326.954,25,
1445,1,SBT2050,2,9,,2,13282,4.14992,0.17014,2273.648,326.954,25,
1445,1,SBT2050,2,9,,2,13340,4.15017,0.16646,2276.359,326.954,25,
1445,1,SBT2050,2,9,,2,13398,4.14987,0.16342,2279.017,326.954,25,
1445,1,SBT2050,2,9,,2,13456,4.14987,0.15969,2281.622,326.954,25,
1445,1,SBT2050,2,9,,2,13514,4.15023,0.15568,2284.165,326.954,25,
1445,1,SBT2050,2,9,,2,13572,4.15002,0.15242,2286.65,326.954,25,
1445,1,SBT2050,2,9,,2,13630,4.15016,0.14924,2289.084,326.954,25,
1445,1,SBT2050,2,9,,2,13688,4.15002,0.14631,2291.467,326.954,25,
1445,1,SBT2050,2,9,,2,13746,4.15006,0.14334,2293.801,326.954,25,
1445,1,SBT2050,2,9,,2,13804,4.15,0.14027,2296.087,326.954,25,
1445,1,SBT2050,2,9,,2,13862,4.14986,0.13736,2298.32,326.954,25,
1445,1,SBT2050,2,9,,2,13920,4.14993,0.13445,2300.507,326.954,25,
1445,1,SBT2050,2,9,,2,13978,4.15001,0.13163,2302.654,326.954,25,
1445,1,SBT2050,2,9,,2,14036,4.15012,0.129,2304.752,326.954,25,
1445,1,SBT2050,2,9,,2,14094,4.14994,0.12668,2306.815,326.954,25,
1445,1,SBT2050,2,9,,2,14152,4.15023,0.12348,2308.832,326.954,25,
1445,1,SBT2050,2,9,,2,14210,4.15004,0.12124,2310.808,326.954,24.9,
1445,1,SBT2050,2,9,,2,14268,4.15005,0.11916,2312.743,326.954,25,
1445,1,SBT2050,2,9,,2,14326,4.14994,0.11744,2314.643,326.954,24.9,
1445,1,SBT2050,2,9,,2,14384,4.14994,0.11444,2316.504,326.954,24.9,
1445,1,SBT2050,2,9,,2,14442,4.14999,0.1123,2318.329,326.954,24.9,
1445,1,SBT2050,2,9,,2,14500,4.15001,0.1099,2320.119,326.954,25,
1445,1,SBT2050,2,9,,2,14558,4.15005,0.10799,2321.873,326.954,24.9,
1445,1,SBT2050,2,9,,2,14616,4.15006,0.10534,2323.592,326.954,24.9,
1445,1,SBT2050,2,9,,2,14674,4.15008,0.10355,2325.277,326.954,24.9,
1445,1,SBT2050,2,9,,2,14732,4.15007,0.10177,2326.928,326.954,24.9,
1445,1,SBT2050,2,9,,2,14790,4.14994,0.10024,2328.559,326.954,24.9,
1445,1,SBT2050,2,9,,2,14848,4.15017,0.09821,2330.159,326.954,24.9,
1445,1,SBT2050,2,9,,2,14906,4.15002,0.09627,2331.729,326.954,24.9,
1445,1,SBT2050,2,9,,2,14964,4.149834,0.09495,2333.27,326.954,24.9,
1445,1,SBT2050,2,9,,2,15022,4.15022,0.09307,2334.783,326.954,24.9,
1445,1,SBT2050,2,9,,2,15080,4.14987,0.09146,2336.27,326.954,24.9,
1445,1,SBT2050,2,9,,2,15138,4.14993,0.08955,2337.728,326.954,24.9,
1445,1,SBT2050,2,9,,2,15196,4.15,0.08785,2339.156,326.954,24.9,
1445,1,SBT2050,2,9,,2,15254,4.15001,0.08651,2340.563,326.954,24.9,
1445,1,SBT2050,2,9,,2,15312,4.14992,0.0849,2341.943,326.954,24.9,
1445,1,SBT2050,2,9,,2,15370,4.14989,0.08404,2343.301,326.954,24.9,
1445,1,SBT2050,2,9,,2,15428,4.150096,0.08189,2344.639,326.954,24.9,
1445,1,SBT2050,2,9,,2,15486,4.14994,0.08016,2345.952,326.954,24.9,
1445,1,SBT2050,2,9,,2,15544,4.14974,0.07988,2347.233,326.954,24.9,
1445,1,SBT2050,2,9,,2,15602,4.149834,0.07861,2348.511,326.954,24.9,
1445,1,SBT2050,2,9,,2,15660,4.150144,0.07682,2349.765,326.954,24.9,
1445,1,SBT2050,2,9,,2,15718,4.14986,0.07564,2350.993,326.954,24.8,
1445,1,SBT2050,2,9,,2,15776,4.15,0.07442,2352.199,326.954,24.8,
1445,1,SBT2050,2,9,,2,15834,4.14973,0.07292,2353.386,326.954,24.9,
1445,1,SBT2050,2,9,,2,15892,4.150096,0.07242,2354.556,326.954,24.9,
1445,1,SBT2050,2,9,,2,15950,4.15017,0.06999,2355.709,326.954,24.9,
1445,1,SBT2050,2,9,,2,16008,4.14998,0.06998,2356.841,326.954,24.8,
1445,1,SBT2050,2,9,,2,16066,4.15,0.06849,2357.959,326.954,24.9,
1445,1,SBT2050,2,9,,2,16124,4.15012,0.06763,2359.05,326.954,24.9,
1445,1,SBT2050,2,9,,2,16182,4.15012,0.06625,2360.13,326.954,24.9,
1445,1,SBT2050,2,9,,2,16240,4.14997,0.06544,2361.192,326.954,24.9,
1445,1,SBT2050,2,9,,2,16298,4.150144,0.06467,2362.236,326.954,24.9,
1445,1,SBT2050,2,9,,2,16356,4.14992,0.06329,2363.265,326.954,24.9,
1445,1,SBT2050,2,9,,2,16414,4.15026,0.06157,2364.276,326.954,24.9,
1445,1,SBT2050,2,9,,2,16472,4.15022,0.06057,2365.262,326.954,24.9,
1445,1,SBT2050,2,9,,2,16530,4.15004,0.06068,2366.236,326.954,24.9,
1445,1,SBT2050,2,9,,2,16588,4.15004,0.05956,2367.203,326.954,24.9,
1445,1,SBT2050,2,9,,2,16646,4.14981,0.05913,2368.156,326.954,24.9,
1445,1,SBT2050,2,9,,2,16704,4.14992,0.05801,2369.098,326.954,24.9,
1445,1,SBT2050,2,9,,2,16762,4.15001,0.05696,2370.023,326.954,24.9,
1445,1,SBT2050,2,9,,2,16820,4.15032,0.05637,2370.937,326.954,24.9,
1445,1,SBT2050,2,9,,2,16878,4.14995,0.0556,2371.839,326.954,24.9,
1445,1,SBT2050,2,9,,2,16936,4.15019,0.05464,2372.725,326.954,24.8,
1445,1,SBT2050,2,9,,2,16994,4.14998,0.05422,2373.6,326.954,24.8,
1445,1,SBT2050,2,9,,2,17052,4.15008,0.05279,2374.457,326.954,24.8,
1445,1,SBT2050,2,9,,2,17110,4.15002,0.05241,2375.303,326.954,24.8,
1445,1,SBT2050,2,9,,2,17168,4.14992,0.0512,2376.142,326.954,24.8,
1445,1,SBT2050,2,9,,2,17226,4.150144,0.05014,2376.96,326.954,24.8,
1445,1,SBT2050,2,9,,2,17284,4.15005,0.04953,2377.768,326.954,24.9,
1445,1,SBT2050,2,9,,2,17342,4.15004,0.0492,2378.568,326.954,24.9,
1445,1,SBT2050,2,9,,2,17400,4.14988,0.04829,2379.35,326.954,24.8,
1445,1,SBT2050,2,9,,2,17458,4.15,0.04889,2380.131,326.954,24.8,
1445,1,SBT2050,2,9,,2,17516,4.14993,0.047611,2380.906,326.954,24.9,
1445,1,SBT2050,2,9,,2,17574,4.14976,0.047057,2381.67,326.954,24.9,
1445,1,SBT2050,2,9,,2,17632,4.150132,0.045905,2382.42,326.954,24.9,
1445,1,SBT2050,2,9,,2,17690,4.14964,0.046239,2383.17,326.954,24.8,
1445,1,SBT2050,2,9,,2,17748,4.15002,0.044947,2383.904,326.954,24.8,
1445,1,SBT2050,2,9,,2,17806,4.14989,0.044695,2384.626,326.954,24.8,
1445,1,SBT2050,2,9,,2,17864,4.149834,0.044322,2385.335,326.954,24.8,
1445,1,SBT2050,2,9,,2,17922,4.14993,0.043345,2386.039,326.954,24.9,
1445,1,SBT2050,2,9,,2,17980,4.150144,0.042692,2386.736,326.954,24.9,
1445,1,SBT2050,2,9,,2,18038,4.14995,0.042046,2387.422,326.954,24.8,
1445,1,SBT2050,2,9,,2,18096,4.15001,0.041989,2388.098,326.954,24.9,
1445,1,SBT2050,2,9,,2,18154,4.14988,0.041399,2388.766,326.954,24.9,
1445,1,SBT2050,2,9,,2,18212,4.150144,0.040615,2389.427,326.954,24.8,
1445,1,SBT2050,2,9,,2,18270,4.15016,0.039531,2390.077,326.954,24.8,
1445,1,SBT2050,2,9,,2,18328,4.15001,0.039417,2390.713,326.954,24.9,
1445,1,SBT2050,2,9,,2,18386,4.15005,0.039675,2391.345,326.954,24.8,
1445,1,SBT2050,2,9,,2,18444,4.15019,0.038565,2391.976,326.954,24.8,
1445,1,SBT2050,2,9,,2,18502,4.15,0.038079,2392.592,326.954,24.8,
1445,1,SBT2050,2,9,,2,18560,4.150406,0.037307,2393.207,326.954,24.9,
1445,1,SBT2050,2,9,,2,18618,4.14988,0.037027,2393.809,326.954,24.8,
1445,1,SBT2050,2,9,,2,18676,4.15005,0.036876,2394.409,326.954,24.8,
1445,1,SBT2050,2,9,,2,18734,4.15004,0.036662,2395,326.954,24.8,
1445,1,SBT2050,2,9,,2,18792,4.15022,0.036397,2395.585,326.954,24.8,
1445,1,SBT2050,2,9,,2,18850,4.149834,0.035593,2396.159,326.954,24.9,
1445,1,SBT2050,2,9,,2,18908,4.1502,0.035463,2396.731,326.954,24.8,
1445,1,SBT2050,2,9,,2,18966,4.14993,0.034368,2397.291,326.954,24.8,
1445,1,SBT2050,2,9,,2,19024,4.14993,0.034398,2397.843,326.954,24.8,
1445,1,SBT2050,2,9,,2,19082,4.15001,0.033815,2398.389,326.954,24.8,
1445,1,SBT2050,2,9,,2,19140,4.14999,0.033364,2398.932,326.954,24.8,
1445,1,SBT2050,2,9,,2,19198,4.14999,0.03299,2399.47,326.954,24.8,
1445,1,SBT2050,2,9,,2,19256,4.15005,0.032378,2399.998,326.954,24.8,
1445,1,SBT2050,2,9,,2,19314,4.14998,0.031779,2400.516,326.954,24.8,
1445,1,SBT2050,2,9,,2,19372,4.15008,0.03189,2401.035,326.954,24.8,
1445,1,SBT2050,2,9,,2,19430,4.14997,0.031688,2401.547,326.954,24.8,
1445,1,SBT2050,2,9,,2,19488,4.15006,0.03159,2402.054,326.954,24.8,
1445,1,SBT2050,2,9,,2,19546,4.149834,0.030783,2402.555,326.954,24.8,
1445,1,SBT2050,2,9,,2,19604,4.15002,0.030688,2403.051,326.954,24.8,
1445,1,SBT2050,2,9,,2,19662,4.15008,0.030193,2403.54,326.954,24.8,
1445,1,SBT2050,2,9,,2,19720,4.14999,0.029451,2404.023,326.954,24.8,
1445,1,SBT2050,2,9,,2,19778,4.14968,0.029523,2404.498,326.954,24.8,
1445,1,SBT2050,2,9,,2,19836,4.15005,0.029088,2404.969,326.954,24.8,
1445,1,SBT2050,2,9,,2,19894,4.15016,0.02891,2405.437,326.954,24.8,
1445,1,SBT2050,2,9,,2,19952,4.15,0.028322,2405.897,326.954,24.8,
1445,1,SBT2050,2,9,,2,20010,4.15017,0.027854,2406.35,326.954,24.8,
1445,1,SBT2050,2,9,,2,20068,4.14988,0.027712,2406.797,326.954,24.8,
1445,1,SBT2050,2,9,,2,20126,4.14998,0.027583,2407.243,326.954,24.8,
1445,1,SBT2050,2,9,,2,20184,4.15005,0.027536,2407.686,326.954,24.8,
1445,1,SBT2050,2,9,,2,20242,4.149846,0.027249,2408.13,326.954,24.8,
1445,1,SBT2050,2,9,,2,20300,4.150132,0.02701,2408.566,326.954,24.8,
1445,1,SBT2050,2,9,,2,20358,4.15004,0.026516,2408.997,326.954,24.8,
1445,1,SBT2050,2,9,,2,20416,4.14993,0.026062,2409.425,326.954,24.8,
1445,1,SBT2050,2,9,,2,20474,4.14991,0.025951,2409.845,326.954,24.8,
1445,1,SBT2050,2,9,,2,20532,4.14977,0.025748,2410.262,326.954,24.8,
1445,1,SBT2050,2,9,,2,20590,4.15018,0.025387,2410.674,326.954,24.8,
1445,1,SBT2050,2,9,,2,20648,4.149834,0.025227,2411.08,326.954,24.8,
1445,1,SBT2050,2,9,,2,20706,4.15018,0.025134,2411.487,326.954,24.8,
1445,1,SBT2050,2,9,,2,20764,4.15004,0.02431,2411.885,326.954,24.8,
1445,1,SBT2050,2,9,,2,20822,4.14998,0.024341,2412.278,326.954,24.8,
1445,1,SBT2050,2,9,,2,20880,4.14995,0.024292,2412.672,326.954,24.8,
1445,1,SBT2050,2,9,,2,20938,4.15002,0.024325,2413.064,326.954,24.8,
1445,1,SBT2050,2,9,,2,20996,4.15004,0.023883,2413.449,326.954,24.8,
1445,1,SBT2050,2,9,,2,21054,4.14989,0.023254,2413.828,326.954,24.8,
1445,1,SBT2050,2,9,,2,21112,4.14993,0.023449,2414.204,326.954,24.8,
1445,1,SBT2050,2,9,,2,21170,4.15004,0.023166,2414.583,326.954,24.8,
1445,1,SBT2050,2,9,,2,21228,4.1502,0.022543,2414.954,326.954,24.8,
1445,1,SBT2050,2,9,,2,21286,4.15017,0.022177,2415.317,326.954,24.8,
1445,1,SBT2050,2,9,,2,21344,4.15026,0.021831,2415.677,326.954,24.8,
1445,1,SBT2050,2,9,,2,21402,4.14995,0.022357,2416.038,326.954,24.8,
1445,1,SBT2050,2,9,,2,21460,4.14999,0.022421,2416.393,326.954,24.8,
1445,1,SBT2050,2,9,,2,21518,4.14998,0.022049,2416.749,326.954,24.7,
1445,1,SBT2050,2,9,,2,21576,4.15001,0.021761,2417.1,326.954,24.7,
1445,1,SBT2050,2,9,,2,21634,4.15012,0.021537,2417.451,326.954,24.8,
1445,1,SBT2050,2,9,,2,21692,4.14993,0.021801,2417.795,326.954,24.8,
1445,1,SBT2050,2,9,,2,21750,4.150108,0.021174,2418.138,326.954,24.8,
1445,1,SBT2050,2,9,,2,21808,4.149822,0.020793,2418.474,326.954,24.8,
1445,1,SBT2050,2,9,,2,21866,4.15,0.020908,2418.807,326.954,24.8,
1445,1,SBT2050,2,9,,2,21924,4.15,0.020522,2419.137,326.954,24.8,
1445,1,SBT2050,2,9,,2,21982,4.15,0.02005,2419.465,326.954,24.8,
1445,1,SBT2050,2,9,,2,22040,4.149822,0.020481,2419.79,326.954,24.9,
1445,1,SBT2050,2,9,,2,22098,4.150096,0.019607,2420.11,326.954,24.8,
1445,1,SBT2050,2,9,,2,22156,4.15002,0.019745,2420.426,326.954,24.8,
1445,1,SBT2050,2,9,,2,22214,4.14992,0.019884,2420.746,326.954,24.8,
1445,1,SBT2050,2,9,,2,22272,4.150132,0.019485,2421.063,326.954,24.8,
1445,1,SBT2050,2,9,,2,22330,4.149846,0.019239,2421.376,326.954,24.8,
1445,1,SBT2050,2,9,,2,22388,4.14989,0.019098,2421.685,326.954,24.8,
1445,1,SBT2050,2,9,,2,22446,4.15,0.01859,2421.99,326.954,24.8,
1445,1,SBT2050,2,9,,2,22504,4.14995,0.018709,2422.291,326.954,24.8,
1445,1,SBT2050,2,9,,2,22562,4.15016,0.018639,2422.59,326.954,24.8,
1445,1,SBT2050,2,9,,2,22620,4.15006,0.018142,2422.886,326.954,24.8,
1445,1,SBT2050,2,9,,2,22678,4.14991,0.01866,2423.184,326.954,24.8,
1445,1,SBT2050,2,9,,2,22736,4.15008,0.017891,2423.48,326.954,24.8,
1445,1,SBT2050,2,9,,2,22794,4.14986,0.017897,2423.768,326.954,24.8,
1445,1,SBT2050,2,9,,2,22852,4.15005,0.017806,2424.057,326.954,24.8,
1445,1,SBT2050,2,9,,2,22910,4.14986,0.017946,2424.344,326.954,24.8,
1445,1,SBT2050,2,9,,2,22968,4.14977,0.017563,2424.626,326.954,24.8,
1445,1,SBT2050,2,9,,2,23026,4.14997,0.016986,2424.901,326.954,24.8,
1445,1,SBT2050,2,9,,2,23084,4.14989,0.017326,2425.178,326.954,24.8,
1445,1,SBT2050,2,9,,2,23142,4.15019,0.016492,2425.451,326.954,24.8,
1445,1,SBT2050,2,9,,2,23200,4.14997,0.01652,2425.722,326.954,24.8,
1445,1,SBT2050,2,9,,2,23258,4.149834,0.016744,2425.988,326.954,24.8,
1445,1,SBT2050,2,9,,2,23316,4.14997,0.016629,2426.256,326.954,24.8,
1445,1,SBT2050,2,9,,2,23374,4.14989,0.016649,2426.522,326.954,24.8,
1445,1,SBT2050,2,9,,2,23432,4.150108,0.016131,2426.784,326.954,24.8,
1445,1,SBT2050,2,9,,2,23490,4.14976,0.0163,2427.044,326.954,24.8,
1445,1,SBT2050,2,9,,2,23548,4.150108,0.016059,2427.301,326.954,24.8,
1445,1,SBT2050,2,9,,2,23606,4.14975,0.016259,2427.562,326.954,24.8,
1445,1,SBT2050,2,9,,2,23664,4.15019,0.015438,2427.817,326.954,24.8,
1445,1,SBT2050,2,9,,2,23722,4.14997,0.015157,2428.069,326.954,24.8,
1445,1,SBT2050,2,9,,2,23780,4.149846,0.015231,2428.315,326.954,24.8,
1445,1,SBT2050,2,9,,2,23838,4.15007,0.015005,2428.558,326.954,24.8,
1445,1,SBT2050,2,9,,2,23896,4.149834,0.015185,2428.801,326.954,24.8,
1445,1,SBT2050,2,9,,2,23954,4.15017,0.014755,2429.042,326.954,24.8,
1445,1,SBT2050,2,9,,2,24012,4.14995,0.015386,2429.285,326.954,24.8,
1445,1,SBT2050,2,9,,2,24070,4.14988,0.015395,2429.533,326.954,24.8,
1445,1,SBT2050,2,9,,2,24128,4.15037,0.014618,2429.777,326.954,24.8,
1445,1,SBT2050,2,9,,2,24186,4.15006,0.014723,2430.015,326.954,24.8,
1445,1,SBT2050,2,9,,2,24244,4.149846,0.014784,2430.251,326.954,24.8,
1445,1,SBT2050,2,9,,2,24302,4.1497,0.01488,2430.489,326.954,24.8,
1445,1,SBT2050,2,9,,2,24360,4.15008,0.014524,2430.723,326.954,24.8,
1445,1,SBT2050,2,9,,2,24418,4.14989,0.014009,2430.955,326.954,24.8,
1445,1,SBT2050,2,9,,2,24476,4.14994,0.01408,2431.183,326.954,24.8,
1445,1,SBT2050,2,9,,2,24534,4.14994,0.013998,2431.41,326.954,24.8,
1445,1,SBT2050,2,9,,2,24592,4.14987,0.013675,2431.634,326.954,24.8,
1445,1,SBT2050,2,9,,2,24650,4.14975,0.013992,2431.859,326.954,24.8,
1445,1,SBT2050,2,9,,2,24708,4.150108,0.013929,2432.082,326.954,24.8,
1445,1,SBT2050,2,9,,2,24766,4.14989,0.01353,2432.306,326.954,24.8,
1445,1,SBT2050,2,9,,2,24824,4.14999,0.013597,2432.527,326.954,24.7,
1445,1,SBT2050,2,9,,2,24882,4.15018,0.01371,2432.746,326.954,24.7,
1445,1,SBT2050,2,9,,2,24940,4.15022,0.013213,2432.962,326.954,24.7,
1445,1,SBT2050,2,9,,2,24998,4.15019,0.013087,2433.175,326.954,24.7,
1445,1,SBT2050,2,9,,2,25056,4.14992,0.013184,2433.39,326.954,24.7,
1445,1,SBT2050,2,9,,2,25114,4.15006,0.01287,2433.601,326.954,24.8,
1445,1,SBT2050,2,9,,2,25172,4.15005,0.012892,2433.809,326.954,24.8,
1445,1,SBT2050,2,9,,2,25230,4.14994,0.01264,2434.017,326.954,24.8,
1445,1,SBT2050,2,9,,2,25288,4.15008,0.012237,2434.221,326.954,24.8,
1445,1,SBT2050,2,9,,2,25346,4.14995,0.013411,2434.421,326.954,24.8,
1445,1,SBT2050,2,9,,2,25404,4.149834,0.012613,2434.63,326.954,24.8,
1445,1,SBT2050,2,9,,2,25462,4.15002,0.01227,2434.833,326.954,24.8,
1445,1,SBT2050,2,9,,2,25520,4.150132,0.012007,2435.034,326.954,24.8,
1445,1,SBT2050,2,9,,2,25578,4.149822,0.01206,2435.224,326.954,24.8,
1445,1,SBT2050,2,9,,2,25636,4.15,0.011912,2435.414,326.954,24.8,
1445,1,SBT2050,2,9,,2,25694,4.14994,0.01149,2435.601,326.954,24.8,
1445,1,SBT2050,2,9,,2,25752,4.14995,0.011315,2435.789,326.954,24.8,
1445,1,SBT2050,2,9,,2,25810,4.15012,0.011367,2435.973,326.954,24.8,
1445,1,SBT2050,2,9,,2,25868,4.15012,0.011379,2436.157,326.954,24.8,
1445,1,SBT2050,2,9,,2,25926,4.15017,0.011231,2436.347,326.954,24.8,
1445,1,SBT2050,2,9,,2,25984,4.15026,0.010983,2436.528,326.954,24.8,
1445,1,SBT2050,2,9,,2,26042,4.14981,0.011848,2436.716,326.954,24.8,
1445,1,SBT2050,2,9,,2,26100,4.150132,0.010992,2436.903,326.954,24.8,
1445,1,SBT2050,2,9,,2,26158,4.15002,0.011024,2437.085,326.954,24.8,
1445,1,SBT2050,2,9,,2,26216,4.14998,0.011009,2437.265,326.954,24.8,
1445,1,SBT2050,2,9,,2,26274,4.150132,0.01101,2437.446,326.954,24.8,
1445,1,SBT2050,2,9,,2,26332,4.15016,0.010943,2437.624,326.954,24.8,
1445,1,SBT2050,2,9,,2,26390,4.15016,0.011251,2437.806,326.954,24.8,
1445,1,SBT2050,2,9,,2,26448,4.149846,0.011255,2437.987,326.954,24.8,
1445,1,SBT2050,2,9,,2,26506,4.14994,0.011158,2438.163,326.954,24.7,
1445,1,SBT2050,2,9,,2,26564,4.15012,0.010326,2438.336,326.954,24.8,
1445,1,SBT2050,2,9,,2,26622,4.14979,0.011335,2438.511,326.954,24.8,
1445,1,SBT2050,2,9,,2,26680,4.14991,0.010836,2438.685,326.954,24.8,
1445,1,SBT2050,2,9,,2,26738,4.15,0.010532,2438.86,326.954,24.7,
1445,1,SBT2050,2,9,,2,26796,4.15,0.010483,2439.031,326.954,24.8,
1445,1,SBT2050,2,9,,2,26854,4.150144,0.010689,2439.204,326.954,24.7,
1445,1,SBT2050,2,9,,3,26911,4.14849,0,2439.287,326.954,24.8,
1445,1,SBT2050,2,9,,3,26969,4.14764,0,2439.287,326.954,24.8,
1445,1,SBT2050,2,9,,3,27027,4.14717,0,2439.287,326.954,24.8,
1445,1,SBT2050,2,9,,3,27085,4.146988,0,2439.287,326.954,24.8,
1445,1,SBT2050,2,9,,3,27143,4.146862,0,2439.287,326.954,24.8,
1445,1,SBT2050,2,9,,3,27201,4.1466,0,2439.287,326.954,24.7,
1445,1,SBT2050,2,9,,3,27259,4.14618,0,2439.287,326.954,24.8,
1445,1,SBT2050,2,9,,3,27317,4.1462,0,2439.287,326.954,24.8,
1445,1,SBT2050,2,9,,3,27375,4.14623,0,2439.287,326.954,24.8,
1445,1,SBT2050,2,9,,3,27433,4.14617,0,2439.287,326.954,24.8,
1445,1,SBT2050,2,9,,3,27491,4.146,0,2439.287,326.954,24.8,
1445,1,SBT2050,2,9,,3,27549,4.14563,0,2439.287,326.954,24.8,
1445,1,SBT2050,2,9,,3,27607,4.14564,0,2439.287,326.954,24.8,
1445,1,SBT2050,2,9,,3,27665,4.14545,0,2439.287,326.954,24.8,
1445,1,SBT2050,2,9,,3,27723,4.14559,0,2439.287,326.954,24.8,
1445,1,SBT2050,2,9,,3,27781,4.14556,0,2439.287,326.954,24.8,
1445,1,SBT2050,2,9,,3,27839,4.14553,0,2439.287,326.954,24.8,
1445,1,SBT2050,2,9,,3,27897,4.14528,0,2439.287,326.954,24.8,
1445,1,SBT2050,2,9,,3,27955,4.14508,0,2439.287,326.954,24.8,
1445,1,SBT2050,2,9,,3,28013,4.144964,0,2439.287,326.954,24.8,
1445,1,SBT2050,2,9,,3,28071,4.145026,0,2439.287,326.954,24.8,
1445,1,SBT2050,2,9,,3,28129,4.14497,0,2439.287,326.954,24.8,
1445,1,SBT2050,2,9,,3,28187,4.1449,0,2439.287,326.954,24.8,
1445,1,SBT2050,2,9,,3,28245,4.14465,0,2439.287,326.954,24.8,
1445,1,SBT2050,2,9,,3,28303,4.14441,0,2439.287,326.954,24.8,
1445,1,SBT2050,2,9,,3,28361,4.14464,0,2439.287,326.954,24.7,
1445,1,SBT2050,2,9,,3,28419,4.14438,0,2439.287,326.954,24.7,
1445,1,SBT2050,2,9,,3,28477,4.14434,0,2439.287,326.954,24.7,
1445,1,SBT2050,2,9,,3,28535,4.14437,0,2439.287,326.954,24.7,
1445,1,SBT2050,2,9,,3,28593,4.1442,0,2439.287,326.954,24.7,
1445,1,SBT2050,2,9,,3,28651,4.14386,0,2439.287,326.954,24.7,
1445,1,SBT2050,2,9,,4,28708,3.809608,-2.9364,2439.287,347.926,25,
1445,1,SBT2050,2,9,,4,28766,3.7576,-2.9363,2439.287,395.228,25.9,
1445,1,SBT2050,2,9,,4,28824,3.74339,-2.9361,2439.287,442.53,26.7,
1445,1,SBT2050,2,9,,4,28882,3.73403,-2.9357,2439.287,489.831,27.3,
1445,1,SBT2050,2,9,,4,28940,3.724592,-2.936,2439.287,537.133,27.8,
1445,1,SBT2050,2,9,,4,28998,3.71233,-2.9362,2439.287,584.434,28.2,
1445,1,SBT2050,2,9,,4,29056,3.69792,-2.9354,2439.287,631.736,28.4,
1445,1,SBT2050,2,9,,4,29114,3.68141,-2.9361,2439.287,679.038,28.6,
1445,1,SBT2050,2,9,,4,29172,3.663786,-2.9357,2439.287,726.339,28.7,
1445,1,SBT2050,2,9,,4,29230,3.64567,-2.9364,2439.287,773.641,28.8,
1445,1,SBT2050,2,9,,4,29288,3.62726,-2.9361,2439.287,820.943,28.9,
1445,1,SBT2050,2,9,,4,29346,3.60805,-2.9361,2439.287,868.244,29,
1445,1,SBT2050,2,9,,4,29404,3.58902,-2.9358,2439.287,915.546,29.1,
1445,1,SBT2050,2,9,,4,29462,3.570042,-2.9361,2439.287,962.847,29.1,
1445,1,SBT2050,2,9,,4,29520,3.55053,-2.9359,2439.287,1010.149,29.1,
1445,1,SBT2050,2,9,,4,29578,3.53085,-2.9362,2439.287,1057.451,29.2,
1445,1,SBT2050,2,9,,4,29636,3.5105,-2.9363,2439.287,1104.752,29.2,
1445,1,SBT2050,2,9,,4,29694,3.48962,-2.9361,2439.287,1152.054,29.3,
1445,1,SBT2050,2,9,,4,29752,3.468726,-2.9358,2439.287,1199.355,29.4,
1445,1,SBT2050,2,9,,4,29810,3.448254,-2.9358,2439.287,1246.657,29.4,
1445,1,SBT2050,2,9,,4,29868,3.427072,-2.936,2439.287,1293.958,29.5,
1445,1,SBT2050,2,9,,4,29926,3.40714,-2.9358,2439.287,1341.26,29.5,
1445,1,SBT2050,2,9,,4,29984,3.38712,-2.9362,2439.287,1388.562,29.6,
1445,1,SBT2050,2,9,,4,30042,3.36687,-2.9357,2439.287,1435.863,29.7,
1445,1,SBT2050,2,9,,4,30100,3.34787,-2.9356,2439.287,1483.165,29.8,
1445,1,SBT2050,2,9,,4,30158,3.32789,-2.9359,2439.287,1530.467,29.8,
1445,1,SBT2050,2,9,,4,30216,3.3087,-2.9361,2439.287,1577.768,29.9,
1445,1,SBT2050,2,9,,4,30274,3.28928,-2.936,2439.287,1625.07,30,
1445,1,SBT2050,2,9,,4,30332,3.26947,-2.9359,2439.287,1672.371,30.1,
1445,1,SBT2050,2,9,,4,30390,3.249349,-2.9358,2439.287,1719.673,30.3,
1445,1,SBT2050,2,9,,4,30448,3.228192,-2.9363,2439.287,1766.975,30.4,
1445,1,SBT2050,2,9,,4,30506,3.20641,-2.936,2439.287,1814.276,30.5,
1445,1,SBT2050,2,9,,4,30564,3.18349,-2.936,2439.287,1861.578,30.6,
1445,1,SBT2050,2,9,,4,30622,3.15887,-2.936,2439.287,1908.879,30.8,
1445,1,SBT2050,2,9,,4,30680,3.132433,-2.9358,2439.287,1956.181,31,
1445,1,SBT2050,2,9,,4,30738,3.10383,-2.9358,2439.287,2003.483,31.2,
1445,1,SBT2050,2,9,,4,30796,3.07242,-2.936,2439.287,2050.784,31.5,
1445,1,SBT2050,2,9,,4,30854,3.03748,-2.936,2439.287,2098.086,31.7,
1445,1,SBT2050,2,9,,4,30912,2.997871,-2.9358,2439.287,2145.387,32,
1445,1,SBT2050,2,9,,4,30970,2.95267,-2.9361,2439.287,2192.689,32.3,
1445,1,SBT2050,2,9,,4,31028,2.90378,-2.9359,2439.287,2239.991,32.7,
1445,1,SBT2050,2,9,,4,31086,2.85554,-2.936,2439.287,2287.292,33.2,
1445,1,SBT2050,2,9,,4,31144,2.79266,-2.9358,2439.287,2334.593,33.7,
1445,1,SBT2050,2,9,,4,31202,2.70001,-2.936,2439.287,2381.895,34.3,
1445,1,SBT2050,2,9,,4,31260,2.555346,-2.9363,2439.287,2429.197,35.1,
1445,1,SBT2050,2,9,,4,31318,2.499736,-2.28,2439.287,2471.995,35.9,
1445,1,SBT2050,2,9,,4,31376,2.49969,-1.7379,2439.287,2504.217,36,
1445,1,SBT2050,2,9,,4,31434,2.499736,-1.2846,2439.287,2528.456,35.6,
1445,1,SBT2050,2,9,,4,31492,2.49963,-0.9118,2439.287,2546.043,34.8,
1445,1,SBT2050,2,9,,4,31550,2.49966,-0.6287,2439.287,2558.314,33.8,
1445,1,SBT2050,2,9,,4,31608,2.49959,-0.44685,2439.287,2566.877,32.8,
1445,1,SBT2050,2,9,,4,31666,2.49982,-0.33484,2439.287,2573.084,31.7,
1445,1,SBT2050,2,9,,4,31724,2.49977,-0.27882,2439.287,2577.975,30.8,
1445,1,SBT2050,2,9,,4,31782,2.49987,-0.25032,2439.287,2582.213,29.9,
1445,1,SBT2050,2,9,,4,31840,2.49993,-0.23255,2439.287,2586.091,29.2,
1445,1,SBT2050,2,9,,4,31898,2.49995,-0.22031,2439.287,2589.736,28.6,
1445,1,SBT2050,2,9,,4,31956,2.49991,-0.2107,2439.287,2593.208,28.2,
1445,1,SBT2050,2,9,,4,32014,2.50007,-0.20296,2439.287,2596.54,27.8,
1445,1,SBT2050,2,9,,4,32072,2.49995,-0.19624,2439.287,2599.756,27.5,
1445,1,SBT2050,2,9,,4,32130,2.5,-0.19027,2439.287,2602.869,27.2,
1445,1,SBT2050,2,9,,4,32188,2.49997,-0.18522,2439.287,2605.893,27,
1445,1,SBT2050,2,9,,4,32246,2.500058,-0.18038,2439.287,2608.836,26.8,
1445,1,SBT2050,2,9,,4,32304,2.50003,-0.17592,2439.287,2611.706,26.6,
1445,1,SBT2050,2,9,,4,32362,2.499903,-0.17186,2439.287,2614.506,26.5,
1445,1,SBT2050,2,9,,4,32420,2.49991,-0.16798,2439.287,2617.242,26.4,
1445,1,SBT2050,2,9,,4,32478,2.49994,-0.16422,2439.287,2619.919,26.3,
1445,1,SBT2050,2,9,,4,32536,2.49983,-0.16094,2439.287,2622.539,26.3,
1445,1,SBT2050,2,9,,4,32594,2.49999,-0.15775,2439.287,2625.106,26.2,
1445,1,SBT2050,2,9,,4,32652,2.50011,-0.15454,2439.287,2627.621,26.1,
1445,1,SBT2050,2,9,,4,32710,2.499903,-0.15154,2439.287,2630.088,26,
1445,1,SBT2050,2,9,,4,32768,2.49995,-0.14875,2439.287,2632.507,26,
1445,1,SBT2050,2,9,,4,32826,2.49995,-0.14571,2439.287,2634.881,26,
1445,1,SBT2050,2,9,,4,32884,2.50009,-0.14342,2439.287,2637.211,26,
1445,1,SBT2050,2,9,,4,32942,2.49971,-0.14051,2439.287,2639.499,25.9,
1445,1,SBT2050,2,9,,4,33000,2.49994,-0.13824,2439.287,2641.746,25.9,
1445,1,SBT2050,2,9,,4,33058,2.50007,-0.13577,2439.287,2643.953,25.8,
1445,1,SBT2050,2,9,,4,33116,2.49981,-0.13314,2439.287,2646.118,25.8,
1445,1,SBT2050,2,9,,4,33174,2.50009,-0.13085,2439.287,2648.245,25.8,
1445,1,SBT2050,2,9,,4,33232,2.5,-0.12856,2439.287,2650.335,25.8,
1445,1,SBT2050,2,9,,4,33290,2.500046,-0.12645,2439.287,2652.388,25.8,
1445,1,SBT2050,2,9,,4,33348,2.500046,-0.12416,2439.287,2654.405,25.7,
1445,1,SBT2050,2,9,,4,33406,2.50001,-0.12195,2439.287,2656.387,25.7,
1445,1,SBT2050,2,9,,4,33464,2.49994,-0.11986,2439.287,2658.335,25.7,
1445,1,SBT2050,2,9,,4,33522,2.49994,-0.11778,2439.287,2660.249,25.7,
1445,1,SBT2050,2,9,,4,33580,2.50001,-0.11581,2439.287,2662.131,25.7,
1445,1,SBT2050,2,9,,4,33638,2.49986,-0.11375,2439.287,2663.98,25.7,
1445,1,SBT2050,2,9,,4,33696,2.499903,-0.1119,2439.287,2665.798,25.6,
1445,1,SBT2050,2,9,,4,33754,2.5,-0.11,2439.287,2667.585,25.6,
1445,1,SBT2050,2,9,,4,33812,2.49996,-0.10821,2439.287,2669.343,25.6,
1445,1,SBT2050,2,9,,4,33870,2.50002,-0.10653,2439.287,2671.072,25.6,
1445,1,SBT2050,2,9,,4,33928,2.49995,-0.10469,2439.287,2672.774,25.6,
1445,1,SBT2050,2,9,,4,33986,2.500046,-0.10301,2439.287,2674.448,25.5,
1445,1,SBT2050,2,9,,4,34044,2.500058,-0.10133,2439.287,2676.096,25.5,
1445,1,SBT2050,2,9,,4,34102,2.50002,-0.09985,2439.287,2677.717,25.6,
1445,1,SBT2050,2,9,,4,34160,2.50003,-0.09811,2439.287,2679.312,25.5,
1445,1,SBT2050,2,9,,4,34218,2.50001,-0.0965,2439.287,2680.88,25.5,
1445,1,SBT2050,2,9,,4,34276,2.50007,-0.095,2439.287,2682.422,25.5,
1445,1,SBT2050,2,9,,4,34334,2.49991,-0.09327,2439.287,2683.939,25.5,
1445,1,SBT2050,2,9,,4,34392,2.50001,-0.09191,2439.287,2685.432,25.5,
1445,1,SBT2050,2,9,,4,34450,2.49991,-0.09044,2439.287,2686.9,25.5,
1445,1,SBT2050,2,9,,4,34508,2.49993,-0.08901,2439.287,2688.346,25.5,
1445,1,SBT2050,2,9,,4,34566,2.49987,-0.08765,2439.287,2689.767,25.5,
1445,1,SBT2050,2,9,,4,34624,2.5,-0.08618,2439.287,2691.167,25.5,
1445,1,SBT2050,2,9,,4,34682,2.50009,-0.0849,2439.287,2692.544,25.5,
1445,1,SBT2050,2,9,,4,34740,2.49991,-0.08345,2439.287,2693.9,25.5,
1445,1,SBT2050,2,9,,4,34798,2.500058,-0.08208,2439.287,2695.234,25.4,
1445,1,SBT2050,2,9,,4,34856,2.499903,-0.08069,2439.287,2696.547,25.4,
1445,1,SBT2050,2,9,,4,34914,2.49995,-0.07952,2439.287,2697.839,25.5,
1445,1,SBT2050,2,9,,4,34972,2.49995,-0.07826,2439.287,2699.112,25.4,
1445,1,SBT2050,2,9,,4,35030,2.49996,-0.07714,2439.287,2700.364,25.4,
1445,1,SBT2050,2,9,,4,35088,2.50008,-0.07585,2439.287,2701.596,25.3,
1445,1,SBT2050,2,9,,4,35146,2.500058,-0.07468,2439.287,2702.808,25.3,
1445,1,SBT2050,2,9,,4,35204,2.49997,-0.07345,2439.287,2704,25.4,
1445,1,SBT2050,2,9,,4,35262,2.50001,-0.07221,2439.287,2705.173,25.3,
1445,1,SBT2050,2,9,,4,35320,2.49999,-0.07092,2439.287,2706.325,25.4,
1445,1,SBT2050,2,9,,4,35378,2.500058,-0.06978,2439.287,2707.458,25.3,
1445,1,SBT2050,2,9,,4,35436,2.49995,-0.06854,2439.287,2708.573,25.3,
1445,1,SBT2050,2,9,,4,35494,2.499891,-0.06751,2439.287,2709.669,25.3,
1445,1,SBT2050,2,9,,4,35552,2.49994,-0.06628,2439.287,2710.746,25.3,
1445,1,SBT2050,2,9,,4,35610,2.49996,-0.0651,2439.287,2711.806,25.3,
1445,1,SBT2050,2,9,,4,35668,2.5,-0.06406,2439.287,2712.846,25.3,
1445,1,SBT2050,2,9,,4,35726,2.50003,-0.06297,2439.287,2713.869,25.3,
1445,1,SBT2050,2,9,,4,35784,2.49993,-0.06171,2439.287,2714.875,25.3,
1445,1,SBT2050,2,9,,4,35842,2.49993,-0.06064,2439.287,2715.862,25.2,
1445,1,SBT2050,2,9,,4,35900,2.5,-0.05973,2439.287,2716.833,25.3,
1445,1,SBT2050,2,9,,4,35958,2.49997,-0.05861,2439.287,2717.786,25.2,
1445,1,SBT2050,2,9,,4,36016,2.50018,-0.05765,2439.287,2718.723,25.3,
1445,1,SBT2050,2,9,,4,36074,2.50014,-0.05668,2439.287,2719.643,25.3,
1445,1,SBT2050,2,9,,4,36132,2.50007,-0.05559,2439.287,2720.547,25.2,
1445,1,SBT2050,2,9,,4,36190,2.49995,-0.05446,2439.287,2721.434,25.2,
1445,1,SBT2050,2,9,,4,36248,2.50012,-0.05354,2439.287,2722.306,25.2,
1445,1,SBT2050,2,9,,4,36306,2.49987,-0.05249,2439.287,2723.161,25.2,
1445,1,SBT2050,2,9,,4,36364,2.49999,-0.05155,2439.287,2724,25.2,
1445,1,SBT2050,2,9,,4,36422,2.49999,-0.05054,2439.287,2724.823,25.2,
1445,1,SBT2050,2,9,,4,36480,2.49996,-0.04952,2439.287,2725.629,25.2,
1445,1,SBT2050,2,9,,4,36538,2.49996,-0.04854,2439.287,2726.42,25.2,
1445,1,SBT2050,2,9,,4,36596,2.499903,-0.047538,2439.287,2727.195,25.2,
1445,1,SBT2050,2,9,,4,36654,2.50001,-0.04659,2439.287,2727.954,25.2,
1445,1,SBT2050,2,9,,4,36712,2.49994,-0.045778,2439.287,2728.698,25.2,
1445,1,SBT2050,2,9,,4,36770,2.500058,-0.044918,2439.287,2729.428,25.2,
1445,1,SBT2050,2,9,,4,36828,2.50007,-0.04406,2439.287,2730.144,25.1,
1445,1,SBT2050,2,9,,4,36886,2.5,-0.043185,2439.287,2730.846,25.1,
1445,1,SBT2050,2,9,,4,36944,2.49997,-0.042308,2439.287,2731.535,25.1,
1445,1,SBT2050,2,9,,4,37002,2.49993,-0.041383,2439.287,2732.21,25.1,
1445,1,SBT2050,2,9,,4,37060,2.49994,-0.040695,2439.287,2732.872,25.1,
1445,1,SBT2050,2,9,,4,37118,2.49988,-0.039762,2439.287,2733.52,25.1,
1445,1,SBT2050,2,9,,4,37176,2.50012,-0.039039,2439.287,2734.155,25.1,
1445,1,SBT2050,2,9,,4,37234,2.50001,-0.038219,2439.287,2734.778,25.1,
1445,1,SBT2050,2,9,,4,37292,2.49991,-0.037505,2439.287,2735.389,25.1,
1445,1,SBT2050,2,9,,4,37350,2.50011,-0.036914,2439.287,2735.988,25.1,
1445,1,SBT2050,2,9,,4,37408,2.49994,-0.036132,2439.287,2736.576,25.1,
1445,1,SBT2050,2,9,,4,37466,2.499903,-0.035483,2439.287,2737.153,25.1,
1445,1,SBT2050,2,9,,4,37524,2.50007,-0.034775,2439.287,2737.719,25.1,
1445,1,SBT2050,2,9,,4,37582,2.50009,-0.034202,2439.287,2738.274,25,
1445,1,SBT2050,2,9,,4,37640,2.50003,-0.033497,2439.287,2738.818,25.1,
1445,1,SBT2050,2,9,,4,37698,2.50001,-0.032895,2439.287,2739.351,25,
1445,1,SBT2050,2,9,,4,37756,2.49999,-0.032342,2439.287,2739.875,25.1,
1445,1,SBT2050,2,9,,4,37814,2.49987,-0.031567,2439.287,2740.389,25.1,
1445,1,SBT2050,2,9,,4,37872,2.500058,-0.03114,2439.287,2740.895,25,
1445,1,SBT2050,2,9,,4,37930,2.50001,-0.030596,2439.287,2741.392,25,
1445,1,SBT2050,2,9,,4,37988,2.50001,-0.030023,2439.287,2741.881,25,
1445,1,SBT2050,2,9,,4,38046,2.49999,-0.029548,2439.287,2742.36,25,
1445,1,SBT2050,2,9,,4,38104,2.499903,-0.028949,2439.287,2742.832,25,
1445,1,SBT2050,2,9,,4,38162,2.50003,-0.028523,2439.287,2743.296,25,
1445,1,SBT2050,2,9,,4,38220,2.50009,-0.028067,2439.287,2743.751,25,
1445,1,SBT2050,2,9,,4,38278,2.49991,-0.027462,2439.287,2744.199,25,
1445,1,SBT2050,2,9,,4,38336,2.50002,-0.027031,2439.287,2744.639,25,
1445,1,SBT2050,2,9,,4,38394,2.50002,-0.026698,2439.287,2745.072,25,
1445,1,SBT2050,2,9,,4,38452,2.5,-0.026315,2439.287,2745.497,25,
1445,1,SBT2050,2,9,,4,38510,2.49994,-0.025863,2439.287,2745.917,25,
1445,1,SBT2050,2,9,,4,38568,2.49988,-0.025449,2439.287,2746.329,25,
1445,1,SBT2050,2,9,,4,38626,2.49984,-0.025004,2439.287,2746.735,24.9,
1445,1,SBT2050,2,9,,4,38684,2.50009,-0.024586,2439.287,2747.135,24.9,
1445,1,SBT2050,2,9,,4,38742,2.49997,-0.024187,2439.287,2747.528,24.9,
1445,1,SBT2050,2,9,,4,38800,2.499903,-0.023752,2439.287,2747.916,24.9,
1445,1,SBT2050,2,9,,4,38858,2.49996,-0.023445,2439.287,2748.297,24.9,
1445,1,SBT2050,2,9,,4,38916,2.50007,-0.023135,2439.287,2748.672,24.9,
1445,1,SBT2050,2,9,,4,38974,2.500046,-0.022769,2439.287,2749.041,25,
1445,1,SBT2050,2,9,,4,39032,2.49991,-0.022379,2439.287,2749.404,24.9,
1445,1,SBT2050,2,9,,4,39090,2.49995,-0.02191,2439.287,2749.762,24.9,
1445,1,SBT2050,2,9,,4,39148,2.49995,-0.021558,2439.287,2750.114,24.9,
1445,1,SBT2050,2,9,,4,39206,2.50009,-0.021378,2439.287,2750.46,24.9,
1445,1,SBT2050,2,9,,4,39264,2.49999,-0.021037,2439.287,2750.801,24.9,
1445,1,SBT2050,2,9,,4,39322,2.5,-0.020657,2439.287,2751.137,24.9,
1445,1,SBT2050,2,9,,4,39380,2.50014,-0.020397,2439.287,2751.468,24.9,
1445,1,SBT2050,2,9,,4,39438,2.499891,-0.019995,2439.287,2751.793,24.9,
1445,1,SBT2050,2,9,,4,39496,2.50013,-0.019829,2439.287,2752.113,24.9,
1445,1,SBT2050,2,9,,4,39554,2.50007,-0.019427,2439.287,2752.429,24.9,
1445,1,SBT2050,2,9,,4,39612,2.49984,-0.019012,2439.287,2752.74,25,
1445,1,SBT2050,2,9,,4,39670,2.49997,-0.018715,2439.287,2753.045,24.9,
1445,1,SBT2050,2,9,,4,39728,2.50001,-0.018464,2439.287,2753.345,24.9,
1445,1,SBT2050,2,9,,4,39786,2.49993,-0.018161,2439.287,2753.641,24.9,
1445,1,SBT2050,2,9,,4,39844,2.49996,-0.018007,2439.287,2753.932,24.9,
1445,1,SBT2050,2,9,,4,39902,2.500046,-0.01769,2439.287,2754.217,24.9,
1445,1,SBT2050,2,9,,4,39960,2.50007,-0.017273,2439.287,2754.498,24.9,
1445,1,SBT2050,2,9,,4,40018,2.499903,-0.016666,2439.287,2754.773,24.9,
1445,1,SBT2050,2,9,,4,40076,2.49996,-0.016681,2439.287,2755.043,24.9,
1445,1,SBT2050,2,9,,4,40134,2.49999,-0.016304,2439.287,2755.308,24.9,
1445,1,SBT2050,2,9,,4,40192,2.50002,-0.01593,2439.287,2755.569,24.9,
1445,1,SBT2050,2,9,,4,40250,2.500046,-0.015653,2439.287,2755.824,24.9,
1445,1,SBT2050,2,9,,4,40308,2.50001,-0.015415,2439.287,2756.075,24.9,
1445,1,SBT2050,2,9,,4,40366,2.50015,-0.015179,2439.287,2756.32,24.9,
1445,1,SBT2050,2,9,,4,40424,2.50017,-0.014885,2439.287,2756.561,24.9,
1445,1,SBT2050,2,9,,4,40482,2.50002,-0.014497,2439.287,2756.798,24.9,
1445,1,SBT2050,2,9,,4,40540,2.500058,-0.014303,2439.287,2757.029,24.9,
1445,1,SBT2050,2,9,,4,40598,2.499891,-0.014025,2439.287,2757.256,24.9,
1445,1,SBT2050,2,9,,4,40656,2.50019,-0.013781,2439.287,2757.479,24.9,
1445,1,SBT2050,2,9,,4,40714,2.49999,-0.01344,2439.287,2757.698,24.9,
1445,1,SBT2050,2,9,,4,40772,2.50001,-0.013371,2439.287,2757.913,24.9,
1445,1,SBT2050,2,9,,4,40830,2.500058,-0.012893,2439.287,2758.125,24.9,
1445,1,SBT2050,2,9,,4,40888,2.50009,-0.012774,2439.287,2758.333,24.9,
1445,1,SBT2050,2,9,,4,40946,2.49999,-0.012614,2439.287,2758.537,24.9,
1445,1,SBT2050,2,9,,4,41004,2.50019,-0.012332,2439.287,2758.738,24.9,
1445,1,SBT2050,2,9,,4,41062,2.50002,-0.012137,2439.287,2758.936,24.9,
1445,1,SBT2050,2,9,,4,41120,2.50002,-0.011942,2439.287,2759.129,24.8,
1445,1,SBT2050,2,9,,4,41178,2.50003,-0.011756,2439.287,2759.32,24.8,
1445,1,SBT2050,2,9,,4,41236,2.50013,-0.011605,2439.287,2759.508,24.8,
1445,1,SBT2050,2,9,,4,41294,2.49999,-0.011407,2439.287,2759.693,24.8,
1445,1,SBT2050,2,9,,4,41352,2.500046,-0.011156,2439.287,2759.875,24.9,
1445,1,SBT2050,2,9,,4,41410,2.49995,-0.011005,2439.287,2760.054,24.8,
1445,1,SBT2050,2,9,,4,41468,2.50014,-0.011046,2439.287,2760.23,24.8,
1445,1,SBT2050,2,9,,4,41526,2.49996,-0.010592,2439.287,2760.404,24.8,
1445,1,SBT2050,2,9,,4,41584,2.49991,-0.010408,2439.287,2760.576,24.8,
1445,1,SBT2050,2,9,,4,41642,2.50008,-0.010434,2439.287,2760.744,24.9,
1445,1,SBT2050,2,9,,4,41700,2.5,-0.010394,2439.287,2760.91,24.9,
1445,1,SBT2050,2,9,,5,41757,2.527132,0,2439.287,2760.991,24.9,
1445,1,SBT2050,2,9,,5,41815,2.56676,0,2439.287,2760.991,24.8,
1445,1,SBT2050,2,9,,5,41873,2.599642,0,2439.287,2760.991,24.8,
1445,1,SBT2050,2,9,,5,41931,2.62809,0,2439.287,2760.991,24.8,
1445,1,SBT2050,2,9,,5,41989,2.65241,0,2439.287,2760.991,24.8,
1445,1,SBT2050,2,9,,5,42047,2.674013,0,2439.287,2760.991,24.8,
1445,1,SBT2050,2,9,,5,42105,2.692268,0,2439.287,2760.991,24.8,
1445,1,SBT2050,2,9,,5,42163,2.70807,0,2439.287,2760.991,24.8,
1445,1,SBT2050,2,9,,5,42221,2.72237,0,2439.287,2760.991,24.9,
1445,1,SBT2050,2,9,,5,42279,2.73487,0,2439.287,2760.991,24.8,
1445,1,SBT2050,2,9,,5,42337,2.74585,0,2439.287,2760.991,24.8,
1445,1,SBT2050,2,9,,5,42395,2.7558,0,2439.287,2760.991,24.8,
1445,1,SBT2050,2,9,,5,42453,2.76438,0,2439.287,2760.991,24.8,
1445,1,SBT2050,2,9,,5,42511,2.7721,0,2439.287,2760.991,24.8,
1445,1,SBT2050,2,9,,5,42569,2.77911,0,2439.287,2760.991,24.8,
1445,1,SBT2050,2,9,,5,42627,2.78523,0,2439.287,2760.991,24.8,
1445,1,SBT2050,2,9,,5,42685,2.79108,0,2439.287,2760.991,24.8,
1445,1,SBT2050,2,9,,5,42743,2.79625,0,2439.287,2760.991,24.8,
1445,1,SBT2050,2,9,,5,42801,2.801229,0,2439.287,2760.991,24.8,
1445,1,SBT2050,2,9,,5,42859,2.80561,0,2439.287,2760.991,24.8,
1445,1,SBT2050,2,9,,5,42917,2.80959,0,2439.287,2760.991,24.8,
1445,1,SBT2050,2,9,,5,42975,2.81332,0,2439.287,2760.991,24.8,
1445,1,SBT2050,2,9,,5,43033,2.81696,0,2439.287,2760.991,24.8,
1445,1,SBT2050,2,9,,5,43091,2.820119,0,2439.287,2760.991,24.7,
1445,1,SBT2050,2,9,,5,43149,2.82316,0,2439.287,2760.991,24.8,
1445,1,SBT2050,2,9,,5,43207,2.82626,0,2439.287,2760.991,24.8,
1445,1,SBT2050,2,9,,5,43265,2.82916,0,2439.287,2760.991,24.8,
1445,1,SBT2050,2,9,,5,43323,2.83176,0,2439.287,2760.991,24.8,
1445,1,SBT2050,2,9,,5,43381,2.83425,0,2439.287,2760.991,24.8,
1445,1,SBT2050,2,9,,5,43439,2.83665,0,2439.287,2760.991,24.8,
1445,1,SBT2050,2,9,,5,43497,2.83913,0,2439.287,2760.991,24.8,
1445,1,SBT2050,2,9,,5,43528.891,2.84047,-9.8E-05,2439.287,2760.991,,