File: 2C/Test1551.csv
Request Year:,2018,,,,,,,,,,,,
Test:,1551,,,,,,,,,,,,
Test Description:,,,,,,,,,,,,,
TestRegime Name:,Aging_Performance,,,,,,,,,,,,
TestRegime Suffix:,SHP_LC,,,,,,,,,,,,
TestRegime CellSize:,18650,,,,,,,,,,,,
TestRegime Version:,1,,,,,,,,,,,,
Number Of Cells:,1,,,,,,,,,,,,
LotID:,,,,,,,,,,,,,
Lot Description:,,,,,,,,,,,,,
Date Made:,1/21/2003 12:00 AM,,,,,,,,,,,,
Origin:,Other,,,,,,,,,,,,
Requestor:,Admin,,,,,,,,,,,,
Product ID:,Default product,,,,,,,,,,,,
Storage Temp:,R.T./AMB,,,,,,,,,,,,
Storage Delay:,0 days,,,,,,,,,,,,
Test Temp:,R.T./AMB,,,,,,,,,,,,
Start Time:,4/25/2018 8:21 AM,,,,,,,,,,,,
End Time:,4/25/2018 5:06 PM,,,,,,,,,,,,
Operator Instructions:,,,,,,,,,,,,,
Test,Cell,Rack,Shelf,Position,Cell ID,Step,Total Time (Seconds),Voltage (V),Current (A),Charge Capacity (mAh),Discharge Capacity (mAh),TC1 (Â°C),
1551,1,SBT2050,2,9,,0,1,3.53155,0,0,0,24.6,
1551,1,SBT2050,2,9,,0,39,3.53149,0,0,0,24.6,
1551,1,SBT2050,2,9,,0,77,3.531654,0,0,0,24.7,
1551,1,SBT2050,2,9,,0,115,3.53168,0,0,0,24.8,
1551,1,SBT2050,2,9,,0,153,3.53169,0,0,0,24.8,
1551,1,SBT2050,2,9,,0,191,3.53225,0,0,0,24.9,
1551,1,SBT2050,2,9,,0,229,3.53209,0,0,0,24.9,
1551,1,SBT2050,2,9,,0,267,3.53247,0,0,0,24.9,
1551,1,SBT2050,2,9,,1,305,3.14019,-2.9361,0,4.076,24.9,
1551,1,SBT2050,2,9,,1,343,2.9578,-2.9357,0,35.067,25.9,
1551,1,SBT2050,2,9,,1,381,2.86444,-2.9359,0,66.058,27.2,
1551,1,SBT2050,2,9,,1,419,2.7787,-2.9359,0,97.048,28.4,
1551,1,SBT2050,2,9,,1,457,2.68273,-2.9359,0,128.039,29.5,
1551,1,SBT2050,2,9,,1,495,2.56202,-2.936,0,159.029,30.8,
1551,1,SBT2050,2,9,,1,533,2.49973,-2.4995,0,188.498,32,
1551,1,SBT2050,2,9,,1,571,2.499609,-2.0254,0,212.249,32.7,
1551,1,SBT2050,2,9,,1,609,2.49968,-1.6557,0,231.608,33.1,
1551,1,SBT2050,2,9,,1,647,2.49969,-1.3567,0,247.454,33.1,
1551,1,SBT2050,2,9,,1,685,2.4998,-1.1136,0,260.442,33,
1551,1,SBT2050,2,9,,1,723,2.499752,-0.921,0,271.138,32.7,
1551,1,SBT2050,2,9,,1,761,2.49956,-0.7706,0,280.034,32.3,
1551,1,SBT2050,2,9,,1,799,2.49974,-0.6526,0,287.52,31.8,
1551,1,SBT2050,2,9,,1,837,2.499609,-0.5585,0,293.892,31.4,
1551,1,SBT2050,2,9,,1,875,2.4997,-0.4841,0,299.379,30.9,
1551,1,SBT2050,2,9,,1,913,2.49982,-0.42479,0,304.165,30.4,
1551,1,SBT2050,2,9,,1,951,2.49981,-0.37624,0,308.384,29.9,
1551,1,SBT2050,2,9,,1,989,2.4998,-0.33669,0,312.14,29.5,
1551,1,SBT2050,2,9,,1,1027,2.49982,-0.30377,0,315.516,29.1,
1551,1,SBT2050,2,9,,1,1065,2.49974,-0.27633,0,318.574,28.8,
1551,1,SBT2050,2,9,,1,1103,2.49986,-0.25272,0,321.363,28.5,
1551,1,SBT2050,2,9,,1,1141,2.4998,-0.23261,0,323.922,28.1,
1551,1,SBT2050,2,9,,1,1179,2.49987,-0.21535,0,326.284,27.9,
1551,1,SBT2050,2,9,,1,1217,2.49986,-0.20056,0,328.478,27.6,
1551,1,SBT2050,2,9,,1,1255,2.49994,-0.18763,0,330.525,27.4,
1551,1,SBT2050,2,9,,1,1293,2.499919,-0.17607,0,332.443,27.2,
1551,1,SBT2050,2,9,,1,1331,2.49986,-0.16565,0,334.245,27,
1551,1,SBT2050,2,9,,1,1369,2.499931,-0.15657,0,335.945,26.8,
1551,1,SBT2050,2,9,,1,1407,2.499919,-0.14824,0,337.552,26.7,
1551,1,SBT2050,2,9,,1,1445,2.49999,-0.14051,0,339.074,26.5,
1551,1,SBT2050,2,9,,1,1483,2.49994,-0.1337,0,340.521,26.5,
1551,1,SBT2050,2,9,,1,1521,2.49979,-0.12715,0,341.897,26.3,
1551,1,SBT2050,2,9,,1,1559,2.49997,-0.12147,0,343.209,26.2,
1551,1,SBT2050,2,9,,1,1597,2.49998,-0.11638,0,344.464,26.2,
1551,1,SBT2050,2,9,,1,1635,2.49994,-0.11169,0,345.666,26,
1551,1,SBT2050,2,9,,1,1673,2.49986,-0.10731,0,346.821,26,
1551,1,SBT2050,2,9,,1,1711,2.499931,-0.10324,0,347.932,25.9,
1551,1,SBT2050,2,9,,1,1749,2.49987,-0.09956,0,349.003,25.9,
1551,1,SBT2050,2,9,,1,1787,2.49988,-0.09613,0,350.036,25.8,
1551,1,SBT2050,2,9,,1,1825,2.49997,-0.09293,0,351.034,25.7,
1551,1,SBT2050,2,9,,1,1863,2.4999,-0.09023,0,352,25.7,
1551,1,SBT2050,2,9,,1,1901,2.49985,-0.08744,0,352.938,25.7,
1551,1,SBT2050,2,9,,1,1939,2.499931,-0.08506,0,353.849,25.6,
1551,1,SBT2050,2,9,,1,1977,2.4998,-0.08263,0,354.734,25.6,
1551,1,SBT2050,2,9,,1,2015,2.5,-0.08065,0,355.595,25.6,
1551,1,SBT2050,2,9,,1,2053,2.500086,-0.07857,0,356.435,25.5,
1551,1,SBT2050,2,9,,1,2091,2.49988,-0.07664,0,357.255,25.5,
1551,1,SBT2050,2,9,,1,2129,2.50004,-0.07504,0,358.055,25.5,
1551,1,SBT2050,2,9,,1,2167,2.499931,-0.07341,0,358.838,25.5,
1551,1,SBT2050,2,9,,1,2205,2.50003,-0.07185,0,359.605,25.4,
1551,1,SBT2050,2,9,,1,2243,2.49995,-0.07036,0,360.356,25.5,
1551,1,SBT2050,2,9,,1,2281,2.49999,-0.06898,0,361.092,25.4,
1551,1,SBT2050,2,9,,1,2319,2.49997,-0.06786,0,361.815,25.4,
1551,1,SBT2050,2,9,,1,2357,2.49997,-0.06679,0,362.526,25.4,
1551,1,SBT2050,2,9,,1,2395,2.5,-0.06565,0,363.225,25.4,
1551,1,SBT2050,2,9,,1,2433,2.500086,-0.06471,0,363.913,25.3,
1551,1,SBT2050,2,9,,1,2471,2.49986,-0.06375,0,364.59,25.3,
1551,1,SBT2050,2,9,,1,2509,2.50001,-0.06292,0,365.259,25.3,
1551,1,SBT2050,2,9,,1,2547,2.50004,-0.06224,0,365.918,25.3,
1551,1,SBT2050,2,9,,1,2585,2.49987,-0.06122,0,366.57,25.3,
1551,1,SBT2050,2,9,,1,2623,2.50022,-0.06052,0,367.213,25.3,
1551,1,SBT2050,2,9,,1,2661,2.49999,-0.05984,0,367.848,25.3,
1551,1,SBT2050,2,9,,1,2699,2.50003,-0.0592,0,368.476,25.3,
1551,1,SBT2050,2,9,,1,2737,2.49991,-0.05846,0,369.098,25.3,
1551,1,SBT2050,2,9,,1,2775,2.49995,-0.05797,0,369.712,25.3,
1551,1,SBT2050,2,9,,1,2813,2.50006,-0.0574,0,370.321,25.3,
1551,1,SBT2050,2,9,,1,2851,2.50001,-0.05679,0,370.924,25.3,
1551,1,SBT2050,2,9,,1,2889,2.499919,-0.05629,0,371.52,25.3,
1551,1,SBT2050,2,9,,1,2927,2.49998,-0.0557,0,372.111,25.2,
1551,1,SBT2050,2,9,,1,2965,2.4999,-0.05508,0,372.696,25.2,
1551,1,SBT2050,2,9,,1,3003,2.49998,-0.05462,0,373.275,25.2,
1551,1,SBT2050,2,9,,1,3041,2.49984,-0.05406,0,373.85,25.2,
1551,1,SBT2050,2,9,,1,3079,2.49985,-0.05373,0,374.419,25.2,
1551,1,SBT2050,2,9,,1,3117,2.50005,-0.05335,0,374.984,25.2,
1551,1,SBT2050,2,9,,1,3155,2.50003,-0.0528,0,375.543,25.2,
1551,1,SBT2050,2,9,,1,3193,2.50001,-0.05244,0,376.098,25.2,
1551,1,SBT2050,2,9,,1,3231,2.49995,-0.05195,0,376.649,25.2,
1551,1,SBT2050,2,9,,1,3269,2.49991,-0.05138,0,377.195,25.2,
1551,1,SBT2050,2,9,,1,3307,2.50001,-0.05106,0,377.737,25.2,
1551,1,SBT2050,2,9,,1,3345,2.49987,-0.05066,0,378.274,25.2,
1551,1,SBT2050,2,9,,1,3383,2.49982,-0.05033,0,378.808,25.2,
1551,1,SBT2050,2,9,,1,3421,2.499919,-0.04994,0,379.338,25.2,
1551,1,SBT2050,2,9,,1,3459,2.49998,-0.04965,0,379.864,25.2,
1551,1,SBT2050,2,9,,1,3497,2.499931,-0.04927,0,380.386,25.2,
1551,1,SBT2050,2,9,,1,3535,2.49994,-0.04898,0,380.905,25.2,
1551,1,SBT2050,2,9,,1,3573,2.50006,-0.04869,0,381.421,25.2,
1551,1,SBT2050,2,9,,1,3611,2.50001,-0.0485,0,381.933,25.2,
1551,1,SBT2050,2,9,,1,3649,2.50003,-0.04806,0,382.441,25.2,
1551,1,SBT2050,2,9,,1,3687,2.50005,-0.04777,0,382.947,25.2,
1551,1,SBT2050,2,9,,1,3725,2.499931,-0.04758,0,383.45,25.2,
1551,1,SBT2050,2,9,,1,3763,2.49997,-0.047407,0,383.95,25.2,
1551,1,SBT2050,2,9,,1,3801,2.499931,-0.047128,0,384.447,25.2,
1551,1,SBT2050,2,9,,1,3839,2.5,-0.046676,0,384.942,25.2,
1551,1,SBT2050,2,9,,1,3877,2.500086,-0.046479,0,385.433,25.2,
1551,1,SBT2050,2,9,,1,3915,2.500098,-0.046254,0,385.921,25.1,
1551,1,SBT2050,2,9,,1,3953,2.50005,-0.045789,0,386.407,25.2,
1551,1,SBT2050,2,9,,1,3991,2.50003,-0.04558,0,386.89,25.2,
1551,1,SBT2050,2,9,,1,4029,2.50011,-0.045518,0,387.37,25.2,
1551,1,SBT2050,2,9,,1,4067,2.5,-0.045076,0,387.848,25.2,
1551,1,SBT2050,2,9,,1,4105,2.49995,-0.044782,0,388.323,25.2,
1551,1,SBT2050,2,9,,1,4143,2.500098,-0.044692,0,388.795,25.2,
1551,1,SBT2050,2,9,,1,4181,2.49991,-0.044372,0,389.265,25.2,
1551,1,SBT2050,2,9,,1,4219,2.50023,-0.044277,0,389.733,25.2,
1551,1,SBT2050,2,9,,1,4257,2.49999,-0.044024,0,390.198,25.2,
1551,1,SBT2050,2,9,,1,4295,2.49986,-0.043612,0,390.661,25.2,
1551,1,SBT2050,2,9,,1,4333,2.500086,-0.043601,0,391.122,25.2,
1551,1,SBT2050,2,9,,1,4371,2.49998,-0.043369,0,391.58,25.2,
1551,1,SBT2050,2,9,,1,4409,2.500241,-0.043255,0,392.035,25.2,
1551,1,SBT2050,2,9,,1,4447,2.49995,-0.042821,0,392.489,25.2,
1551,1,SBT2050,2,9,,1,4485,2.49997,-0.042711,0,392.94,25.2,
1551,1,SBT2050,2,9,,1,4523,2.499919,-0.042391,0,393.39,25.1,
1551,1,SBT2050,2,9,,1,4561,2.50004,-0.042167,0,393.837,25.1,
1551,1,SBT2050,2,9,,1,4599,2.500086,-0.042242,0,394.282,25.2,
1551,1,SBT2050,2,9,,1,4637,2.49994,-0.04188,0,394.725,25.2,
1551,1,SBT2050,2,9,,1,4675,2.49998,-0.04172,0,395.166,25.2,
1551,1,SBT2050,2,9,,1,4713,2.499931,-0.041452,0,395.605,25.1,
1551,1,SBT2050,2,9,,1,4751,2.50005,-0.04137,0,396.042,25.2,
1551,1,SBT2050,2,9,,1,4789,2.49994,-0.041216,0,396.478,25.2,
1551,1,SBT2050,2,9,,1,4827,2.49995,-0.041056,0,396.911,25.2,
1551,1,SBT2050,2,9,,1,4865,2.50004,-0.04075,0,397.343,25.2,
1551,1,SBT2050,2,9,,1,4903,2.49991,-0.040628,0,397.773,25.1,
1551,1,SBT2050,2,9,,1,4941,2.4999,-0.040418,0,398.201,25.1,
1551,1,SBT2050,2,9,,1,4979,2.4999,-0.040238,0,398.627,25.2,
1551,1,SBT2050,2,9,,1,5017,2.50004,-0.04011,0,399.052,25.1,
1551,1,SBT2050,2,9,,1,5055,2.50006,-0.039994,0,399.475,25.1,
1551,1,SBT2050,2,9,,1,5093,2.49994,-0.039857,0,399.896,25.1,
1551,1,SBT2050,2,9,,1,5131,2.50013,-0.039695,0,400.316,25.1,
1551,1,SBT2050,2,9,,1,5169,2.50001,-0.039523,0,400.733,25.1,
1551,1,SBT2050,2,9,,1,5207,2.500074,-0.039474,0,401.15,25.2,
1551,1,SBT2050,2,9,,1,5245,2.50004,-0.039202,0,401.565,25.1,
1551,1,SBT2050,2,9,,1,5283,2.49999,-0.039028,0,401.978,25.1,
1551,1,SBT2050,2,9,,1,5321,2.5,-0.038971,0,402.389,25.1,
1551,1,SBT2050,2,9,,1,5359,2.49998,-0.038775,0,402.8,25.1,
1551,1,SBT2050,2,9,,1,5397,2.5,-0.038729,0,403.208,25.1,
1551,1,SBT2050,2,9,,1,5435,2.50006,-0.038453,0,403.616,25.1,
1551,1,SBT2050,2,9,,1,5473,2.5,-0.03836,0,404.021,25.1,
1551,1,SBT2050,2,9,,1,5511,2.4999,-0.038153,0,404.426,25.1,
1551,1,SBT2050,2,9,,1,5549,2.5,-0.03817,0,404.828,25.1,
1551,1,SBT2050,2,9,,1,5587,2.50003,-0.037964,0,405.23,25.1,
1551,1,SBT2050,2,9,,1,5625,2.49998,-0.03785,0,405.63,25.1,
1551,1,SBT2050,2,9,,1,5663,2.500074,-0.037791,0,406.029,25.1,
1551,1,SBT2050,2,9,,1,5701,2.50004,-0.037452,0,406.426,25.1,
1551,1,SBT2050,2,9,,1,5739,2.500098,-0.037486,0,406.822,25.1,
1551,1,SBT2050,2,9,,1,5777,2.49999,-0.037234,0,407.217,25.1,
1551,1,SBT2050,2,9,,1,5815,2.500074,-0.037274,0,407.61,25.1,
1551,1,SBT2050,2,9,,1,5853,2.499919,-0.036986,0,408.002,25.1,
1551,1,SBT2050,2,9,,1,5891,2.49981,-0.036893,0,408.393,25.1,
1551,1,SBT2050,2,9,,1,5929,2.50005,-0.036907,0,408.783,25.1,
1551,1,SBT2050,2,9,,1,5967,2.50012,-0.036763,0,409.171,25.1,
1551,1,SBT2050,2,9,,1,6005,2.49997,-0.036619,0,409.558,25.1,
1551,1,SBT2050,2,9,,1,6043,2.4999,-0.036402,0,409.944,25.1,
1551,1,SBT2050,2,9,,1,6081,2.50003,-0.036495,0,410.329,25.1,
1551,1,SBT2050,2,9,,1,6119,2.49999,-0.036148,0,410.712,25.1,
1551,1,SBT2050,2,9,,1,6157,2.50001,-0.036151,0,411.094,25.1,
1551,1,SBT2050,2,9,,1,6195,2.50017,-0.036102,0,411.475,25.1,
1551,1,SBT2050,2,9,,1,6233,2.49986,-0.035948,0,411.855,25.1,
1551,1,SBT2050,2,9,,1,6271,2.49984,-0.035817,0,412.234,25.1,
1551,1,SBT2050,2,9,,1,6309,2.4999,-0.035611,0,412.611,25.1,
1551,1,SBT2050,2,9,,1,6347,2.499931,-0.035468,0,412.988,25.1,
1551,1,SBT2050,2,9,,1,6385,2.49999,-0.035479,0,413.363,25.1,
1551,1,SBT2050,2,9,,1,6423,2.50001,-0.035362,0,413.737,25.1,
1551,1,SBT2050,2,9,,1,6461,2.49987,-0.035194,0,414.11,25.1,
1551,1,SBT2050,2,9,,1,6499,2.50004,-0.03522,0,414.482,25.1,
1551,1,SBT2050,2,9,,1,6537,2.50003,-0.035147,0,414.853,25.1,
1551,1,SBT2050,2,9,,1,6575,2.500074,-0.035006,0,415.223,25.1,
1551,1,SBT2050,2,9,,1,6613,2.49995,-0.034846,0,415.592,25.1,
1551,1,SBT2050,2,9,,1,6651,2.50013,-0.034875,0,415.959,25.1,
1551,1,SBT2050,2,9,,1,6689,2.49991,-0.034621,0,416.326,25.1,
1551,1,SBT2050,2,9,,1,6727,2.500086,-0.034531,0,416.691,25.1,
1551,1,SBT2050,2,9,,1,6765,2.50011,-0.034505,0,417.056,25.1,
1551,1,SBT2050,2,9,,1,6803,2.49987,-0.034371,0,417.419,25.1,
1551,1,SBT2050,2,9,,1,6841,2.49997,-0.0344,0,417.782,25.1,
1551,1,SBT2050,2,9,,1,6879,2.50005,-0.034248,0,418.144,25.1,
1551,1,SBT2050,2,9,,1,6917,2.50001,-0.034211,0,418.505,25.1,
1551,1,SBT2050,2,9,,1,6955,2.49986,-0.033903,0,418.865,25.1,
1551,1,SBT2050,2,9,,1,6993,2.499919,-0.033941,0,419.223,25.1,
1551,1,SBT2050,2,9,,1,7031,2.50001,-0.033859,0,419.581,25.1,
1551,1,SBT2050,2,9,,1,7069,2.50015,-0.033886,0,419.938,25.1,
1551,1,SBT2050,2,9,,1,7107,2.49994,-0.033733,0,420.294,25.1,
1551,1,SBT2050,2,9,,1,7145,2.499931,-0.033541,0,420.649,25.1,
1551,1,SBT2050,2,9,,1,7183,2.49988,-0.033545,0,421.004,25.1,
1551,1,SBT2050,2,9,,1,7221,2.50004,-0.03339,0,421.357,25.2,
1551,1,SBT2050,2,9,,1,7259,2.500074,-0.033388,0,421.709,25.1,
1551,1,SBT2050,2,9,,1,7297,2.500074,-0.033329,0,422.061,25.1,
1551,1,SBT2050,2,9,,1,7335,2.499919,-0.033082,0,422.411,25.1,
1551,1,SBT2050,2,9,,1,7373,2.50006,-0.033118,0,422.761,25.1,
1551,1,SBT2050,2,9,,1,7411,2.499931,-0.032888,0,423.109,25.1,
1551,1,SBT2050,2,9,,1,7449,2.50006,-0.032914,0,423.457,25.1,
1551,1,SBT2050,2,9,,1,7487,2.49986,-0.032803,0,423.804,25.1,
1551,1,SBT2050,2,9,,1,7525,2.49995,-0.03278,0,424.15,25.1,
1551,1,SBT2050,2,9,,1,7563,2.50003,-0.03273,0,424.495,25.1,
1551,1,SBT2050,2,9,,1,7601,2.50017,-0.032584,0,424.839,25.1,
1551,1,SBT2050,2,9,,1,7639,2.49982,-0.032477,0,425.182,25.1,
1551,1,SBT2050,2,9,,1,7677,2.50005,-0.032294,0,425.524,25.1,
1551,1,SBT2050,2,9,,1,7715,2.50005,-0.032387,0,425.865,25.1,
1551,1,SBT2050,2,9,,1,7753,2.49995,-0.032277,0,426.206,25.1,
1551,1,SBT2050,2,9,,1,7791,2.49994,-0.032082,0,426.546,25.1,
1551,1,SBT2050,2,9,,1,7829,2.50004,-0.032134,0,426.885,25.1,
1551,1,SBT2050,2,9,,1,7867,2.500074,-0.032026,0,427.223,25.1,
1551,1,SBT2050,2,9,,1,7905,2.49982,-0.031826,0,427.56,25.1,
1551,1,SBT2050,2,9,,1,7943,2.500074,-0.031842,0,427.897,25.1,
1551,1,SBT2050,2,9,,1,7981,2.50012,-0.031916,0,428.232,25.1,
1551,1,SBT2050,2,9,,1,8019,2.49986,-0.031573,0,428.567,25.1,
1551,1,SBT2050,2,9,,1,8057,2.4999,-0.031605,0,428.901,25.1,
1551,1,SBT2050,2,9,,1,8095,2.49995,-0.031468,0,429.234,25.1,
1551,1,SBT2050,2,9,,1,8133,2.50006,-0.031392,0,429.566,25.1,
1551,1,SBT2050,2,9,,1,8171,2.50012,-0.031366,0,429.898,25.1,
1551,1,SBT2050,2,9,,1,8209,2.49998,-0.031298,0,430.228,25.1,
1551,1,SBT2050,2,9,,1,8247,2.49999,-0.031241,0,430.558,25.1,
1551,1,SBT2050,2,9,,1,8285,2.49997,-0.031147,0,430.887,25.1,
1551,1,SBT2050,2,9,,1,8323,2.500086,-0.031028,0,431.216,25.1,
1551,1,SBT2050,2,9,,1,8361,2.50004,-0.031084,0,431.543,25.1,
1551,1,SBT2050,2,9,,1,8399,2.49995,-0.030914,0,431.87,25.1,
1551,1,SBT2050,2,9,,1,8437,2.500098,-0.030818,0,432.196,25.1,
1551,1,SBT2050,2,9,,1,8475,2.49999,-0.030834,0,432.521,25.1,
1551,1,SBT2050,2,9,,1,8513,2.500098,-0.030769,0,432.845,25.1,
1551,1,SBT2050,2,9,,1,8551,2.49988,-0.030523,0,433.169,25.1,
1551,1,SBT2050,2,9,,1,8589,2.49991,-0.030504,0,433.492,25.1,
1551,1,SBT2050,2,9,,1,8627,2.49997,-0.030417,0,433.814,25.1,
1551,1,SBT2050,2,9,,1,8665,2.50012,-0.03056,0,434.135,25.1,
1551,1,SBT2050,2,9,,1,8703,2.49994,-0.030274,0,434.455,25.1,
1551,1,SBT2050,2,9,,1,8741,2.50011,-0.030293,0,434.775,25.1,
1551,1,SBT2050,2,9,,1,8779,2.500074,-0.030272,0,435.094,25.1,
1551,1,SBT2050,2,9,,1,8817,2.49981,-0.030011,0,435.412,25.1,
1551,1,SBT2050,2,9,,1,8855,2.50013,-0.030139,0,435.729,25.1,
1551,1,SBT2050,2,9,,1,8893,2.49997,-0.029966,0,436.046,25.1,
1551,1,SBT2050,2,9,,1,8931,2.50015,-0.029996,0,436.362,25.1,
1551,1,SBT2050,2,9,,1,8969,2.50004,-0.029844,0,436.678,25.1,
1551,1,SBT2050,2,9,,1,9007,2.49997,-0.02978,0,436.993,25.1,
1551,1,SBT2050,2,9,,1,9045,2.49994,-0.029781,0,437.306,25.1,
1551,1,SBT2050,2,9,,1,9083,2.49999,-0.02958,0,437.62,25.1,
1551,1,SBT2050,2,9,,1,9121,2.50013,-0.029557,0,437.932,25.1,
1551,1,SBT2050,2,9,,1,9159,2.50006,-0.029527,0,438.244,25.1,
1551,1,SBT2050,2,9,,1,9197,2.5,-0.029416,0,438.554,25.1,
1551,1,SBT2050,2,9,,1,9235,2.500086,-0.02937,0,438.865,25.1,
1551,1,SBT2050,2,9,,1,9273,2.50012,-0.029297,0,439.174,25.1,
1551,1,SBT2050,2,9,,1,9311,2.499931,-0.02924,0,439.482,25.1,
1551,1,SBT2050,2,9,,1,9349,2.500241,-0.029195,0,439.79,25.1,
1551,1,SBT2050,2,9,,1,9387,2.50006,-0.029239,0,440.097,25.1,
1551,1,SBT2050,2,9,,1,9425,2.50003,-0.028981,0,440.404,25.1,
1551,1,SBT2050,2,9,,1,9463,2.499931,-0.028853,0,440.709,25.1,
1551,1,SBT2050,2,9,,1,9501,2.50012,-0.028838,0,441.014,25.1,
1551,1,SBT2050,2,9,,1,9539,2.49999,-0.028739,0,441.318,25.1,
1551,1,SBT2050,2,9,,1,9577,2.4999,-0.028829,0,441.622,25.1,
1551,1,SBT2050,2,9,,1,9615,2.49994,-0.028587,0,441.925,25,
1551,1,SBT2050,2,9,,1,9653,2.50003,-0.028611,0,442.227,25.1,
1551,1,SBT2050,2,9,,1,9691,2.49991,-0.028591,0,442.528,25.1,
1551,1,SBT2050,2,9,,1,9729,2.49997,-0.028448,0,442.829,25.1,
1551,1,SBT2050,2,9,,1,9767,2.50005,-0.028472,0,443.129,25.1,
1551,1,SBT2050,2,9,,1,9805,2.5,-0.028405,0,443.429,25.1,
1551,1,SBT2050,2,9,,1,9843,2.49994,-0.028276,0,443.728,25.1,
1551,1,SBT2050,2,9,,1,9881,2.500098,-0.028129,0,444.027,25.1,
1551,1,SBT2050,2,9,,1,9919,2.499919,-0.028157,0,444.325,25.1,
1551,1,SBT2050,2,9,,1,9957,2.50015,-0.028222,0,444.622,25,
1551,1,SBT2050,2,9,,1,9995,2.50006,-0.028065,0,444.919,25.1,
1551,1,SBT2050,2,9,,1,10033,2.4997,-0.028005,0,445.215,25.1,
1551,1,SBT2050,2,9,,1,10071,2.49994,-0.027957,0,445.511,25.1,
1551,1,SBT2050,2,9,,1,10109,2.4999,-0.02791,0,445.806,25.1,
1551,1,SBT2050,2,9,,1,10147,2.49997,-0.02782,0,446.1,25.1,
1551,1,SBT2050,2,9,,1,10185,2.49995,-0.027718,0,446.394,25.1,
1551,1,SBT2050,2,9,,1,10223,2.49999,-0.027694,0,446.687,25.1,
1551,1,SBT2050,2,9,,1,10261,2.50004,-0.027723,0,446.98,25.1,
1551,1,SBT2050,2,9,,1,10299,2.499919,-0.027576,0,447.272,25.1,
1551,1,SBT2050,2,9,,1,10337,2.5,-0.027581,0,447.563,25.1,
1551,1,SBT2050,2,9,,1,10375,2.49988,-0.027471,0,447.854,25.1,
1551,1,SBT2050,2,9,,1,10413,2.50004,-0.027544,0,448.144,25.1,
1551,1,SBT2050,2,9,,1,10451,2.50012,-0.027407,0,448.434,25.1,
1551,1,SBT2050,2,9,,1,10489,2.49998,-0.027378,0,448.723,25.1,
1551,1,SBT2050,2,9,,1,10527,2.50004,-0.027255,0,449.011,25.1,
1551,1,SBT2050,2,9,,1,10565,2.49995,-0.027192,0,449.299,25.1,
1551,1,SBT2050,2,9,,1,10603,2.49988,-0.027131,0,449.587,25.1,
1551,1,SBT2050,2,9,,1,10641,2.49997,-0.027206,0,449.873,25.1,
1551,1,SBT2050,2,9,,1,10679,2.50004,-0.027066,0,450.159,25.1,
1551,1,SBT2050,2,9,,1,10717,2.49998,-0.026941,0,450.445,25.1,
1551,1,SBT2050,2,9,,1,10755,2.49988,-0.026965,0,450.73,25.1,
1551,1,SBT2050,2,9,,1,10793,2.500074,-0.027048,0,451.014,25.1,
1551,1,SBT2050,2,9,,1,10831,2.500098,-0.026917,0,451.298,25.1,
1551,1,SBT2050,2,9,,1,10869,2.49997,-0.02681,0,451.581,25.1,
1551,1,SBT2050,2,9,,1,10907,2.4998,-0.026705,0,451.863,25.1,
1551,1,SBT2050,2,9,,1,10945,2.50001,-0.026598,0,452.145,25.1,
1551,1,SBT2050,2,9,,1,10983,2.49995,-0.026595,0,452.426,25.1,
1551,1,SBT2050,2,9,,1,11021,2.50011,-0.02663,0,452.707,25.1,
1551,1,SBT2050,2,9,,1,11059,2.500086,-0.026493,0,452.987,25.1,
1551,1,SBT2050,2,9,,1,11097,2.49991,-0.026405,0,453.266,25.1,
1551,1,SBT2050,2,9,,1,11135,2.50006,-0.026376,0,453.544,25.1,
1551,1,SBT2050,2,9,,1,11173,2.49991,-0.026246,0,453.822,25.1,
1551,1,SBT2050,2,9,,1,11211,2.50021,-0.026342,0,454.1,25,
1551,1,SBT2050,2,9,,1,11249,2.49995,-0.0262,0,454.376,25.1,
1551,1,SBT2050,2,9,,1,11287,2.49999,-0.026138,0,454.653,25.1,
1551,1,SBT2050,2,9,,1,11325,2.49994,-0.02597,0,454.928,25.1,
1551,1,SBT2050,2,9,,1,11363,2.50004,-0.026014,0,455.203,25.1,
1551,1,SBT2050,2,9,,1,11401,2.50003,-0.02603,0,455.477,25.1,
1551,1,SBT2050,2,9,,1,11439,2.49995,-0.025932,0,455.751,25.1,
1551,1,SBT2050,2,9,,1,11477,2.50003,-0.025893,0,456.023,25.1,
1551,1,SBT2050,2,9,,1,11515,2.5,-0.025679,0,456.296,25.1,
1551,1,SBT2050,2,9,,1,11553,2.500086,-0.025765,0,456.568,25.1,
1551,1,SBT2050,2,9,,1,11591,2.49997,-0.025743,0,456.839,25.1,
1551,1,SBT2050,2,9,,1,11629,2.49984,-0.025554,0,457.109,25,
1551,1,SBT2050,2,9,,1,11667,2.4999,-0.025522,0,457.379,25.1,
1551,1,SBT2050,2,9,,1,11705,2.49994,-0.025522,0,457.648,25.1,
1551,1,SBT2050,2,9,,1,11743,2.5,-0.025417,0,457.917,25.1,
1551,1,SBT2050,2,9,,1,11781,2.50003,-0.025365,0,458.185,25.1,
1551,1,SBT2050,2,9,,1,11819,2.50001,-0.025306,0,458.453,25.1,
1551,1,SBT2050,2,9,,1,11857,2.49998,-0.025323,0,458.72,25.1,
1551,1,SBT2050,2,9,,1,11895,2.49984,-0.025137,0,458.986,25.1,
1551,1,SBT2050,2,9,,1,11933,2.50011,-0.025169,0,459.251,25.1,
1551,1,SBT2050,2,9,,1,11971,2.50012,-0.025146,0,459.516,25.1,
1551,1,SBT2050,2,9,,1,12009,2.49999,-0.025097,0,459.781,25.1,
1551,1,SBT2050,2,9,,1,12047,2.49994,-0.024997,0,460.044,25.1,
1551,1,SBT2050,2,9,,1,12085,2.49997,-0.024908,0,460.308,25.1,
1551,1,SBT2050,2,9,,1,12123,2.499919,-0.024852,0,460.57,25.1,
1551,1,SBT2050,2,9,,1,12161,2.49997,-0.024718,0,460.832,25.1,
1551,1,SBT2050,2,9,,1,12199,2.50012,-0.024771,0,461.093,25.1,
1551,1,SBT2050,2,9,,1,12237,2.499931,-0.024661,0,461.354,25,
1551,1,SBT2050,2,9,,1,12275,2.49995,-0.024576,0,461.614,25.1,
1551,1,SBT2050,2,9,,1,12313,2.4999,-0.024501,0,461.874,25.1,
1551,1,SBT2050,2,9,,1,12351,2.50004,-0.024495,0,462.133,25.1,
1551,1,SBT2050,2,9,,1,12389,2.5,-0.024419,0,462.391,25.1,
1551,1,SBT2050,2,9,,1,12427,2.50004,-0.024434,0,462.649,25.1,
1551,1,SBT2050,2,9,,1,12465,2.50003,-0.024381,0,462.906,25.1,
1551,1,SBT2050,2,9,,1,12503,2.50006,-0.024245,0,463.163,25.1,
1551,1,SBT2050,2,9,,1,12541,2.50003,-0.02423,0,463.419,25.1,
1551,1,SBT2050,2,9,,1,12579,2.49997,-0.024259,0,463.675,25.1,
1551,1,SBT2050,2,9,,1,12617,2.500086,-0.024201,0,463.93,25.1,
1551,1,SBT2050,2,9,,1,12655,2.50012,-0.024165,0,464.184,25.1,
1551,1,SBT2050,2,9,,1,12693,2.50003,-0.024076,0,464.438,25.1,
1551,1,SBT2050,2,9,,1,12731,2.49999,-0.024014,0,464.692,25,
1551,1,SBT2050,2,9,,1,12769,2.49997,-0.023887,0,464.945,25,
1551,1,SBT2050,2,9,,1,12807,2.500086,-0.023904,0,465.197,25,
1551,1,SBT2050,2,9,,1,12845,2.49995,-0.023841,0,465.448,25,
1551,1,SBT2050,2,9,,1,12883,2.49984,-0.023675,0,465.7,25.1,
1551,1,SBT2050,2,9,,1,12921,2.49986,-0.023677,0,465.95,25.1,
1551,1,SBT2050,2,9,,1,12959,2.5,-0.023688,0,466.2,25.1,
1551,1,SBT2050,2,9,,1,12997,2.49998,-0.02363,0,466.45,25.1,
1551,1,SBT2050,2,9,,1,13035,2.50004,-0.023672,0,466.699,25.1,
1551,1,SBT2050,2,9,,1,13073,2.49991,-0.023389,0,466.947,25.1,
1551,1,SBT2050,2,9,,1,13111,2.4999,-0.023407,0,467.195,25.1,
1551,1,SBT2050,2,9,,1,13149,2.499919,-0.023427,0,467.442,25.1,
1551,1,SBT2050,2,9,,1,13187,2.50011,-0.023415,0,467.689,25.1,
1551,1,SBT2050,2,9,,1,13225,2.49994,-0.023191,0,467.935,25,
1551,1,SBT2050,2,9,,1,13263,2.499919,-0.023224,0,468.181,25.1,
1551,1,SBT2050,2,9,,1,13301,2.49985,-0.023112,0,468.426,25.1,
1551,1,SBT2050,2,9,,1,13339,2.49998,-0.023089,0,468.67,25.1,
1551,1,SBT2050,2,9,,1,13377,2.50001,-0.023044,0,468.914,25,
1551,1,SBT2050,2,9,,1,13415,2.49999,-0.023005,0,469.157,25.1,
1551,1,SBT2050,2,9,,1,13453,2.50001,-0.023025,0,469.4,25.1,
1551,1,SBT2050,2,9,,1,13491,2.49988,-0.022857,0,469.643,25.1,
1551,1,SBT2050,2,9,,1,13529,2.49982,-0.022862,0,469.884,25.1,
1551,1,SBT2050,2,9,,1,13567,2.500074,-0.022898,0,470.126,25,
1551,1,SBT2050,2,9,,1,13605,2.5,-0.02277,0,470.366,25.1,
1551,1,SBT2050,2,9,,1,13643,2.49999,-0.022702,0,470.607,25.1,
1551,1,SBT2050,2,9,,1,13681,2.50001,-0.022793,0,470.846,25.1,
1551,1,SBT2050,2,9,,1,13719,2.49994,-0.022586,0,471.085,25.1,
1551,1,SBT2050,2,9,,1,13757,2.49998,-0.022517,0,471.324,25,
1551,1,SBT2050,2,9,,1,13795,2.499919,-0.022473,0,471.561,25.1,
1551,1,SBT2050,2,9,,1,13833,2.49991,-0.022443,0,471.799,25.1,
1551,1,SBT2050,2,9,,1,13871,2.50005,-0.022412,0,472.036,25,
1551,1,SBT2050,2,9,,1,13909,2.50004,-0.022401,0,472.272,25.1,
1551,1,SBT2050,2,9,,1,13947,2.49994,-0.022336,0,472.508,25,
1551,1,SBT2050,2,9,,1,13985,2.49997,-0.022222,0,472.743,25,
1551,1,SBT2050,2,9,,1,14023,2.49999,-0.022237,0,472.978,25.1,
1551,1,SBT2050,2,9,,1,14061,2.500074,-0.022194,0,473.212,25.1,
1551,1,SBT2050,2,9,,1,14099,2.50004,-0.022014,0,473.446,25.1,
1551,1,SBT2050,2,9,,1,14137,2.50001,-0.022074,0,473.679,25.1,
1551,1,SBT2050,2,9,,1,14175,2.5,-0.021969,0,473.912,25.1,
1551,1,SBT2050,2,9,,1,14213,2.49995,-0.021985,0,474.144,25,
1551,1,SBT2050,2,9,,1,14251,2.49997,-0.021876,0,474.376,25,
1551,1,SBT2050,2,9,,1,14289,2.49982,-0.021803,0,474.607,25.1,
1551,1,SBT2050,2,9,,1,14327,2.5,-0.0218,0,474.837,25,
1551,1,SBT2050,2,9,,1,14365,2.50006,-0.021821,0,475.067,25.1,
1551,1,SBT2050,2,9,,1,14403,2.50005,-0.021771,0,475.297,25.1,
1551,1,SBT2050,2,9,,1,14441,2.50012,-0.021755,0,475.526,25.1,
1551,1,SBT2050,2,9,,1,14479,2.49995,-0.021598,0,475.755,25.1,
1551,1,SBT2050,2,9,,1,14517,2.49998,-0.02155,0,475.983,25,
1551,1,SBT2050,2,9,,1,14555,2.500098,-0.021396,0,476.21,25,
1551,1,SBT2050,2,9,,1,14593,2.50004,-0.021502,0,476.437,25,
1551,1,SBT2050,2,9,,1,14631,2.50013,-0.021387,0,476.663,25,
1551,1,SBT2050,2,9,,1,14669,2.499931,-0.021291,0,476.889,25,
1551,1,SBT2050,2,9,,1,14707,2.49995,-0.021307,0,477.114,25,
1551,1,SBT2050,2,9,,1,14745,2.50013,-0.021318,0,477.338,25.1,
1551,1,SBT2050,2,9,,1,14783,2.49997,-0.021181,0,477.562,25.1,
1551,1,SBT2050,2,9,,1,14821,2.50001,-0.021211,0,477.786,25.1,
1551,1,SBT2050,2,9,,1,14859,2.49995,-0.021056,0,478.008,25,
1551,1,SBT2050,2,9,,1,14897,2.49995,-0.021041,0,478.231,25.1,
1551,1,SBT2050,2,9,,1,14935,2.499931,-0.020964,0,478.452,25,
1551,1,SBT2050,2,9,,1,14973,2.50003,-0.020939,0,478.673,25,
1551,1,SBT2050,2,9,,1,15011,2.49985,-0.020785,0,478.894,25,
1551,1,SBT2050,2,9,,1,15049,2.49999,-0.020786,0,479.114,25.1,
1551,1,SBT2050,2,9,,1,15087,2.50003,-0.020757,0,479.333,25.1,
1551,1,SBT2050,2,9,,1,15125,2.5,-0.020683,0,479.552,25,
1551,1,SBT2050,2,9,,1,15163,2.49994,-0.020666,0,479.77,25,
1551,1,SBT2050,2,9,,1,15201,2.49998,-0.020576,0,479.988,25,
1551,1,SBT2050,2,9,,1,15239,2.50006,-0.020594,0,480.205,25,
1551,1,SBT2050,2,9,,1,15277,2.49991,-0.020616,0,480.421,25,
1551,1,SBT2050,2,9,,1,15315,2.50011,-0.020405,0,480.637,25,
1551,1,SBT2050,2,9,,1,15353,2.499931,-0.020381,0,480.853,25,
1551,1,SBT2050,2,9,,1,15391,2.49999,-0.020311,0,481.068,25.1,
1551,1,SBT2050,2,9,,1,15429,2.50004,-0.020282,0,481.283,25,
1551,1,SBT2050,2,9,,1,15467,2.50013,-0.020286,0,481.497,25.1,
1551,1,SBT2050,2,9,,1,15505,2.49998,-0.020283,0,481.711,25.1,
1551,1,SBT2050,2,9,,1,15543,2.5,-0.020164,0,481.923,25.1,
1551,1,SBT2050,2,9,,1,15581,2.500074,-0.02012,0,482.136,25,
1551,1,SBT2050,2,9,,1,15619,2.49998,-0.02007,0,482.349,25,
1551,1,SBT2050,2,9,,1,15657,2.50006,-0.020076,0,482.56,25,
1551,1,SBT2050,2,9,,1,15695,2.50018,-0.020122,0,482.772,25,
1551,1,SBT2050,2,9,,1,15733,2.500074,-0.019937,0,482.982,25,
1551,1,SBT2050,2,9,,1,15771,2.5,-0.019916,0,483.193,25,
1551,1,SBT2050,2,9,,1,15809,2.49991,-0.019803,0,483.403,25,
1551,1,SBT2050,2,9,,1,15847,2.49988,-0.019771,0,483.612,25,
1551,1,SBT2050,2,9,,1,15885,2.49984,-0.019809,0,483.821,25.1,
1551,1,SBT2050,2,9,,1,15923,2.500098,-0.019791,0,484.03,25.1,
1551,1,SBT2050,2,9,,1,15961,2.50018,-0.019704,0,484.238,25,
1551,1,SBT2050,2,9,,1,15999,2.49995,-0.019637,0,484.446,25,
1551,1,SBT2050,2,9,,1,16037,2.50006,-0.019483,0,484.653,25,
1551,1,SBT2050,2,9,,1,16075,2.49985,-0.019444,0,484.859,25,
1551,1,SBT2050,2,9,,1,16113,2.500098,-0.019541,0,485.066,25,
1551,1,SBT2050,2,9,,1,16151,2.50021,-0.01957,0,485.271,25.1,
1551,1,SBT2050,2,9,,1,16189,2.500098,-0.019558,0,485.477,25.1,
1551,1,SBT2050,2,9,,1,16227,2.50006,-0.019448,0,485.682,25,
1551,1,SBT2050,2,9,,1,16265,2.49987,-0.01932,0,485.886,25.1,
1551,1,SBT2050,2,9,,1,16303,2.50003,-0.019293,0,486.091,25,
1551,1,SBT2050,2,9,,1,16341,2.50001,-0.019249,0,486.294,25,
1551,1,SBT2050,2,9,,1,16379,2.500098,-0.019332,0,486.497,25,
1551,1,SBT2050,2,9,,1,16417,2.49997,-0.019168,0,486.7,25,
1551,1,SBT2050,2,9,,1,16455,2.499919,-0.019134,0,486.903,25,
1551,1,SBT2050,2,9,,1,16493,2.50003,-0.0192,0,487.105,25,
1551,1,SBT2050,2,9,,1,16531,2.50003,-0.019174,0,487.307,25.1,
1551,1,SBT2050,2,9,,1,16569,2.49994,-0.019128,0,487.508,25,
1551,1,SBT2050,2,9,,1,16607,2.50001,-0.018994,0,487.709,25,
1551,1,SBT2050,2,9,,1,16645,2.50006,-0.018968,0,487.91,25,
1551,1,SBT2050,2,9,,1,16683,2.4999,-0.018884,0,488.11,25,
1551,1,SBT2050,2,9,,1,16721,2.50001,-0.018947,0,488.309,25,
1551,1,SBT2050,2,9,,1,16759,2.50004,-0.018915,0,488.509,25,
1551,1,SBT2050,2,9,,1,16797,2.50004,-0.018775,0,488.708,25,
1551,1,SBT2050,2,9,,1,16835,2.50011,-0.018866,0,488.906,25,
1551,1,SBT2050,2,9,,1,16873,2.49999,-0.018822,0,489.105,25,
1551,1,SBT2050,2,9,,1,16911,2.499919,-0.018665,0,489.303,25,
1551,1,SBT2050,2,9,,1,16949,2.50006,-0.018796,0,489.501,25,
1551,1,SBT2050,2,9,,1,16987,2.49995,-0.018827,0,489.698,25,
1551,1,SBT2050,2,9,,1,17025,2.500074,-0.018712,0,489.895,25,
1551,1,SBT2050,2,9,,1,17063,2.49999,-0.018615,0,490.092,25.1,
1551,1,SBT2050,2,9,,1,17101,2.5,-0.018561,0,490.288,25,
1551,1,SBT2050,2,9,,1,17139,2.499931,-0.018558,0,490.485,25,
1551,1,SBT2050,2,9,,1,17177,2.50003,-0.018618,0,490.681,25,
1551,1,SBT2050,2,9,,1,17215,2.499919,-0.018531,0,490.876,25,
1551,1,SBT2050,2,9,,1,17253,2.49998,-0.01844,0,491.071,25,
1551,1,SBT2050,2,9,,1,17291,2.500086,-0.018412,0,491.266,25,
1551,1,SBT2050,2,9,,1,17329,2.500098,-0.018408,0,491.46,25,
1551,1,SBT2050,2,9,,1,17367,2.50003,-0.01838,0,491.655,25.1,
1551,1,SBT2050,2,9,,1,17405,2.500098,-0.01842,0,491.849,25.1,
1551,1,SBT2050,2,9,,1,17443,2.50012,-0.018281,0,492.042,25,
1551,1,SBT2050,2,9,,1,17481,2.5,-0.018359,0,492.235,25,
1551,1,SBT2050,2,9,,1,17519,2.49999,-0.018225,0,492.428,25,
1551,1,SBT2050,2,9,,1,17557,2.49987,-0.018141,0,492.621,25,
1551,1,SBT2050,2,9,,1,17595,2.49991,-0.018116,0,492.813,25,
1551,1,SBT2050,2,9,,1,17633,2.50019,-0.018304,0,493.005,25,
1551,1,SBT2050,2,9,,1,17671,2.49994,-0.018084,0,493.197,25,
1551,1,SBT2050,2,9,,1,17709,2.499931,-0.018022,0,493.388,25,
1551,1,SBT2050,2,9,,1,17747,2.50005,-0.018106,0,493.579,25,
1551,1,SBT2050,2,9,,1,17785,2.49998,-0.018057,0,493.77,25,
1551,1,SBT2050,2,9,,1,17823,2.50028,-0.018205,0,493.96,25,
1551,1,SBT2050,2,9,,1,17861,2.499931,-0.018048,0,494.15,25,
1551,1,SBT2050,2,9,,1,17899,2.50003,-0.018019,0,494.34,25,
1551,1,SBT2050,2,9,,1,17937,2.50011,-0.017992,0,494.529,25,
1551,1,SBT2050,2,9,,1,17975,2.50006,-0.017943,0,494.719,25,
1551,1,SBT2050,2,9,,1,18013,2.499931,-0.017874,0,494.908,25,
1551,1,SBT2050,2,9,,1,18051,2.50006,-0.017905,0,495.096,25,
1551,1,SBT2050,2,9,,1,18089,2.500074,-0.017816,0,495.284,25.1,
1551,1,SBT2050,2,9,,1,18127,2.49995,-0.017775,0,495.472,25,
1551,1,SBT2050,2,9,,1,18165,2.499919,-0.017676,0,495.659,25,
1551,1,SBT2050,2,9,,1,18203,2.50003,-0.017678,0,495.847,25,
1551,1,SBT2050,2,9,,1,18241,2.50001,-0.017647,0,496.033,25.1,
1551,1,SBT2050,2,9,,1,18279,2.49998,-0.017598,0,496.22,25.1,
1551,1,SBT2050,2,9,,1,18317,2.500086,-0.017736,0,496.406,25,
1551,1,SBT2050,2,9,,1,18355,2.50017,-0.017632,0,496.591,25,
1551,1,SBT2050,2,9,,1,18393,2.49995,-0.017585,0,496.777,25,
1551,1,SBT2050,2,9,,1,18431,2.49981,-0.017441,0,496.962,25,
1551,1,SBT2050,2,9,,1,18469,2.50004,-0.017513,0,497.146,25,
1551,1,SBT2050,2,9,,1,18507,2.500086,-0.017475,0,497.33,25,
1551,1,SBT2050,2,9,,1,18545,2.49999,-0.017473,0,497.514,25.1,
1551,1,SBT2050,2,9,,1,18583,2.4999,-0.0173,0,497.698,25,
1551,1,SBT2050,2,9,,1,18621,2.49999,-0.017208,0,497.881,25,
1551,1,SBT2050,2,9,,1,18659,2.50012,-0.017362,0,498.064,25,
1551,1,SBT2050,2,9,,1,18697,2.500074,-0.017173,0,498.247,25,
1551,1,SBT2050,2,9,,1,18735,2.50004,-0.017199,0,498.429,25.1,
1551,1,SBT2050,2,9,,1,18773,2.5,-0.017208,0,498.611,25.1,
1551,1,SBT2050,2,9,,1,18811,2.50001,-0.017246,0,498.793,25,
1551,1,SBT2050,2,9,,1,18849,2.500098,-0.017158,0,498.974,25,
1551,1,SBT2050,2,9,,1,18887,2.499919,-0.017124,0,499.155,25,
1551,1,SBT2050,2,9,,1,18925,2.50004,-0.017006,0,499.335,25,
1551,1,SBT2050,2,9,,1,18963,2.500098,-0.0171,0,499.515,25,
1551,1,SBT2050,2,9,,1,19001,2.50015,-0.017048,0,499.695,25,
1551,1,SBT2050,2,9,,1,19039,2.500074,-0.016981,0,499.875,25,
1551,1,SBT2050,2,9,,1,19077,2.50004,-0.016943,0,500.054,25,
1551,1,SBT2050,2,9,,1,19115,2.50003,-0.016838,0,500.233,25,
1551,1,SBT2050,2,9,,1,19153,2.500086,-0.016865,0,500.412,25,
1551,1,SBT2050,2,9,,1,19191,2.50005,-0.016888,0,500.59,25,
1551,1,SBT2050,2,9,,1,19229,2.50005,-0.016899,0,500.768,25,
1551,1,SBT2050,2,9,,1,19267,2.50006,-0.016875,0,500.945,25,
1551,1,SBT2050,2,9,,1,19305,2.49995,-0.016814,0,501.123,25,
1551,1,SBT2050,2,9,,1,19343,2.49995,-0.016713,0,501.3,25,
1551,1,SBT2050,2,9,,1,19381,2.49995,-0.01669,0,501.476,25,
1551,1,SBT2050,2,9,,1,19419,2.50001,-0.016632,0,501.653,25,
1551,1,SBT2050,2,9,,1,19457,2.49987,-0.016704,0,501.829,25,
1551,1,SBT2050,2,9,,1,19495,2.500086,-0.016733,0,502.004,25,
1551,1,SBT2050,2,9,,1,19533,2.50003,-0.016635,0,502.18,25,
1551,1,SBT2050,2,9,,1,19571,2.500074,-0.016614,0,502.355,25,
1551,1,SBT2050,2,9,,1,19609,2.49995,-0.016469,0,502.53,25,
1551,1,SBT2050,2,9,,1,19647,2.49987,-0.016535,0,502.704,25,
1551,1,SBT2050,2,9,,1,19685,2.49988,-0.016454,0,502.878,25,
1551,1,SBT2050,2,9,,1,19723,2.499919,-0.016477,0,503.052,25,
1551,1,SBT2050,2,9,,1,19761,2.49994,-0.016369,0,503.226,25,
1551,1,SBT2050,2,9,,1,19799,2.49985,-0.016346,0,503.399,25,
1551,1,SBT2050,2,9,,1,19837,2.50005,-0.016367,0,503.572,25,
1551,1,SBT2050,2,9,,1,19875,2.5,-0.016309,0,503.745,25,
1551,1,SBT2050,2,9,,1,19913,2.50006,-0.016291,0,503.917,25,
1551,1,SBT2050,2,9,,1,19951,2.50003,-0.016283,0,504.089,25,
1551,1,SBT2050,2,9,,1,19989,2.500098,-0.016343,0,504.26,25.1,
1551,1,SBT2050,2,9,,1,20027,2.49981,-0.016134,0,504.432,25,
1551,1,SBT2050,2,9,,1,20065,2.49994,-0.016236,0,504.603,25,
1551,1,SBT2050,2,9,,1,20103,2.50016,-0.016329,0,504.774,25,
1551,1,SBT2050,2,9,,1,20141,2.49991,-0.016169,0,504.944,25,
1551,1,SBT2050,2,9,,1,20179,2.50005,-0.016055,0,505.114,25,
1551,1,SBT2050,2,9,,1,20217,2.50012,-0.016102,0,505.284,25,
1551,1,SBT2050,2,9,,1,20255,2.50003,-0.016071,0,505.453,25,
1551,1,SBT2050,2,9,,1,20293,2.50001,-0.015936,0,505.622,25,
1551,1,SBT2050,2,9,,1,20331,2.500086,-0.015945,0,505.791,25,
1551,1,SBT2050,2,9,,1,20369,2.49991,-0.015893,0,505.96,25,
1551,1,SBT2050,2,9,,1,20407,2.499919,-0.015896,0,506.128,25,
1551,1,SBT2050,2,9,,1,20445,2.49997,-0.015899,0,506.296,25,
1551,1,SBT2050,2,9,,1,20483,2.49998,-0.015928,0,506.464,25,
1551,1,SBT2050,2,9,,1,20521,2.49997,-0.015779,0,506.631,25,
1551,1,SBT2050,2,9,,1,20559,2.499931,-0.015922,0,506.798,25,
1551,1,SBT2050,2,9,,1,20597,2.49985,-0.015808,0,506.965,25,
1551,1,SBT2050,2,9,,1,20635,2.500086,-0.015803,0,507.131,25,
1551,1,SBT2050,2,9,,1,20673,2.4999,-0.015627,0,507.297,25,
1551,1,SBT2050,2,9,,1,20711,2.49988,-0.015617,0,507.463,25,
1551,1,SBT2050,2,9,,1,20749,2.5,-0.015625,0,507.629,25,
1551,1,SBT2050,2,9,,1,20787,2.50005,-0.015703,0,507.794,25,
1551,1,SBT2050,2,9,,1,20825,2.49995,-0.015691,0,507.959,25,
1551,1,SBT2050,2,9,,1,20863,2.499919,-0.015564,0,508.123,25,
1551,1,SBT2050,2,9,,1,20901,2.499931,-0.015448,0,508.287,25,
1551,1,SBT2050,2,9,,1,20939,2.5,-0.015584,0,508.451,25,
1551,1,SBT2050,2,9,,1,20977,2.49991,-0.015471,0,508.615,25,
1551,1,SBT2050,2,9,,1,21015,2.49998,-0.015457,0,508.778,25,
1551,1,SBT2050,2,9,,1,21053,2.49985,-0.015354,0,508.942,25,
1551,1,SBT2050,2,9,,1,21091,2.49984,-0.015291,0,509.104,25,
1551,1,SBT2050,2,9,,1,21129,2.50001,-0.015355,0,509.267,25,
1551,1,SBT2050,2,9,,1,21167,2.500074,-0.015369,0,509.429,25,
1551,1,SBT2050,2,9,,1,21205,2.49997,-0.015346,0,509.591,25,
1551,1,SBT2050,2,9,,1,21243,2.49998,-0.015317,0,509.752,25,
1551,1,SBT2050,2,9,,1,21281,2.5,-0.01523,0,509.914,25,
1551,1,SBT2050,2,9,,1,21319,2.50001,-0.015239,0,510.075,25,
1551,1,SBT2050,2,9,,1,21357,2.50006,-0.015399,0,510.236,25,
1551,1,SBT2050,2,9,,1,21395,2.49995,-0.015198,0,510.396,25,
1551,1,SBT2050,2,9,,1,21433,2.5,-0.015285,0,510.556,25,
1551,1,SBT2050,2,9,,1,21471,2.50005,-0.015139,0,510.716,25,
1551,1,SBT2050,2,9,,1,21509,2.50006,-0.015122,0,510.875,25,
1551,1,SBT2050,2,9,,1,21547,2.49988,-0.015089,0,511.034,25,
1551,1,SBT2050,2,9,,1,21585,2.50012,-0.015019,0,511.193,25,
1551,1,SBT2050,2,9,,1,21623,2.49991,-0.014953,0,511.352,25,
1551,1,SBT2050,2,9,,1,21661,2.499919,-0.014958,0,511.51,25,
1551,1,SBT2050,2,9,,1,21699,2.49994,-0.015006,0,511.668,25,
1551,1,SBT2050,2,9,,1,21737,2.50004,-0.014974,0,511.826,25,
1551,1,SBT2050,2,9,,1,21775,2.500074,-0.014866,0,511.983,25,
1551,1,SBT2050,2,9,,1,21813,2.49988,-0.01484,0,512.14,25,
1551,1,SBT2050,2,9,,1,21851,2.49997,-0.014938,0,512.297,25,
1551,1,SBT2050,2,9,,1,21889,2.499931,-0.014843,0,512.453,25,
1551,1,SBT2050,2,9,,1,21927,2.50004,-0.014827,0,512.61,25,
1551,1,SBT2050,2,9,,1,21965,2.49987,-0.014691,0,512.766,25,
1551,1,SBT2050,2,9,,1,22003,2.49999,-0.014781,0,512.921,25,
1551,1,SBT2050,2,9,,1,22041,2.50001,-0.014753,0,513.077,25,
1551,1,SBT2050,2,9,,1,22079,2.49987,-0.01454,0,513.232,25,
1551,1,SBT2050,2,9,,1,22117,2.50006,-0.014593,0,513.387,25,
1551,1,SBT2050,2,9,,1,22155,2.49999,-0.014699,0,513.541,25,
1551,1,SBT2050,2,9,,1,22193,2.4999,-0.014577,0,513.696,25,
1551,1,SBT2050,2,9,,1,22231,2.499752,-0.014414,0,513.85,25,
1551,1,SBT2050,2,9,,1,22269,2.50006,-0.014578,0,514.003,25,
1551,1,SBT2050,2,9,,1,22307,2.49997,-0.014462,0,514.157,25,
1551,1,SBT2050,2,9,,1,22345,2.50003,-0.014485,0,514.31,25,
1551,1,SBT2050,2,9,,1,22383,2.49998,-0.014368,0,514.463,25,
1551,1,SBT2050,2,9,,1,22421,2.50011,-0.014551,0,514.616,25,
1551,1,SBT2050,2,9,,1,22459,2.50004,-0.014385,0,514.768,25,
1551,1,SBT2050,2,9,,1,22497,2.49995,-0.014331,0,514.92,25,
1551,1,SBT2050,2,9,,1,22535,2.49995,-0.014398,0,515.072,25,
1551,1,SBT2050,2,9,,1,22573,2.50003,-0.01433,0,515.223,25,
1551,1,SBT2050,2,9,,1,22611,2.499919,-0.014235,0,515.375,25,
1551,1,SBT2050,2,9,,1,22649,2.50004,-0.014295,0,515.526,25,
1551,1,SBT2050,2,9,,1,22687,2.50003,-0.014243,0,515.676,25,
1551,1,SBT2050,2,9,,1,22725,2.4999,-0.014217,0,515.827,25,
1551,1,SBT2050,2,9,,1,22763,2.49998,-0.014176,0,515.977,25,
1551,1,SBT2050,2,9,,1,22801,2.50006,-0.01422,0,516.127,25,
1551,1,SBT2050,2,9,,1,22839,2.50011,-0.014244,0,516.276,25,
1551,1,SBT2050,2,9,,1,22877,2.4999,-0.014121,0,516.426,25,
1551,1,SBT2050,2,9,,1,22915,2.50006,-0.01417,0,516.575,25,
1551,1,SBT2050,2,9,,1,22953,2.50004,-0.014103,0,516.723,25,
1551,1,SBT2050,2,9,,1,22991,2.50029,-0.01431,0,516.872,25,
1551,1,SBT2050,2,9,,1,23029,2.50003,-0.014014,0,517.02,25,
1551,1,SBT2050,2,9,,1,23067,2.49995,-0.014036,0,517.168,25,
1551,1,SBT2050,2,9,,1,23105,2.499931,-0.013937,0,517.316,25,
1551,1,SBT2050,2,9,,1,23143,2.49998,-0.013941,0,517.463,25,
1551,1,SBT2050,2,9,,1,23181,2.50001,-0.013842,0,517.61,25,
1551,1,SBT2050,2,9,,1,23219,2.49991,-0.013931,0,517.757,25,
1551,1,SBT2050,2,9,,1,23257,2.49998,-0.013857,0,517.904,25,
1551,1,SBT2050,2,9,,1,23295,2.50003,-0.013844,0,518.05,25,
1551,1,SBT2050,2,9,,1,23333,2.50021,-0.013915,0,518.196,25,
1551,1,SBT2050,2,9,,1,23371,2.500098,-0.013915,0,518.342,25,
1551,1,SBT2050,2,9,,1,23409,2.500086,-0.013771,0,518.488,25,
1551,1,SBT2050,2,9,,1,23447,2.5,-0.013748,0,518.633,25,
1551,1,SBT2050,2,9,,1,23485,2.49985,-0.013661,0,518.778,25,
1551,1,SBT2050,2,9,,1,23523,2.50003,-0.013743,0,518.922,25,
1551,1,SBT2050,2,9,,1,23561,2.500074,-0.013705,0,519.067,25,
1551,1,SBT2050,2,9,,1,23599,2.49988,-0.013658,0,519.211,25,
1551,1,SBT2050,2,9,,1,23637,2.49994,-0.013571,0,519.355,25,
1551,1,SBT2050,2,9,,1,23675,2.49987,-0.01356,0,519.499,25,
1551,1,SBT2050,2,9,,1,23713,2.5,-0.013621,0,519.642,25,
1551,1,SBT2050,2,9,,1,23751,2.5,-0.013582,0,519.785,25,
1551,1,SBT2050,2,9,,1,23789,2.50015,-0.01358,0,519.928,25,
1551,1,SBT2050,2,9,,1,23827,2.500098,-0.013687,0,520.071,25,
1551,1,SBT2050,2,9,,1,23865,2.50004,-0.013481,0,520.213,25,
1551,1,SBT2050,2,9,,1,23903,2.50003,-0.013478,0,520.355,25,
1551,1,SBT2050,2,9,,1,23941,2.49997,-0.013399,0,520.497,25,
1551,1,SBT2050,2,9,,1,23979,2.50006,-0.013435,0,520.639,25,
1551,1,SBT2050,2,9,,1,24017,2.500074,-0.013437,0,520.78,25,
1551,1,SBT2050,2,9,,1,24055,2.50005,-0.013351,0,520.921,25,
1551,1,SBT2050,2,9,,1,24093,2.50013,-0.013382,0,521.062,25,
1551,1,SBT2050,2,9,,1,24131,2.49999,-0.013431,0,521.202,25,
1551,1,SBT2050,2,9,,1,24169,2.49994,-0.013216,0,521.342,25,
1551,1,SBT2050,2,9,,1,24207,2.49994,-0.013214,0,521.482,25,
1551,1,SBT2050,2,9,,1,24245,2.500086,-0.01326,0,521.622,25,
1551,1,SBT2050,2,9,,1,24283,2.50005,-0.013252,0,521.761,25,
1551,1,SBT2050,2,9,,1,24321,2.49994,-0.013195,0,521.901,25,
1551,1,SBT2050,2,9,,1,24359,2.5,-0.013167,0,522.04,25.1,
1551,1,SBT2050,2,9,,1,24397,2.50004,-0.013134,0,522.178,25,
1551,1,SBT2050,2,9,,1,24435,2.50005,-0.013155,0,522.317,25,
1551,1,SBT2050,2,9,,1,24473,2.5,-0.013012,0,522.455,25,
1551,1,SBT2050,2,9,,1,24511,2.49991,-0.013063,0,522.593,25,
1551,1,SBT2050,2,9,,1,24549,2.50001,-0.012998,0,522.731,25,
1551,1,SBT2050,2,9,,1,24587,2.49986,-0.012978,0,522.868,25,
1551,1,SBT2050,2,9,,1,24625,2.50004,-0.012987,0,523.005,25,
1551,1,SBT2050,2,9,,1,24663,2.50003,-0.013047,0,523.142,25,
1551,1,SBT2050,2,9,,1,24701,2.499919,-0.012894,0,523.278,25,
1551,1,SBT2050,2,9,,1,24739,2.49997,-0.012917,0,523.415,25,
1551,1,SBT2050,2,9,,1,24777,2.49998,-0.012894,0,523.551,25,
1551,1,SBT2050,2,9,,1,24815,2.49999,-0.012922,0,523.687,25,
1551,1,SBT2050,2,9,,1,24853,2.49986,-0.012807,0,523.822,25,
1551,1,SBT2050,2,9,,1,24891,2.499919,-0.012756,0,523.957,25,
1551,1,SBT2050,2,9,,1,24929,2.49995,-0.012783,0,524.092,25,
1551,1,SBT2050,2,9,,1,24967,2.50006,-0.012768,0,524.227,25,
1551,1,SBT2050,2,9,,1,25005,2.50011,-0.012798,0,524.361,25,
1551,1,SBT2050,2,9,,1,25043,2.50012,-0.012771,0,524.496,25,
1551,1,SBT2050,2,9,,1,25081,2.50006,-0.012679,0,524.63,25,
1551,1,SBT2050,2,9,,1,25119,2.49991,-0.012562,0,524.763,25,
1551,1,SBT2050,2,9,,1,25157,2.50013,-0.012788,0,524.897,25,
1551,1,SBT2050,2,9,,1,25195,2.49995,-0.012451,0,525.03,25,
1551,1,SBT2050,2,9,,1,25233,2.50001,-0.012649,0,525.163,25,
1551,1,SBT2050,2,9,,1,25271,2.49988,-0.012454,0,525.296,25,
1551,1,SBT2050,2,9,,1,25309,2.50005,-0.012564,0,525.428,25,
1551,1,SBT2050,2,9,,1,25347,2.49997,-0.0125,0,525.56,25,
1551,1,SBT2050,2,9,,1,25385,2.49997,-0.012565,0,525.692,25,
1551,1,SBT2050,2,9,,1,25423,2.49997,-0.012526,0,525.824,25,
1551,1,SBT2050,2,9,,1,25461,2.50019,-0.012427,0,525.955,25,
1551,1,SBT2050,2,9,,1,25499,2.50003,-0.012448,0,526.086,25,
1551,1,SBT2050,2,9,,1,25537,2.49994,-0.012388,0,526.217,25,
1551,1,SBT2050,2,9,,1,25575,2.49982,-0.012359,0,526.347,25,
1551,1,SBT2050,2,9,,1,25613,2.500074,-0.01237,0,526.477,25,
1551,1,SBT2050,2,9,,1,25651,2.499931,-0.012148,0,526.607,25,
1551,1,SBT2050,2,9,,1,25689,2.49997,-0.012256,0,526.737,25,
1551,1,SBT2050,2,9,,1,25727,2.499931,-0.012282,0,526.866,25,
1551,1,SBT2050,2,9,,1,25765,2.4999,-0.012204,0,526.995,25,
1551,1,SBT2050,2,9,,1,25803,2.50001,-0.012242,0,527.124,25,
1551,1,SBT2050,2,9,,1,25841,2.50006,-0.012178,0,527.252,25,
1551,1,SBT2050,2,9,,1,25879,2.500098,-0.012228,0,527.381,25,
1551,1,SBT2050,2,9,,1,25917,2.500086,-0.012065,0,527.509,25,
1551,1,SBT2050,2,9,,1,25955,2.49995,-0.011965,0,527.637,25,
1551,1,SBT2050,2,9,,1,25993,2.50001,-0.012134,0,527.764,25,
1551,1,SBT2050,2,9,,1,26031,2.499931,-0.012006,0,527.892,25,
1551,1,SBT2050,2,9,,1,26069,2.49998,-0.012044,0,528.019,25,
1551,1,SBT2050,2,9,,1,26107,2.49994,-0.01186,0,528.145,25,
1551,1,SBT2050,2,9,,1,26145,2.50001,-0.012007,0,528.272,25,
1551,1,SBT2050,2,9,,1,26183,2.49994,-0.012055,0,528.399,25,
1551,1,SBT2050,2,9,,1,26221,2.50004,-0.01189,0,528.525,25,
1551,1,SBT2050,2,9,,1,26259,2.499919,-0.011867,0,528.651,25,
1551,1,SBT2050,2,9,,1,26297,2.500086,-0.01205,0,528.776,25,
1551,1,SBT2050,2,9,,1,26335,2.49987,-0.011748,0,528.902,25,
1551,1,SBT2050,2,9,,1,26373,2.49988,-0.011815,0,529.027,25,
1551,1,SBT2050,2,9,,1,26411,2.50016,-0.011828,0,529.152,25,
1551,1,SBT2050,2,9,,1,26449,2.50004,-0.011855,0,529.277,25,
1551,1,SBT2050,2,9,,1,26487,2.49979,-0.011747,0,529.401,25,
1551,1,SBT2050,2,9,,1,26525,2.49991,-0.011695,0,529.525,25,
1551,1,SBT2050,2,9,,1,26563,2.50005,-0.011756,0,529.649,25,
1551,1,SBT2050,2,9,,1,26601,2.5,-0.011674,0,529.773,25,
1551,1,SBT2050,2,9,,1,26639,2.500098,-0.011686,0,529.897,25,
1551,1,SBT2050,2,9,,1,26677,2.49997,-0.011608,0,530.02,25,
1551,1,SBT2050,2,9,,1,26715,2.50004,-0.011729,0,530.143,25,
1551,1,SBT2050,2,9,,1,26753,2.5,-0.011593,0,530.266,25,
1551,1,SBT2050,2,9,,1,26791,2.50003,-0.011518,0,530.389,25,
1551,1,SBT2050,2,9,,1,26829,2.50005,-0.011671,0,530.511,25,
1551,1,SBT2050,2,9,,1,26867,2.500086,-0.011593,0,530.633,25,
1551,1,SBT2050,2,9,,1,26905,2.50001,-0.011509,0,530.755,25,
1551,1,SBT2050,2,9,,1,26943,2.49997,-0.011537,0,530.877,25,
1551,1,SBT2050,2,9,,1,26981,2.50013,-0.011579,0,530.998,25,
1551,1,SBT2050,2,9,,1,27019,2.50004,-0.0115,0,531.119,25,
1551,1,SBT2050,2,9,,1,27057,2.50006,-0.011492,0,531.24,25,
1551,1,SBT2050,2,9,,1,27095,2.49995,-0.011467,0,531.361,25,
1551,1,SBT2050,2,9,,1,27133,2.50004,-0.011431,0,531.482,25,
1551,1,SBT2050,2,9,,1,27171,2.500074,-0.011389,0,531.602,25,
1551,1,SBT2050,2,9,,1,27209,2.49991,-0.01131,0,531.722,25,
1551,1,SBT2050,2,9,,1,27247,2.50004,-0.011447,0,531.842,25,
1551,1,SBT2050,2,9,,1,27285,2.50005,-0.011299,0,531.961,25,
1551,1,SBT2050,2,9,,1,27323,2.499931,-0.01129,0,532.081,25,
1551,1,SBT2050,2,9,,1,27361,2.500098,-0.011389,0,532.2,25,
1551,1,SBT2050,2,9,,1,27399,2.500074,-0.011313,0,532.319,25,
1551,1,SBT2050,2,9,,1,27437,2.49995,-0.011182,0,532.437,24.9,
1551,1,SBT2050,2,9,,1,27475,2.500098,-0.011201,0,532.556,25,
1551,1,SBT2050,2,9,,1,27513,2.49997,-0.011273,0,532.674,25,
1551,1,SBT2050,2,9,,1,27551,2.49991,-0.011133,0,532.792,25,
1551,1,SBT2050,2,9,,1,27589,2.499919,-0.011127,0,532.91,25,
1551,1,SBT2050,2,9,,1,27627,2.49985,-0.011076,0,533.028,25,
1551,1,SBT2050,2,9,,1,27665,2.49995,-0.01114,0,533.145,25,
1551,1,SBT2050,2,9,,1,27703,2.4999,-0.011005,0,533.262,25,
1551,1,SBT2050,2,9,,1,27741,2.49999,-0.011055,0,533.379,25,
1551,1,SBT2050,2,9,,1,27779,2.49997,-0.011041,0,533.496,25,
1551,1,SBT2050,2,9,,1,27817,2.49994,-0.011038,0,533.613,25,
1551,1,SBT2050,2,9,,1,27855,2.50001,-0.010988,0,533.729,25,
1551,1,SBT2050,2,9,,1,27893,2.49995,-0.010906,0,533.846,25,
1551,1,SBT2050,2,9,,1,27931,2.5003,-0.01106,0,533.962,25,
1551,1,SBT2050,2,9,,1,27969,2.50004,-0.010935,0,534.077,25,
1551,1,SBT2050,2,9,,1,28007,2.500098,-0.010973,0,534.193,25,
1551,1,SBT2050,2,9,,1,28045,2.49986,-0.010816,0,534.308,25,
1551,1,SBT2050,2,9,,1,28083,2.499931,-0.010863,0,534.423,25,
1551,1,SBT2050,2,9,,1,28121,2.50005,-0.010894,0,534.538,25,
1551,1,SBT2050,2,9,,1,28159,2.500098,-0.010875,0,534.653,25,
1551,1,SBT2050,2,9,,1,28197,2.49988,-0.010779,0,534.768,25,
1551,1,SBT2050,2,9,,1,28235,2.49988,-0.010756,0,534.882,25,
1551,1,SBT2050,2,9,,1,28273,2.49998,-0.010817,0,534.996,25,
1551,1,SBT2050,2,9,,1,28311,2.50003,-0.010837,0,535.11,25,
1551,1,SBT2050,2,9,,1,28349,2.49994,-0.010694,0,535.224,25,
1551,1,SBT2050,2,9,,1,28387,2.49991,-0.01072,0,535.337,25,
1551,1,SBT2050,2,9,,1,28425,2.50001,-0.010744,0,535.45,25,
1551,1,SBT2050,2,9,,1,28463,2.49997,-0.010663,0,535.563,25,
1551,1,SBT2050,2,9,,1,28501,2.50013,-0.010686,0,535.676,25,
1551,1,SBT2050,2,9,,1,28539,2.5,-0.010726,0,535.789,25,
1551,1,SBT2050,2,9,,1,28577,2.50006,-0.010689,0,535.901,24.9,
1551,1,SBT2050,2,9,,1,28615,2.50005,-0.010616,0,536.013,25,
1551,1,SBT2050,2,9,,1,28653,2.49995,-0.010647,0,536.125,25,
1551,1,SBT2050,2,9,,1,28691,2.500074,-0.010663,0,536.237,25,
1551,1,SBT2050,2,9,,1,28729,2.49986,-0.010471,0,536.349,25,
1551,1,SBT2050,2,9,,1,28767,2.499931,-0.01049,0,536.461,25,
1551,1,SBT2050,2,9,,1,28805,2.50012,-0.010537,0,536.572,25,
1551,1,SBT2050,2,9,,1,28843,2.50001,-0.010535,0,536.683,25,
1551,1,SBT2050,2,9,,1,28881,2.500074,-0.010528,0,536.794,25,
1551,1,SBT2050,2,9,,1,28919,2.50016,-0.010718,0,536.905,25,
1551,1,SBT2050,2,9,,1,28957,2.499931,-0.01041,0,537.015,25,
1551,1,SBT2050,2,9,,1,28995,2.50001,-0.010392,0,537.126,25,
1551,1,SBT2050,2,9,,1,29033,2.50006,-0.010429,0,537.236,25,
1551,1,SBT2050,2,9,,1,29071,2.500086,-0.010412,0,537.346,25,
1551,1,SBT2050,2,9,,1,29109,2.49991,-0.010305,0,537.455,25,
1551,1,SBT2050,2,9,,1,29147,2.50001,-0.010343,0,537.565,25,
1551,1,SBT2050,2,9,,1,29185,2.49995,-0.01031,0,537.674,25,
1551,1,SBT2050,2,9,,1,29223,2.50004,-0.010447,0,537.784,25,
1551,1,SBT2050,2,9,,1,29261,2.499931,-0.010345,0,537.893,25,
1551,1,SBT2050,2,9,,1,29299,2.50006,-0.01029,0,538.001,25,
1551,1,SBT2050,2,9,,1,29337,2.49999,-0.010267,0,538.11,25,
1551,1,SBT2050,2,9,,1,29375,2.49986,-0.010193,0,538.218,25,
1551,1,SBT2050,2,9,,1,29413,2.500086,-0.010203,0,538.327,25,
1551,1,SBT2050,2,9,,1,29451,2.49982,-0.010257,0,538.435,25,
1551,1,SBT2050,2,9,,1,29489,2.500098,-0.010292,0,538.543,25,
1551,1,SBT2050,2,9,,1,29527,2.50004,-0.010162,0,538.65,25,
1551,1,SBT2050,2,9,,2,29564,3.391382,2.9359,7.149,538.73,25,
1551,1,SBT2050,2,9,,2,29602,3.75942,2.936,38.14,538.73,25.5,
1551,1,SBT2050,2,9,,2,29640,3.91191,2.9361,69.13,538.73,26.3,
1551,1,SBT2050,2,9,,2,29678,3.9538,2.9356,100.121,538.73,27.3,
1551,1,SBT2050,2,9,,2,29716,3.9758,2.9362,131.111,538.73,28.3,
1551,1,SBT2050,2,9,,2,29754,3.99214,2.9361,162.102,538.73,29.1,
1551,1,SBT2050,2,9,,2,29792,4.00288,2.9359,193.092,538.73,29.8,
1551,1,SBT2050,2,9,,2,29830,4.011004,2.9361,224.083,538.73,30.4,
1551,1,SBT2050,2,9,,2,29868,4.01841,2.936,255.074,538.73,30.9,
1551,1,SBT2050,2,9,,2,29906,4.0266,2.9361,286.065,538.73,31.3,
1551,1,SBT2050,2,9,,2,29944,4.0354,2.9357,317.055,538.73,31.7,
1551,1,SBT2050,2,9,,2,29982,4.04459,2.9359,348.046,538.73,32,
1551,1,SBT2050,2,9,,2,30020,4.054136,2.9355,379.037,538.73,32.2,
1551,1,SBT2050,2,9,,2,30058,4.06499,2.9363,410.028,538.73,32.4,
1551,1,SBT2050,2,9,,2,30096,4.07704,2.936,441.018,538.73,32.6,
1551,1,SBT2050,2,9,,2,30134,4.090516,2.9358,472.009,538.73,32.8,
1551,1,SBT2050,2,9,,2,30172,4.104834,2.9358,503,538.73,32.9,
1551,1,SBT2050,2,9,,2,30210,4.12034,2.936,533.99,538.73,32.9,
1551,1,SBT2050,2,9,,2,30248,4.13661,2.9359,564.981,538.73,33.1,
1551,1,SBT2050,2,9,,2,30286,4.15009,2.9031,595.935,538.73,33.2,
1551,1,SBT2050,2,9,,2,30324,4.14983,2.7643,625.816,538.73,33.3,
1551,1,SBT2050,2,9,,2,30362,4.150042,2.6375,654.323,538.73,33.3,
1551,1,SBT2050,2,9,,2,30400,4.1501,2.5136,681.504,538.73,33.2,
1551,1,SBT2050,2,9,,2,30438,4.15013,2.3907,707.379,538.73,33.1,
1551,1,SBT2050,2,9,,2,30476,4.15026,2.2744,731.994,538.73,32.9,
1551,1,SBT2050,2,9,,2,30514,4.14991,2.1646,755.408,538.73,32.8,
1551,1,SBT2050,2,9,,2,30552,4.14992,2.0605,777.701,538.73,32.5,
1551,1,SBT2050,2,9,,2,30590,4.15022,1.969,798.968,538.73,32.3,
1551,1,SBT2050,2,9,,2,30628,4.15016,1.8886,819.324,538.73,32.1,
1551,1,SBT2050,2,9,,2,30666,4.14996,1.8243,838.912,538.73,31.9,
1551,1,SBT2050,2,9,,2,30704,4.150054,1.7761,857.895,538.73,31.9,
1551,1,SBT2050,2,9,,2,30742,4.150018,1.7459,876.471,538.73,31.9,
1551,1,SBT2050,2,9,,2,30780,4.14995,1.7366,894.833,538.73,32,
1551,1,SBT2050,2,9,,2,30818,4.14986,1.7435,913.186,538.73,32.3,
1551,1,SBT2050,2,9,,2,30856,4.14998,1.7731,931.724,538.73,32.8,
1551,1,SBT2050,2,9,,2,30894,4.150042,1.8196,950.673,538.73,33.4,
1551,1,SBT2050,2,9,,2,30932,4.1499,1.883,970.195,538.73,34.2,
1551,1,SBT2050,2,9,,2,30970,4.14989,1.9621,990.478,538.73,35.3,
1551,1,SBT2050,2,9,,2,31008,4.15016,2.0526,1011.665,538.73,36.5,
1551,1,SBT2050,2,9,,2,31046,4.14988,2.1517,1033.848,538.73,38,
1551,1,SBT2050,2,9,,2,31084,4.14996,2.2589,1057.135,538.73,39.6,
1551,1,SBT2050,2,9,,2,31122,4.14999,2.3683,1081.553,538.73,41.4,
1551,1,SBT2050,2,9,,2,31160,4.14991,2.4749,1107.125,538.73,43.3,
1551,1,SBT2050,2,9,,2,31198,4.14992,2.5768,1133.796,538.73,45.3,
1551,1,SBT2050,2,9,,2,31236,4.15016,2.668,1161.473,538.73,47.4,
1551,1,SBT2050,2,9,,2,31274,4.14995,2.7505,1190.101,538.73,49.4,
1551,1,SBT2050,2,9,,2,31312,4.150018,2.8253,1219.539,538.73,51.5,
1551,1,SBT2050,2,9,,2,31350,4.150054,2.8848,1249.685,538.73,53.5,
1551,1,SBT2050,2,9,,2,31388,4.1499,2.9282,1280.374,538.73,55.4,
1551,1,SBT2050,2,9,,2,31426,4.14828,2.936,1311.351,538.73,57.2,
1551,1,SBT2050,2,9,,2,31464,4.14631,2.936,1342.342,538.73,59,
1551,1,SBT2050,2,9,,2,31490.002,4.14652,-2.9356,1363.547,538.73,60.2,