File: 2C/Test1458.csv
Request Year:,2018,,,,,,,,,,,,
Test:,1458,,,,,,,,,,,,
Test Description:,,,,,,,,,,,,,
TestRegime Name:,Aging_Performance,,,,,,,,,,,,
TestRegime Suffix:,SHP_LC,,,,,,,,,,,,
TestRegime CellSize:,18650,,,,,,,,,,,,
TestRegime Version:,1,,,,,,,,,,,,
Number Of Cells:,1,,,,,,,,,,,,
LotID:,,,,,,,,,,,,,
Lot Description:,,,,,,,,,,,,,
Date Made:,1/21/2003 12:00 AM,,,,,,,,,,,,
Origin:,Other,,,,,,,,,,,,
Requestor:,Admin,,,,,,,,,,,,
Product ID:,Default product,,,,,,,,,,,,
Storage Temp:,R.T./AMB,,,,,,,,,,,,
Storage Delay:,0 days,,,,,,,,,,,,
Test Temp:,R.T./AMB,,,,,,,,,,,,
Start Time:,4/5/2018 7:44 AM,,,,,,,,,,,,
End Time:,4/6/2018 12:43 AM,,,,,,,,,,,,
Operator Instructions:,,,,,,,,,,,,,
Test,Cell,Rack,Shelf,Position,Cell ID,Step,Total Time (Seconds),Voltage (V),Current (A),Charge Capacity (mAh),Discharge Capacity (mAh),TC1 (Â°C),
1458,1,SBT2050,2,9,,0,1,3.4167,0,0,0,25,
1458,1,SBT2050,2,9,,0,81,3.41731,0,0,0,25,
1458,1,SBT2050,2,9,,0,161,3.41843,0,0,0,25,
1458,1,SBT2050,2,9,,0,241,3.41971,0,0,0,24.9,
1458,1,SBT2050,2,9,,1,321,2.91548,-2.9358,0,17.125,25.3,
1458,1,SBT2050,2,9,,1,401,2.50814,-2.9358,0,82.368,28.1,
1458,1,SBT2050,2,9,,1,481,2.49979,-1.7803,0,131.885,30.3,
1458,1,SBT2050,2,9,,1,561,2.49989,-1.2989,0,165.623,31,
1458,1,SBT2050,2,9,,1,641,2.49977,-0.9704,0,190.683,30.9,
1458,1,SBT2050,2,9,,1,721,2.49969,-0.7153,0,209.301,30.5,
1458,1,SBT2050,2,9,,1,801,2.49982,-0.5212,0,222.909,29.8,
1458,1,SBT2050,2,9,,1,881,2.49986,-0.39432,0,232.96,29.1,
1458,1,SBT2050,2,9,,1,961,2.49994,-0.31712,0,240.798,28.5,
1458,1,SBT2050,2,9,,1,1041,2.49982,-0.26606,0,247.238,27.9,
1458,1,SBT2050,2,9,,1,1121,2.49979,-0.23096,0,252.738,27.4,
1458,1,SBT2050,2,9,,1,1201,2.4998,-0.20547,0,257.573,27.1,
1458,1,SBT2050,2,9,,1,1281,2.4999,-0.18613,0,261.917,26.8,
1458,1,SBT2050,2,9,,1,1361,2.4998,-0.17102,0,265.879,26.4,
1458,1,SBT2050,2,9,,1,1441,2.49993,-0.15906,0,269.539,26.3,
1458,1,SBT2050,2,9,,1,1521,2.49989,-0.14959,0,272.964,26,
1458,1,SBT2050,2,9,,1,1601,2.49985,-0.14234,0,276.205,25.9,
1458,1,SBT2050,2,9,,1,1681,2.50008,-0.13609,0,279.296,25.8,
1458,1,SBT2050,2,9,,1,1761,2.49992,-0.13057,0,282.256,25.7,
1458,1,SBT2050,2,9,,1,1841,2.49996,-0.12566,0,285.099,25.6,
1458,1,SBT2050,2,9,,1,1921,2.5,-0.12099,0,287.838,25.6,
1458,1,SBT2050,2,9,,1,2001,2.50007,-0.11717,0,290.486,25.6,
1458,1,SBT2050,2,9,,1,2081,2.50006,-0.11375,0,293.051,25.5,
1458,1,SBT2050,2,9,,1,2161,2.49985,-0.11034,0,295.539,25.5,
1458,1,SBT2050,2,9,,1,2241,2.5001,-0.10725,0,297.958,25.4,
1458,1,SBT2050,2,9,,1,2321,2.49993,-0.1045,0,300.312,25.4,
1458,1,SBT2050,2,9,,1,2401,2.49995,-0.10201,0,302.607,25.4,
1458,1,SBT2050,2,9,,1,2481,2.49985,-0.09953,0,304.849,25.3,
1458,1,SBT2050,2,9,,1,2561,2.4999,-0.09754,0,307.04,25.3,
1458,1,SBT2050,2,9,,1,2641,2.50006,-0.09543,0,309.183,25.3,
1458,1,SBT2050,2,9,,1,2721,2.50007,-0.09348,0,311.281,25.2,
1458,1,SBT2050,2,9,,1,2801,2.49996,-0.0915,0,313.335,25.2,
1458,1,SBT2050,2,9,,1,2881,2.50001,-0.08985,0,315.349,25.2,
1458,1,SBT2050,2,9,,1,2961,2.50006,-0.08814,0,317.325,25.2,
1458,1,SBT2050,2,9,,1,3041,2.49998,-0.08627,0,319.263,25.2,
1458,1,SBT2050,2,9,,1,3121,2.5,-0.0848,0,321.165,25.2,
1458,1,SBT2050,2,9,,1,3201,2.50007,-0.08319,0,323.033,25.2,
1458,1,SBT2050,2,9,,1,3281,2.5,-0.08171,0,324.865,25.2,
1458,1,SBT2050,2,9,,1,3361,2.49996,-0.08016,0,326.664,25.2,
1458,1,SBT2050,2,9,,1,3441,2.49996,-0.07873,0,328.431,25.2,
1458,1,SBT2050,2,9,,1,3521,2.50001,-0.07732,0,330.165,25.2,
1458,1,SBT2050,2,9,,1,3601,2.500024,-0.07606,0,331.872,25.2,
1458,1,SBT2050,2,9,,1,3681,2.49999,-0.07496,0,333.552,25.2,
1458,1,SBT2050,2,9,,1,3761,2.5,-0.07371,0,335.205,25.1,
1458,1,SBT2050,2,9,,1,3841,2.49994,-0.07273,0,336.834,25.1,
1458,1,SBT2050,2,9,,1,3921,2.50006,-0.07186,0,338.441,25.1,
1458,1,SBT2050,2,9,,1,4001,2.49981,-0.07071,0,340.025,25.1,
1458,1,SBT2050,2,9,,1,4081,2.50016,-0.07,0,341.589,25.1,
1458,1,SBT2050,2,9,,1,4161,2.49995,-0.06904,0,343.133,25.2,
1458,1,SBT2050,2,9,,1,4241,2.49993,-0.06821,0,344.659,25.2,
1458,1,SBT2050,2,9,,1,4321,2.50006,-0.0673,0,346.164,25.2,
1458,1,SBT2050,2,9,,1,4401,2.500024,-0.06654,0,347.651,25.2,
1458,1,SBT2050,2,9,,1,4481,2.49998,-0.06564,0,349.119,25.2,
1458,1,SBT2050,2,9,,1,4561,2.49992,-0.06487,0,350.567,25.1,
1458,1,SBT2050,2,9,,1,4641,2.49983,-0.06389,0,351.997,25.1,
1458,1,SBT2050,2,9,,1,4721,2.49998,-0.06317,0,353.409,25.1,
1458,1,SBT2050,2,9,,1,4801,2.49979,-0.06229,0,354.805,25.1,
1458,1,SBT2050,2,9,,1,4881,2.49994,-0.0616,0,356.182,25,
1458,1,SBT2050,2,9,,1,4961,2.50011,-0.06091,0,357.542,25.1,
1458,1,SBT2050,2,9,,1,5041,2.50006,-0.06017,0,358.886,25.1,
1458,1,SBT2050,2,9,,1,5121,2.50001,-0.05943,0,360.216,25.1,
1458,1,SBT2050,2,9,,1,5201,2.49994,-0.05894,0,361.532,25.1,
1458,1,SBT2050,2,9,,1,5281,2.49999,-0.05844,0,362.834,25.1,
1458,1,SBT2050,2,9,,1,5361,2.499881,-0.05771,0,364.124,25.1,
1458,1,SBT2050,2,9,,1,5441,2.49993,-0.0572,0,365.403,25.1,
1458,1,SBT2050,2,9,,1,5521,2.49993,-0.05688,0,366.67,25,
1458,1,SBT2050,2,9,,1,5601,2.5,-0.05621,0,367.926,25,
1458,1,SBT2050,2,9,,1,5681,2.50008,-0.05565,0,369.169,25,
1458,1,SBT2050,2,9,,1,5761,2.500048,-0.05506,0,370.399,25,
1458,1,SBT2050,2,9,,1,5841,2.49999,-0.05456,0,371.617,25,
1458,1,SBT2050,2,9,,1,5921,2.4999,-0.05394,0,372.823,25,
1458,1,SBT2050,2,9,,1,6001,2.49994,-0.05348,0,374.016,25,
1458,1,SBT2050,2,9,,1,6081,2.49994,-0.05272,0,375.197,25,
1458,1,SBT2050,2,9,,1,6161,2.50013,-0.05243,0,376.367,25,
1458,1,SBT2050,2,9,,1,6241,2.49982,-0.05187,0,377.525,25.1,
1458,1,SBT2050,2,9,,1,6321,2.50001,-0.0513,0,378.672,25.1,
1458,1,SBT2050,2,9,,1,6401,2.500036,-0.05095,0,379.808,25,
1458,1,SBT2050,2,9,,1,6481,2.49995,-0.05031,0,380.932,25,
1458,1,SBT2050,2,9,,1,6561,2.500036,-0.0497,0,382.043,25,
1458,1,SBT2050,2,9,,1,6641,2.50006,-0.04913,0,383.143,25,
1458,1,SBT2050,2,9,,1,6721,2.49996,-0.04864,0,384.231,25,
1458,1,SBT2050,2,9,,1,6801,2.50008,-0.04823,0,385.307,25,
1458,1,SBT2050,2,9,,1,6881,2.5001,-0.04767,0,386.372,25,
1458,1,SBT2050,2,9,,1,6961,2.5001,-0.047209,0,387.425,25,
1458,1,SBT2050,2,9,,1,7041,2.49995,-0.046591,0,388.467,25,
1458,1,SBT2050,2,9,,1,7121,2.500024,-0.046153,0,389.498,25,
1458,1,SBT2050,2,9,,1,7201,2.50001,-0.045764,0,390.518,25,
1458,1,SBT2050,2,9,,1,7281,2.49994,-0.04526,0,391.529,25,
1458,1,SBT2050,2,9,,1,7361,2.50013,-0.044797,0,392.53,25,
1458,1,SBT2050,2,9,,1,7441,2.49989,-0.044346,0,393.521,25,
1458,1,SBT2050,2,9,,1,7521,2.49993,-0.043986,0,394.504,24.9,
1458,1,SBT2050,2,9,,1,7601,2.500203,-0.043695,0,395.479,25,
1458,1,SBT2050,2,9,,1,7681,2.50001,-0.043334,0,396.444,25,
1458,1,SBT2050,2,9,,1,7761,2.50001,-0.042926,0,397.401,24.9,
1458,1,SBT2050,2,9,,1,7841,2.50006,-0.042461,0,398.348,25,
1458,1,SBT2050,2,9,,1,7921,2.50001,-0.041815,0,399.286,24.9,
1458,1,SBT2050,2,9,,1,8001,2.50001,-0.041399,0,400.214,25,
1458,1,SBT2050,2,9,,1,8081,2.49993,-0.041285,0,401.132,25,
1458,1,SBT2050,2,9,,1,8161,2.50008,-0.040746,0,402.041,25,
1458,1,SBT2050,2,9,,1,8241,2.49996,-0.040359,0,402.941,25,
1458,1,SBT2050,2,9,,1,8321,2.499869,-0.039796,0,403.83,24.9,
1458,1,SBT2050,2,9,,1,8401,2.50001,-0.039406,0,404.711,24.9,
1458,1,SBT2050,2,9,,1,8481,2.49996,-0.038832,0,405.582,24.9,
1458,1,SBT2050,2,9,,1,8561,2.500024,-0.03854,0,406.444,24.9,
1458,1,SBT2050,2,9,,1,8641,2.500024,-0.038075,0,407.296,24.9,
1458,1,SBT2050,2,9,,1,8721,2.499881,-0.037706,0,408.138,24.9,
1458,1,SBT2050,2,9,,1,8801,2.49994,-0.037388,0,408.971,24.9,
1458,1,SBT2050,2,9,,1,8881,2.50008,-0.03687,0,409.794,25,
1458,1,SBT2050,2,9,,1,8961,2.4999,-0.036396,0,410.609,25,
1458,1,SBT2050,2,9,,1,9041,2.49995,-0.035904,0,411.415,24.9,
1458,1,SBT2050,2,9,,1,9121,2.49993,-0.035782,0,412.213,25,
1458,1,SBT2050,2,9,,1,9201,2.49999,-0.035372,0,413.002,24.9,
1458,1,SBT2050,2,9,,1,9281,2.50007,-0.035041,0,413.783,24.9,
1458,1,SBT2050,2,9,,1,9361,2.49996,-0.034505,0,414.554,24.9,
1458,1,SBT2050,2,9,,1,9441,2.500203,-0.034344,0,415.317,24.9,
1458,1,SBT2050,2,9,,1,9521,2.500024,-0.033774,0,416.072,24.9,
1458,1,SBT2050,2,9,,1,9601,2.49995,-0.033413,0,416.818,24.9,
1458,1,SBT2050,2,9,,1,9681,2.499881,-0.0331,0,417.556,24.9,
1458,1,SBT2050,2,9,,1,9761,2.50008,-0.032602,0,418.286,24.9,
1458,1,SBT2050,2,9,,1,9841,2.49998,-0.032412,0,419.008,24.9,
1458,1,SBT2050,2,9,,1,9921,2.50006,-0.032023,0,419.722,24.9,
1458,1,SBT2050,2,9,,1,10001,2.500024,-0.031553,0,420.428,24.9,
1458,1,SBT2050,2,9,,1,10081,2.5001,-0.031179,0,421.126,24.9,
1458,1,SBT2050,2,9,,1,10161,2.500048,-0.030916,0,421.817,24.9,
1458,1,SBT2050,2,9,,1,10241,2.50001,-0.030576,0,422.501,24.9,
1458,1,SBT2050,2,9,,1,10321,2.50011,-0.030386,0,423.177,24.9,
1458,1,SBT2050,2,9,,1,10401,2.50006,-0.029863,0,423.846,24.9,
1458,1,SBT2050,2,9,,1,10481,2.500036,-0.029628,0,424.507,24.8,
1458,1,SBT2050,2,9,,1,10561,2.5001,-0.029229,0,425.161,24.9,
1458,1,SBT2050,2,9,,1,10641,2.5001,-0.02895,0,425.807,24.9,
1458,1,SBT2050,2,9,,1,10721,2.4999,-0.028553,0,426.445,24.9,
1458,1,SBT2050,2,9,,1,10801,2.50013,-0.028303,0,427.076,24.9,
1458,1,SBT2050,2,9,,1,10881,2.49989,-0.027716,0,427.699,24.9,
1458,1,SBT2050,2,9,,1,10961,2.50008,-0.027549,0,428.315,24.9,
1458,1,SBT2050,2,9,,1,11041,2.500024,-0.027454,0,428.923,24.8,
1458,1,SBT2050,2,9,,1,11121,2.50008,-0.026897,0,429.523,24.8,
1458,1,SBT2050,2,9,,1,11201,2.49995,-0.026586,0,430.116,24.8,
1458,1,SBT2050,2,9,,1,11281,2.49995,-0.026155,0,430.701,24.8,
1458,1,SBT2050,2,9,,1,11361,2.5,-0.025929,0,431.279,24.8,
1458,1,SBT2050,2,9,,1,11441,2.50011,-0.025553,0,431.85,24.8,
1458,1,SBT2050,2,9,,1,11521,2.5001,-0.025201,0,432.413,24.8,
1458,1,SBT2050,2,9,,1,11601,2.50008,-0.024863,0,432.968,24.8,
1458,1,SBT2050,2,9,,1,11681,2.49999,-0.024499,0,433.517,24.8,
1458,1,SBT2050,2,9,,1,11761,2.5,-0.024153,0,434.058,24.8,
1458,1,SBT2050,2,9,,1,11841,2.4999,-0.023872,0,434.592,24.9,
1458,1,SBT2050,2,9,,1,11921,2.49992,-0.02353,0,435.118,24.8,
1458,1,SBT2050,2,9,,1,12001,2.500024,-0.023222,0,435.637,24.8,
1458,1,SBT2050,2,9,,1,12081,2.50006,-0.022827,0,436.15,24.8,
1458,1,SBT2050,2,9,,1,12161,2.50006,-0.022571,0,436.655,24.8,
1458,1,SBT2050,2,9,,1,12241,2.50001,-0.022245,0,437.153,24.8,
1458,1,SBT2050,2,9,,1,12321,2.49992,-0.021992,0,437.645,24.8,
1458,1,SBT2050,2,9,,1,12401,2.500036,-0.021707,0,438.13,24.8,
1458,1,SBT2050,2,9,,1,12481,2.50017,-0.021419,0,438.609,24.8,
1458,1,SBT2050,2,9,,1,12561,2.50006,-0.021202,0,439.082,24.8,
1458,1,SBT2050,2,9,,1,12641,2.50013,-0.020883,0,439.548,24.8,
1458,1,SBT2050,2,9,,1,12721,2.499869,-0.020493,0,440.008,24.8,
1458,1,SBT2050,2,9,,1,12801,2.5,-0.020216,0,440.461,24.8,
1458,1,SBT2050,2,9,,1,12881,2.50001,-0.019943,0,440.908,24.8,
1458,1,SBT2050,2,9,,1,12961,2.500036,-0.01978,0,441.348,24.8,
1458,1,SBT2050,2,9,,1,13041,2.5,-0.019323,0,441.783,24.8,
1458,1,SBT2050,2,9,,1,13121,2.500024,-0.019172,0,442.212,24.8,
1458,1,SBT2050,2,9,,1,13201,2.49999,-0.018864,0,442.635,24.8,
1458,1,SBT2050,2,9,,1,13281,2.499869,-0.018563,0,443.051,24.8,
1458,1,SBT2050,2,9,,1,13361,2.49992,-0.018193,0,443.462,24.8,
1458,1,SBT2050,2,9,,1,13441,2.49993,-0.018086,0,443.867,24.8,
1458,1,SBT2050,2,9,,1,13521,2.5001,-0.017713,0,444.265,24.8,
1458,1,SBT2050,2,9,,1,13601,2.5001,-0.017377,0,444.657,24.8,
1458,1,SBT2050,2,9,,1,13681,2.500048,-0.017251,0,445.042,24.8,
1458,1,SBT2050,2,9,,1,13761,2.4999,-0.016891,0,445.421,24.8,
1458,1,SBT2050,2,9,,1,13841,2.50001,-0.016674,0,445.794,24.8,
1458,1,SBT2050,2,9,,1,13921,2.49996,-0.01632,0,446.159,24.8,
1458,1,SBT2050,2,9,,1,14001,2.50006,-0.016143,0,446.519,24.7,
1458,1,SBT2050,2,9,,1,14081,2.50006,-0.015974,0,446.874,24.8,
1458,1,SBT2050,2,9,,1,14161,2.499869,-0.015493,0,447.222,24.8,
1458,1,SBT2050,2,9,,1,14241,2.50001,-0.015287,0,447.566,24.8,
1458,1,SBT2050,2,9,,1,14321,2.50011,-0.015213,0,447.904,24.8,
1458,1,SBT2050,2,9,,1,14401,2.499881,-0.014786,0,448.236,24.8,
1458,1,SBT2050,2,9,,1,14481,2.49996,-0.014663,0,448.563,24.8,
1458,1,SBT2050,2,9,,1,14561,2.50012,-0.014367,0,448.884,24.8,
1458,1,SBT2050,2,9,,1,14641,2.50006,-0.014123,0,449.2,24.8,
1458,1,SBT2050,2,9,,1,14721,2.499881,-0.013841,0,449.511,24.8,
1458,1,SBT2050,2,9,,1,14801,2.50017,-0.013694,0,449.817,24.7,
1458,1,SBT2050,2,9,,1,14881,2.50001,-0.013448,0,450.119,24.7,
1458,1,SBT2050,2,9,,1,14961,2.500024,-0.013258,0,450.416,24.7,
1458,1,SBT2050,2,9,,1,15041,2.49989,-0.013038,0,450.708,24.7,
1458,1,SBT2050,2,9,,1,15121,2.50006,-0.012907,0,450.996,24.7,
1458,1,SBT2050,2,9,,1,15201,2.500036,-0.012725,0,451.28,24.7,
1458,1,SBT2050,2,9,,1,15281,2.49996,-0.012476,0,451.56,24.7,
1458,1,SBT2050,2,9,,1,15361,2.499869,-0.01233,0,451.835,24.7,
1458,1,SBT2050,2,9,,1,15441,2.49989,-0.012066,0,452.107,24.7,
1458,1,SBT2050,2,9,,1,15521,2.50001,-0.012022,0,452.374,24.7,
1458,1,SBT2050,2,9,,1,15601,2.5,-0.011827,0,452.637,24.7,
1458,1,SBT2050,2,9,,1,15681,2.50006,-0.011532,0,452.896,24.7,
1458,1,SBT2050,2,9,,1,15761,2.49995,-0.011349,0,453.152,24.7,
1458,1,SBT2050,2,9,,1,15841,2.49999,-0.011204,0,453.403,24.7,
1458,1,SBT2050,2,9,,1,15921,2.500024,-0.011053,0,453.651,24.7,
1458,1,SBT2050,2,9,,1,16001,2.49994,-0.010887,0,453.895,24.7,
1458,1,SBT2050,2,9,,1,16081,2.50006,-0.010899,0,454.135,24.7,
1458,1,SBT2050,2,9,,1,16161,2.50008,-0.010621,0,454.373,24.7,
1458,1,SBT2050,2,9,,1,16241,2.49998,-0.010386,0,454.607,24.8,
1458,1,SBT2050,2,9,,1,16321,2.500048,-0.010368,0,454.838,24.8,
1458,1,SBT2050,2,9,,2,16400,3.455212,2.9362,22.292,454.986,24.9,
1458,1,SBT2050,2,9,,2,16480,3.75184,2.936,87.536,454.986,25.9,
1458,1,SBT2050,2,9,,2,16560,3.79194,2.936,152.779,454.986,27.3,
1458,1,SBT2050,2,9,,2,16640,3.81899,2.9357,218.023,454.986,28.3,
1458,1,SBT2050,2,9,,2,16720,3.84067,2.9366,283.266,454.986,29.2,
1458,1,SBT2050,2,9,,2,16800,3.85895,2.9355,348.51,454.986,29.7,
1458,1,SBT2050,2,9,,2,16880,3.87719,2.9357,413.754,454.986,30.1,
1458,1,SBT2050,2,9,,2,16960,3.89615,2.9359,478.997,454.986,30.4,
1458,1,SBT2050,2,9,,2,17040,3.916146,2.9358,544.24,454.986,30.5,
1458,1,SBT2050,2,9,,2,17120,3.93716,2.9366,609.484,454.986,30.8,
1458,1,SBT2050,2,9,,2,17200,3.9592,2.9358,674.728,454.986,30.9,
1458,1,SBT2050,2,9,,2,17280,3.9829,2.936,739.971,454.986,30.9,
1458,1,SBT2050,2,9,,2,17360,4.0074,2.9363,805.215,454.986,31.1,
1458,1,SBT2050,2,9,,2,17440,4.031904,2.9356,870.458,454.986,31.2,
1458,1,SBT2050,2,9,,2,17520,4.056792,2.936,935.701,454.986,31.3,
1458,1,SBT2050,2,9,,2,17600,4.08282,2.9355,1000.945,454.986,31.5,
1458,1,SBT2050,2,9,,2,17680,4.10936,2.9358,1066.188,454.986,31.6,
1458,1,SBT2050,2,9,,2,17760,4.13675,2.9358,1131.432,454.986,31.7,
1458,1,SBT2050,2,9,,2,17840,4.14995,2.7624,1195.54,454.986,31.8,
1458,1,SBT2050,2,9,,2,17920,4.150204,2.5103,1254.08,454.986,31.7,
1458,1,SBT2050,2,9,,2,18000,4.14994,2.2796,1307.278,454.986,31.4,
1458,1,SBT2050,2,9,,2,18080,4.150156,2.0728,1355.6,454.986,31.1,
1458,1,SBT2050,2,9,,2,18160,4.150204,1.8928,1399.618,454.986,30.6,
1458,1,SBT2050,2,9,,2,18240,4.14998,1.7361,1439.889,454.986,30.2,
1458,1,SBT2050,2,9,,2,18320,4.15005,1.598,1476.886,454.986,29.7,
1458,1,SBT2050,2,9,,2,18400,4.1501,1.476,1511.013,454.986,29.2,
1458,1,SBT2050,2,9,,2,18480,4.1501,1.3695,1542.6,454.986,28.8,
1458,1,SBT2050,2,9,,2,18560,4.14991,1.2757,1571.969,454.986,28.5,
1458,1,SBT2050,2,9,,2,18640,4.15035,1.1913,1599.369,454.986,28.1,
1458,1,SBT2050,2,9,,2,18720,4.15001,1.1165,1625,454.986,27.8,
1458,1,SBT2050,2,9,,2,18800,4.15005,1.0473,1649.02,454.986,27.5,
1458,1,SBT2050,2,9,,2,18880,4.15022,0.9844,1671.596,454.986,27.3,
1458,1,SBT2050,2,9,,2,18960,4.15028,0.9285,1692.862,454.986,27.1,
1458,1,SBT2050,2,9,,2,19040,4.15011,0.8771,1712.907,454.986,26.9,
1458,1,SBT2050,2,9,,2,19120,4.15018,0.8299,1731.858,454.986,26.7,
1458,1,SBT2050,2,9,,2,19200,4.15007,0.7858,1749.796,454.986,26.5,
1458,1,SBT2050,2,9,,2,19280,4.15037,0.7454,1766.806,454.986,26.4,
1458,1,SBT2050,2,9,,2,19360,4.15011,0.7082,1782.957,454.986,26.2,
1458,1,SBT2050,2,9,,2,19440,4.14998,0.6739,1798.305,454.986,26.1,
1458,1,SBT2050,2,9,,2,19520,4.14998,0.6431,1812.915,454.986,26.1,
1458,1,SBT2050,2,9,,2,19600,4.14969,0.6126,1826.845,454.986,26,
1458,1,SBT2050,2,9,,2,19680,4.14993,0.5847,1840.14,454.986,25.9,
1458,1,SBT2050,2,9,,2,19760,4.149882,0.5589,1852.84,454.986,25.9,
1458,1,SBT2050,2,9,,2,19840,4.149858,0.5339,1864.983,454.986,25.8,
1458,1,SBT2050,2,9,,2,19920,4.14995,0.5125,1876.603,454.986,25.8,
1458,1,SBT2050,2,9,,2,20000,4.15018,0.4908,1887.742,454.986,25.7,
1458,1,SBT2050,2,9,,2,20080,4.15018,0.4698,1898.415,454.986,25.6,
1458,1,SBT2050,2,9,,2,20160,4.149894,0.45164,1908.655,454.986,25.6,
1458,1,SBT2050,2,9,,2,20240,4.15004,0.43465,1918.49,454.986,25.6,
1458,1,SBT2050,2,9,,2,20320,4.15001,0.41722,1927.954,454.986,25.5,
1458,1,SBT2050,2,9,,2,20400,4.15018,0.40211,1937.06,454.986,25.5,
1458,1,SBT2050,2,9,,2,20480,4.15012,0.38733,1945.828,454.986,25.5,
1458,1,SBT2050,2,9,,2,20560,4.14987,0.37376,1954.285,454.986,25.4,
1458,1,SBT2050,2,9,,2,20640,4.15001,0.36122,1962.447,454.986,25.4,
1458,1,SBT2050,2,9,,2,20720,4.15023,0.34812,1970.326,454.986,25.4,
1458,1,SBT2050,2,9,,2,20800,4.15014,0.33615,1977.93,454.986,25.4,
1458,1,SBT2050,2,9,,2,20880,4.15014,0.32527,1985.28,454.986,25.4,
1458,1,SBT2050,2,9,,2,20960,4.15008,0.31485,1992.392,454.986,25.4,
1458,1,SBT2050,2,9,,2,21040,4.1498,0.30485,1999.276,454.986,25.3,
1458,1,SBT2050,2,9,,2,21120,4.15011,0.29474,2005.94,454.986,25.3,
1458,1,SBT2050,2,9,,2,21200,4.14983,0.28644,2012.399,454.986,25.3,
1458,1,SBT2050,2,9,,2,21280,4.14992,0.27744,2018.659,454.986,25.3,
1458,1,SBT2050,2,9,,2,21360,4.14992,0.26905,2024.73,454.986,25.3,
1458,1,SBT2050,2,9,,2,21440,4.1501,0.26135,2030.623,454.986,25.3,
1458,1,SBT2050,2,9,,2,21520,4.14995,0.25329,2036.34,454.986,25.3,
1458,1,SBT2050,2,9,,2,21600,4.14998,0.24701,2041.901,454.986,25.3,
1458,1,SBT2050,2,9,,2,21680,4.15014,0.23891,2047.306,454.986,25.3,
1458,1,SBT2050,2,9,,2,21760,4.15014,0.23287,2052.561,454.986,25.3,
1458,1,SBT2050,2,9,,2,21840,4.15006,0.227,2057.667,454.986,25.3,
1458,1,SBT2050,2,9,,2,21920,4.14991,0.22036,2062.64,454.986,25.2,
1458,1,SBT2050,2,9,,2,22000,4.15014,0.21399,2067.471,454.986,25.2,
1458,1,SBT2050,2,9,,2,22080,4.149846,0.20904,2072.173,454.986,25.2,
1458,1,SBT2050,2,9,,2,22160,4.150168,0.20372,2076.753,454.986,25.2,
1458,1,SBT2050,2,9,,2,22240,4.15008,0.19818,2081.216,454.986,25.1,
1458,1,SBT2050,2,9,,2,22320,4.14982,0.19291,2085.559,454.986,25.1,
1458,1,SBT2050,2,9,,2,22400,4.149846,0.18867,2089.793,454.986,25.1,
1458,1,SBT2050,2,9,,2,22480,4.14995,0.18369,2093.924,454.986,25.1,
1458,1,SBT2050,2,9,,2,22560,4.149882,0.17902,2097.942,454.986,25.1,
1458,1,SBT2050,2,9,,2,22640,4.149858,0.17442,2101.868,454.986,25.1,
1458,1,SBT2050,2,9,,2,22720,4.15006,0.16977,2105.693,454.986,25.1,
1458,1,SBT2050,2,9,,2,22800,4.1503,0.16555,2109.422,454.986,25,
1458,1,SBT2050,2,9,,2,22880,4.15007,0.1606,2113.048,454.986,25,
1458,1,SBT2050,2,9,,2,22960,4.15013,0.15733,2116.583,454.986,25,
1458,1,SBT2050,2,9,,2,23040,4.1501,0.15358,2120.038,454.986,25,
1458,1,SBT2050,2,9,,2,23120,4.14995,0.15006,2123.412,454.986,25,
1458,1,SBT2050,2,9,,2,23200,4.14993,0.14681,2126.712,454.986,25,
1458,1,SBT2050,2,9,,2,23280,4.15013,0.14257,2129.931,454.986,25,
1458,1,SBT2050,2,9,,2,23360,4.14999,0.13915,2133.062,454.986,25,
1458,1,SBT2050,2,9,,2,23440,4.14999,0.13633,2136.121,454.986,25,
1458,1,SBT2050,2,9,,2,23520,4.14993,0.13254,2139.11,454.986,25,
1458,1,SBT2050,2,9,,2,23600,4.15003,0.12934,2142.023,454.986,25,
1458,1,SBT2050,2,9,,2,23680,4.14992,0.12652,2144.864,454.986,25,
1458,1,SBT2050,2,9,,2,23760,4.14987,0.12356,2147.641,454.986,24.9,
1458,1,SBT2050,2,9,,2,23840,4.14981,0.12087,2150.354,454.986,24.9,
1458,1,SBT2050,2,9,,2,23920,4.15007,0.11796,2153.002,454.986,24.9,
1458,1,SBT2050,2,9,,2,24000,4.15005,0.11506,2155.587,454.986,24.9,
1458,1,SBT2050,2,9,,2,24080,4.14994,0.11288,2158.116,454.986,24.8,
1458,1,SBT2050,2,9,,2,24160,4.14998,0.11024,2160.595,454.986,24.8,
1458,1,SBT2050,2,9,,2,24240,4.15004,0.10781,2163.018,454.986,24.8,
1458,1,SBT2050,2,9,,2,24320,4.14991,0.10563,2165.386,454.986,24.9,
1458,1,SBT2050,2,9,,2,24400,4.15003,0.10323,2167.705,454.986,24.9,
1458,1,SBT2050,2,9,,2,24480,4.15004,0.10079,2169.972,454.986,24.9,
1458,1,SBT2050,2,9,,2,24560,4.149858,0.09874,2172.19,454.986,24.8,
1458,1,SBT2050,2,9,,2,24640,4.149882,0.09636,2174.358,454.986,24.9,
1458,1,SBT2050,2,9,,2,24720,4.14999,0.09463,2176.48,454.986,24.8,
1458,1,SBT2050,2,9,,2,24800,4.150156,0.09293,2178.56,454.986,24.8,
1458,1,SBT2050,2,9,,2,24880,4.14992,0.09049,2180.593,454.986,24.8,
1458,1,SBT2050,2,9,,2,24960,4.14974,0.08946,2182.586,454.986,24.8,
1458,1,SBT2050,2,9,,2,25040,4.15022,0.08662,2184.537,454.986,24.8,
1458,1,SBT2050,2,9,,2,25120,4.14983,0.08528,2186.453,454.986,24.8,
1458,1,SBT2050,2,9,,2,25200,4.150168,0.08354,2188.327,454.986,24.8,
1458,1,SBT2050,2,9,,2,25280,4.15003,0.08164,2190.163,454.986,24.8,
1458,1,SBT2050,2,9,,2,25360,4.150192,0.0804,2191.964,454.986,24.8,
1458,1,SBT2050,2,9,,2,25440,4.15006,0.07864,2193.734,454.986,24.8,
1458,1,SBT2050,2,9,,2,25520,4.14974,0.07773,2195.469,454.986,24.8,
1458,1,SBT2050,2,9,,2,25600,4.14995,0.0757,2197.172,454.986,24.8,
1458,1,SBT2050,2,9,,2,25680,4.15022,0.07385,2198.833,454.986,24.7,
1458,1,SBT2050,2,9,,2,25760,4.14991,0.07263,2200.465,454.986,24.7,
1458,1,SBT2050,2,9,,2,25840,4.15005,0.07127,2202.069,454.986,24.8,
1458,1,SBT2050,2,9,,2,25920,4.15025,0.07027,2203.644,454.986,24.8,
1458,1,SBT2050,2,9,,2,26000,4.150156,0.06905,2205.193,454.986,24.8,
1458,1,SBT2050,2,9,,2,26080,4.14994,0.06764,2206.709,454.986,24.8,
1458,1,SBT2050,2,9,,2,26160,4.14995,0.06644,2208.195,454.986,24.8,
1458,1,SBT2050,2,9,,2,26240,4.15003,0.06506,2209.655,454.986,24.8,
1458,1,SBT2050,2,9,,2,26320,4.15,0.06411,2211.092,454.986,24.8,
1458,1,SBT2050,2,9,,2,26400,4.150168,0.06283,2212.498,454.986,24.8,
1458,1,SBT2050,2,9,,2,26480,4.14991,0.06138,2213.877,454.986,24.8,
1458,1,SBT2050,2,9,,2,26560,4.14998,0.06078,2215.233,454.986,24.8,
1458,1,SBT2050,2,9,,2,26640,4.15013,0.0596,2216.565,454.986,24.7,
1458,1,SBT2050,2,9,,2,26720,4.15006,0.05874,2217.879,454.986,24.7,
1458,1,SBT2050,2,9,,2,26800,4.15005,0.05766,2219.165,454.986,24.7,
1458,1,SBT2050,2,9,,2,26880,4.15011,0.05663,2220.434,454.986,24.7,
1458,1,SBT2050,2,9,,2,26960,4.14983,0.05543,2221.678,454.986,24.7,
1458,1,SBT2050,2,9,,2,27040,4.149858,0.05475,2222.905,454.986,24.7,
1458,1,SBT2050,2,9,,2,27120,4.15001,0.05396,2224.115,454.986,24.7,
1458,1,SBT2050,2,9,,2,27200,4.15008,0.05306,2225.305,454.986,24.7,
1458,1,SBT2050,2,9,,2,27280,4.15005,0.05253,2226.477,454.986,24.7,
1458,1,SBT2050,2,9,,2,27360,4.15014,0.0513,2227.63,454.986,24.7,
1458,1,SBT2050,2,9,,2,27440,4.14974,0.05051,2228.763,454.986,24.7,
1458,1,SBT2050,2,9,,2,27520,4.14975,0.05001,2229.879,454.986,24.7,
1458,1,SBT2050,2,9,,2,27600,4.14995,0.04877,2230.979,454.986,24.7,
1458,1,SBT2050,2,9,,2,27680,4.14968,0.04842,2232.059,454.986,24.7,
1458,1,SBT2050,2,9,,2,27760,4.15013,0.047495,2233.126,454.986,24.7,
1458,1,SBT2050,2,9,,2,27840,4.15003,0.04699,2234.182,454.986,24.7,
1458,1,SBT2050,2,9,,2,27920,4.14995,0.045937,2235.217,454.986,24.7,
1458,1,SBT2050,2,9,,2,28000,4.15007,0.045586,2236.238,454.986,24.7,
1458,1,SBT2050,2,9,,2,28080,4.14982,0.044898,2237.246,454.986,24.7,
1458,1,SBT2050,2,9,,2,28160,4.14999,0.044075,2238.238,454.986,24.7,
1458,1,SBT2050,2,9,,2,28240,4.15004,0.043622,2239.214,454.986,24.8,
1458,1,SBT2050,2,9,,2,28320,4.1503,0.043036,2240.175,454.986,24.7,
1458,1,SBT2050,2,9,,2,28400,4.14992,0.042397,2241.124,454.986,24.7,
1458,1,SBT2050,2,9,,2,28480,4.15007,0.041957,2242.062,454.986,24.7,
1458,1,SBT2050,2,9,,2,28560,4.149894,0.041062,2242.986,454.986,24.7,
1458,1,SBT2050,2,9,,2,28640,4.15,0.040931,2243.9,454.986,24.7,
1458,1,SBT2050,2,9,,2,28720,4.14994,0.040247,2244.801,454.986,24.6,
1458,1,SBT2050,2,9,,2,28800,4.15012,0.039525,2245.688,454.986,24.7,
1458,1,SBT2050,2,9,,2,28880,4.149894,0.039274,2246.563,454.986,24.7,
1458,1,SBT2050,2,9,,2,28960,4.15004,0.038786,2247.428,454.986,24.7,
1458,1,SBT2050,2,9,,2,29040,4.15001,0.037799,2248.281,454.986,24.7,
1458,1,SBT2050,2,9,,2,29120,4.1498,0.037564,2249.119,454.986,24.7,
1458,1,SBT2050,2,9,,2,29200,4.15022,0.03695,2249.946,454.986,24.7,
1458,1,SBT2050,2,9,,2,29280,4.1501,0.036439,2250.769,454.986,24.7,
1458,1,SBT2050,2,9,,2,29360,4.14997,0.036232,2251.58,454.986,24.7,
1458,1,SBT2050,2,9,,2,29440,4.14994,0.035994,2252.378,454.986,24.7,
1458,1,SBT2050,2,9,,2,29520,4.15008,0.035338,2253.169,454.986,24.7,
1458,1,SBT2050,2,9,,2,29600,4.14977,0.035041,2253.952,454.986,24.7,
1458,1,SBT2050,2,9,,2,29680,4.15004,0.03453,2254.725,454.986,24.7,
1458,1,SBT2050,2,9,,2,29760,4.1503,0.033691,2255.492,454.986,24.7,
1458,1,SBT2050,2,9,,2,29840,4.15007,0.033636,2256.243,454.986,24.7,
1458,1,SBT2050,2,9,,2,29920,4.15004,0.033532,2256.987,454.986,24.7,
1458,1,SBT2050,2,9,,2,30000,4.15011,0.032612,2257.724,454.986,24.7,
1458,1,SBT2050,2,9,,2,30080,4.14983,0.032289,2258.446,454.986,24.7,
1458,1,SBT2050,2,9,,2,30160,4.15024,0.031902,2259.164,454.986,24.7,
1458,1,SBT2050,2,9,,2,30240,4.15008,0.031838,2259.872,454.986,24.7,
1458,1,SBT2050,2,9,,2,30320,4.1497,0.031049,2260.57,454.986,24.8,
1458,1,SBT2050,2,9,,2,30400,4.15012,0.031157,2261.262,454.986,24.8,
1458,1,SBT2050,2,9,,2,30480,4.150156,0.030704,2261.945,454.986,24.7,
1458,1,SBT2050,2,9,,2,30560,4.14995,0.02984,2262.621,454.986,24.7,
1458,1,SBT2050,2,9,,2,30640,4.149882,0.03022,2263.289,454.986,24.7,
1458,1,SBT2050,2,9,,2,30720,4.15006,0.029107,2263.951,454.986,24.7,
1458,1,SBT2050,2,9,,2,30800,4.15042,0.028851,2264.603,454.986,24.7,
1458,1,SBT2050,2,9,,2,30880,4.14991,0.028757,2265.25,454.986,24.7,
1458,1,SBT2050,2,9,,2,30960,4.14999,0.028828,2265.888,454.986,24.7,
1458,1,SBT2050,2,9,,2,31040,4.149894,0.028804,2266.523,454.986,24.7,
1458,1,SBT2050,2,9,,2,31120,4.15018,0.027852,2267.15,454.986,24.7,
1458,1,SBT2050,2,9,,2,31200,4.150156,0.027611,2267.767,454.986,24.7,
1458,1,SBT2050,2,9,,2,31280,4.149894,0.027446,2268.378,454.986,24.7,
1458,1,SBT2050,2,9,,2,31360,4.150168,0.026866,2268.986,454.986,24.7,
1458,1,SBT2050,2,9,,2,31440,4.15004,0.026799,2269.584,454.986,24.7,
1458,1,SBT2050,2,9,,2,31520,4.14982,0.026543,2270.176,454.986,24.7,
1458,1,SBT2050,2,9,,2,31600,4.14993,0.025754,2270.76,454.986,24.7,
1458,1,SBT2050,2,9,,2,31680,4.150156,0.025641,2271.342,454.986,24.7,
1458,1,SBT2050,2,9,,2,31760,4.14993,0.025616,2271.911,454.986,24.7,
1458,1,SBT2050,2,9,,2,31840,4.14976,0.025292,2272.475,454.986,24.7,
1458,1,SBT2050,2,9,,2,31920,4.14999,0.025252,2273.042,454.986,24.7,
1458,1,SBT2050,2,9,,2,32000,4.14974,0.02489,2273.601,454.986,24.7,
1458,1,SBT2050,2,9,,2,32080,4.15014,0.024527,2274.154,454.986,24.7,
1458,1,SBT2050,2,9,,2,32160,4.15014,0.024558,2274.697,454.986,24.7,
1458,1,SBT2050,2,9,,2,32240,4.15001,0.024146,2275.234,454.986,24.7,
1458,1,SBT2050,2,9,,2,32320,4.14998,0.024029,2275.768,454.986,24.7,
1458,1,SBT2050,2,9,,2,32400,4.14976,0.023628,2276.298,454.986,24.7,
1458,1,SBT2050,2,9,,2,32480,4.15004,0.02311,2276.822,454.986,24.7,
1458,1,SBT2050,2,9,,2,32560,4.15004,0.022906,2277.338,454.986,24.7,
1458,1,SBT2050,2,9,,2,32640,4.15012,0.023128,2277.851,454.986,24.7,
1458,1,SBT2050,2,9,,2,32720,4.15005,0.022621,2278.362,454.986,24.7,
1458,1,SBT2050,2,9,,2,32800,4.15026,0.022027,2278.864,454.986,24.7,
1458,1,SBT2050,2,9,,2,32880,4.15005,0.022359,2279.357,454.986,24.7,
1458,1,SBT2050,2,9,,2,32960,4.149846,0.022514,2279.855,454.986,24.7,
1458,1,SBT2050,2,9,,2,33040,4.15007,0.022232,2280.351,454.986,24.7,
1458,1,SBT2050,2,9,,2,33120,4.15024,0.021649,2280.836,454.986,24.7,
1458,1,SBT2050,2,9,,2,33200,4.15037,0.021246,2281.314,454.986,24.7,
1458,1,SBT2050,2,9,,2,33280,4.14981,0.021141,2281.791,454.986,24.7,
1458,1,SBT2050,2,9,,2,33360,4.14969,0.021012,2282.263,454.986,24.7,
1458,1,SBT2050,2,9,,2,33440,4.14991,0.02076,2282.728,454.986,24.7,
1458,1,SBT2050,2,9,,2,33520,4.15006,0.020594,2283.185,454.986,24.7,
1458,1,SBT2050,2,9,,2,33600,4.15,0.020722,2283.645,454.986,24.7,
1458,1,SBT2050,2,9,,2,33680,4.15025,0.020649,2284.103,454.986,24.7,
1458,1,SBT2050,2,9,,2,33760,4.14992,0.020421,2284.555,454.986,24.7,
1458,1,SBT2050,2,9,,2,33840,4.14992,0.020159,2285.004,454.986,24.7,
1458,1,SBT2050,2,9,,2,33920,4.1501,0.019561,2285.449,454.986,24.7,
1458,1,SBT2050,2,9,,2,34000,4.14997,0.019819,2285.889,454.986,24.7,
1458,1,SBT2050,2,9,,2,34080,4.1501,0.019366,2286.328,454.986,24.7,
1458,1,SBT2050,2,9,,2,34160,4.15014,0.019218,2286.759,454.986,24.7,
1458,1,SBT2050,2,9,,2,34240,4.14997,0.019004,2287.185,454.986,24.7,
1458,1,SBT2050,2,9,,2,34320,4.14992,0.01892,2287.608,454.986,24.7,
1458,1,SBT2050,2,9,,2,34400,4.15006,0.018449,2288.029,454.986,24.7,
1458,1,SBT2050,2,9,,2,34480,4.15012,0.018414,2288.444,454.986,24.7,
1458,1,SBT2050,2,9,,2,34560,4.15,0.01867,2288.857,454.986,24.7,
1458,1,SBT2050,2,9,,2,34640,4.150156,0.018004,2289.266,454.986,24.7,
1458,1,SBT2050,2,9,,2,34720,4.14994,0.018556,2289.67,454.986,24.7,
1458,1,SBT2050,2,9,,2,34800,4.150204,0.018092,2290.078,454.986,24.7,
1458,1,SBT2050,2,9,,2,34880,4.14987,0.018228,2290.481,454.986,24.7,
1458,1,SBT2050,2,9,,2,34960,4.15005,0.017529,2290.878,454.986,24.7,
1458,1,SBT2050,2,9,,2,35040,4.15014,0.017733,2291.273,454.986,24.7,
1458,1,SBT2050,2,9,,2,35120,4.14987,0.017734,2291.667,454.986,24.7,
1458,1,SBT2050,2,9,,2,35200,4.15006,0.017344,2292.053,454.986,24.7,
1458,1,SBT2050,2,9,,2,35280,4.14982,0.017376,2292.435,454.986,24.7,
1458,1,SBT2050,2,9,,2,35360,4.14997,0.01712,2292.814,454.986,24.6,
1458,1,SBT2050,2,9,,2,35440,4.14974,0.017206,2293.189,454.986,24.6,
1458,1,SBT2050,2,9,,2,35520,4.149846,0.016377,2293.563,454.986,24.6,
1458,1,SBT2050,2,9,,2,35600,4.15003,0.016397,2293.929,454.986,24.6,
1458,1,SBT2050,2,9,,2,35680,4.150156,0.016214,2294.293,454.986,24.6,
1458,1,SBT2050,2,9,,2,35760,4.15001,0.016482,2294.657,454.986,24.7,
1458,1,SBT2050,2,9,,2,35840,4.15013,0.015754,2295.013,454.986,24.7,
1458,1,SBT2050,2,9,,2,35920,4.15023,0.015987,2295.369,454.986,24.7,
1458,1,SBT2050,2,9,,2,36000,4.150156,0.015837,2295.724,454.986,24.7,
1458,1,SBT2050,2,9,,2,36080,4.150156,0.015651,2296.075,454.986,24.7,
1458,1,SBT2050,2,9,,2,36160,4.14993,0.016023,2296.426,454.986,24.7,
1458,1,SBT2050,2,9,,2,36240,4.15006,0.01577,2296.779,454.986,24.7,
1458,1,SBT2050,2,9,,2,36320,4.150192,0.015484,2297.129,454.986,24.7,
1458,1,SBT2050,2,9,,2,36400,4.149846,0.015546,2297.471,454.986,24.7,
1458,1,SBT2050,2,9,,2,36480,4.14999,0.015334,2297.814,454.986,24.7,
1458,1,SBT2050,2,9,,2,36560,4.14977,0.01501,2298.151,454.986,24.7,
1458,1,SBT2050,2,9,,2,36640,4.15012,0.015385,2298.487,454.986,24.7,
1458,1,SBT2050,2,9,,2,36720,4.15005,0.015146,2298.824,454.986,24.7,
1458,1,SBT2050,2,9,,2,36800,4.15005,0.015225,2299.158,454.986,24.7,
1458,1,SBT2050,2,9,,2,36880,4.1501,0.014961,2299.49,454.986,24.7,
1458,1,SBT2050,2,9,,2,36960,4.149858,0.014737,2299.815,454.986,24.7,
1458,1,SBT2050,2,9,,2,37040,4.14975,0.014861,2300.141,454.986,24.7,
1458,1,SBT2050,2,9,,2,37120,4.14987,0.014212,2300.464,454.986,24.7,
1458,1,SBT2050,2,9,,2,37200,4.150156,0.01403,2300.781,454.986,24.7,
1458,1,SBT2050,2,9,,2,37280,4.15004,0.014201,2301.098,454.986,24.6,
1458,1,SBT2050,2,9,,2,37360,4.15005,0.01418,2301.413,454.986,24.6,
1458,1,SBT2050,2,9,,2,37440,4.15005,0.013695,2301.723,454.986,24.6,
1458,1,SBT2050,2,9,,2,37520,4.15005,0.014285,2302.035,454.986,24.6,
1458,1,SBT2050,2,9,,2,37600,4.15005,0.014041,2302.347,454.986,24.7,
1458,1,SBT2050,2,9,,2,37680,4.14997,0.013942,2302.655,454.986,24.6,
1458,1,SBT2050,2,9,,2,37760,4.14993,0.013386,2302.962,454.986,24.6,
1458,1,SBT2050,2,9,,2,37840,4.15028,0.013474,2303.265,454.986,24.6,
1458,1,SBT2050,2,9,,2,37920,4.14997,0.0133,2303.566,454.986,24.6,
1458,1,SBT2050,2,9,,2,38000,4.14942,0.013658,2303.861,454.986,24.7,
1458,1,SBT2050,2,9,,2,38080,4.15033,0.012976,2304.16,454.986,24.6,
1458,1,SBT2050,2,9,,2,38160,4.14997,0.012993,2304.452,454.986,24.7,
1458,1,SBT2050,2,9,,2,38240,4.14997,0.012932,2304.745,454.986,24.6,
1458,1,SBT2050,2,9,,2,38320,4.149882,0.012915,2305.032,454.986,24.7,
1458,1,SBT2050,2,9,,2,38400,4.14994,0.012717,2305.312,454.986,24.7,
1458,1,SBT2050,2,9,,2,38480,4.15007,0.012676,2305.594,454.986,24.7,
1458,1,SBT2050,2,9,,2,38560,4.14998,0.01286,2305.876,454.986,24.7,
1458,1,SBT2050,2,9,,2,38640,4.149894,0.012735,2306.162,454.986,24.7,
1458,1,SBT2050,2,9,,2,38720,4.14979,0.012636,2306.443,454.986,24.7,
1458,1,SBT2050,2,9,,2,38800,4.15011,0.012482,2306.721,454.986,24.7,
1458,1,SBT2050,2,9,,2,38880,4.149858,0.012254,2306.998,454.986,24.7,
1458,1,SBT2050,2,9,,2,38960,4.14995,0.012532,2307.276,454.986,24.7,
1458,1,SBT2050,2,9,,2,39040,4.14981,0.012071,2307.549,454.986,24.6,
1458,1,SBT2050,2,9,,2,39120,4.14969,0.012542,2307.819,454.986,24.6,
1458,1,SBT2050,2,9,,2,39200,4.149846,0.012074,2308.082,454.986,24.6,
1458,1,SBT2050,2,9,,2,39280,4.15003,0.012087,2308.347,454.986,24.6,
1458,1,SBT2050,2,9,,2,39360,4.15038,0.012206,2308.617,454.986,24.6,
1458,1,SBT2050,2,9,,2,39440,4.15049,0.011188,2308.881,454.986,24.7,
1458,1,SBT2050,2,9,,2,39520,4.15025,0.011345,2309.141,454.986,24.7,
1458,1,SBT2050,2,9,,2,39600,4.15004,0.011988,2309.407,454.986,24.7,
1458,1,SBT2050,2,9,,2,39680,4.15007,0.011914,2309.67,454.986,24.7,
1458,1,SBT2050,2,9,,2,39760,4.15025,0.011624,2309.931,454.986,24.6,
1458,1,SBT2050,2,9,,2,39840,4.15031,0.011291,2310.187,454.986,24.6,
1458,1,SBT2050,2,9,,2,39920,4.15014,0.011621,2310.441,454.986,24.6,
1458,1,SBT2050,2,9,,2,40000,4.15007,0.011595,2310.695,454.986,24.6,
1458,1,SBT2050,2,9,,2,40080,4.15007,0.011242,2310.95,454.986,24.6,
1458,1,SBT2050,2,9,,2,40160,4.14995,0.011371,2311.202,454.986,24.6,
1458,1,SBT2050,2,9,,2,40240,4.14964,0.011256,2311.453,454.986,24.6,
1458,1,SBT2050,2,9,,2,40320,4.14962,0.011454,2311.7,454.986,24.7,
1458,1,SBT2050,2,9,,2,40400,4.150168,0.011309,2311.95,454.986,24.7,
1458,1,SBT2050,2,9,,2,40480,4.15011,0.011274,2312.196,454.986,24.7,
1458,1,SBT2050,2,9,,2,40560,4.149882,0.010966,2312.442,454.986,24.7,
1458,1,SBT2050,2,9,,2,40640,4.15001,0.0109,2312.684,454.986,24.7,
1458,1,SBT2050,2,9,,2,40720,4.149846,0.010798,2312.922,454.986,24.7,
1458,1,SBT2050,2,9,,2,40800,4.14972,0.010894,2313.162,454.986,24.7,
1458,1,SBT2050,2,9,,2,40880,4.14981,0.010293,2313.399,454.986,24.7,
1458,1,SBT2050,2,9,,2,40960,4.14998,0.010772,2313.635,454.986,24.6,
1458,1,SBT2050,2,9,,3,41039,4.14715,0,2313.662,454.986,24.6,
1458,1,SBT2050,2,9,,3,41119,4.14639,0,2313.662,454.986,24.6,
1458,1,SBT2050,2,9,,3,41199,4.14575,0,2313.662,454.986,24.7,
1458,1,SBT2050,2,9,,3,41279,4.14542,0,2313.662,454.986,24.7,
1458,1,SBT2050,2,9,,3,41359,4.14516,0,2313.662,454.986,24.7,
1458,1,SBT2050,2,9,,3,41439,4.14494,0,2313.662,454.986,24.7,
1458,1,SBT2050,2,9,,3,41519,4.144556,0,2313.662,454.986,24.6,
1458,1,SBT2050,2,9,,3,41599,4.14463,0,2313.662,454.986,24.6,
1458,1,SBT2050,2,9,,3,41679,4.14397,0,2313.662,454.986,24.6,
1458,1,SBT2050,2,9,,3,41759,4.14406,0,2313.662,454.986,24.7,
1458,1,SBT2050,2,9,,3,41839,4.143978,0,2313.662,454.986,24.6,
1458,1,SBT2050,2,9,,3,41919,4.143604,0,2313.662,454.986,24.6,
1458,1,SBT2050,2,9,,3,41999,4.1434,0,2313.662,454.986,24.6,
1458,1,SBT2050,2,9,,3,42079,4.14265,0,2313.662,454.986,24.7,
1458,1,SBT2050,2,9,,3,42159,4.14325,0,2313.662,454.986,24.6,
1458,1,SBT2050,2,9,,3,42239,4.14314,0,2313.662,454.986,24.7,
1458,1,SBT2050,2,9,,3,42319,4.14235,0,2313.662,454.986,24.7,
1458,1,SBT2050,2,9,,3,42399,4.14244,0,2313.662,454.986,24.7,
1458,1,SBT2050,2,9,,3,42479,4.14239,0,2313.662,454.986,24.7,
1458,1,SBT2050,2,9,,3,42559,4.14225,0,2313.662,454.986,24.7,
1458,1,SBT2050,2,9,,3,42639,4.14188,0,2313.662,454.986,24.6,
1458,1,SBT2050,2,9,,3,42719,4.14195,0,2313.662,454.986,24.6,
1458,1,SBT2050,2,9,,4,42798,3.74241,-2.9359,2313.662,478.289,25,
1458,1,SBT2050,2,9,,4,42878,3.67574,-2.9361,2313.662,543.532,26.4,
1458,1,SBT2050,2,9,,4,42958,3.66066,-2.9361,2313.662,608.775,27.5,
1458,1,SBT2050,2,9,,4,43038,3.6462,-2.9357,2313.662,674.018,28.4,
1458,1,SBT2050,2,9,,4,43118,3.62688,-2.9359,2313.662,739.261,28.9,
1458,1,SBT2050,2,9,,4,43198,3.60252,-2.9358,2313.662,804.504,29.2,
1458,1,SBT2050,2,9,,4,43278,3.57518,-2.9359,2313.662,869.748,29.5,
1458,1,SBT2050,2,9,,4,43358,3.54729,-2.9359,2313.662,934.991,29.7,
1458,1,SBT2050,2,9,,4,43438,3.517488,-2.9358,2313.662,1000.234,29.8,
1458,1,SBT2050,2,9,,4,43518,3.48627,-2.9359,2313.662,1065.477,29.9,
1458,1,SBT2050,2,9,,4,43598,3.45479,-2.9362,2313.662,1130.72,30,
1458,1,SBT2050,2,9,,4,43678,3.42252,-2.9357,2313.662,1195.963,30.1,
1458,1,SBT2050,2,9,,4,43758,3.38957,-2.9361,2313.662,1261.206,30.3,
1458,1,SBT2050,2,9,,4,43838,3.35627,-2.9362,2313.662,1326.449,30.4,
1458,1,SBT2050,2,9,,4,43918,3.32336,-2.9358,2313.662,1391.692,30.5,
1458,1,SBT2050,2,9,,4,43998,3.290847,-2.9356,2313.662,1456.935,30.7,
1458,1,SBT2050,2,9,,4,44078,3.258527,-2.9358,2313.662,1522.178,30.9,
1458,1,SBT2050,2,9,,4,44158,3.22613,-2.9362,2313.662,1587.421,31.1,
1458,1,SBT2050,2,9,,4,44238,3.19337,-2.936,2313.662,1652.664,31.3,
1458,1,SBT2050,2,9,,4,44318,3.159104,-2.9362,2313.662,1717.908,31.5,
1458,1,SBT2050,2,9,,4,44398,3.12275,-2.9364,2313.662,1783.151,31.7,
1458,1,SBT2050,2,9,,4,44478,3.08406,-2.9358,2313.662,1848.394,32,
1458,1,SBT2050,2,9,,4,44558,3.041005,-2.936,2313.662,1913.637,32.4,
1458,1,SBT2050,2,9,,4,44638,2.99225,-2.9359,2313.662,1978.88,32.8,
1458,1,SBT2050,2,9,,4,44718,2.942857,-2.9358,2313.662,2044.123,33.2,
1458,1,SBT2050,2,9,,4,44798,2.88945,-2.936,2313.662,2109.366,33.8,
1458,1,SBT2050,2,9,,4,44878,2.81807,-2.9359,2313.662,2174.609,34.4,
1458,1,SBT2050,2,9,,4,44958,2.70848,-2.936,2313.662,2239.852,35.1,
1458,1,SBT2050,2,9,,4,45038,2.5218,-2.936,2313.662,2305.096,36.1,
1458,1,SBT2050,2,9,,4,45118,2.49983,-2.0977,2313.662,2360.172,37,
1458,1,SBT2050,2,9,,4,45198,2.49961,-1.5325,2313.662,2400.317,36.7,
1458,1,SBT2050,2,9,,4,45278,2.49979,-1.0699,2313.662,2429.034,35.7,
1458,1,SBT2050,2,9,,4,45358,2.49973,-0.7176,2313.662,2448.693,34.3,
1458,1,SBT2050,2,9,,4,45438,2.49973,-0.4945,2313.662,2461.898,32.9,
1458,1,SBT2050,2,9,,4,45518,2.49984,-0.38527,2313.662,2471.519,31.6,
1458,1,SBT2050,2,9,,4,45598,2.50002,-0.33159,2313.662,2479.425,30.4,
1458,1,SBT2050,2,9,,4,45678,2.499897,-0.30117,2313.662,2486.434,29.6,
1458,1,SBT2050,2,9,,4,45758,2.49999,-0.28083,2313.662,2492.89,28.9,
1458,1,SBT2050,2,9,,4,45838,2.49998,-0.26554,2313.662,2498.953,28.3,
1458,1,SBT2050,2,9,,4,45918,2.5,-0.2533,2313.662,2504.713,28,
1458,1,SBT2050,2,9,,4,45998,2.49993,-0.24355,2313.662,2510.23,27.6,
1458,1,SBT2050,2,9,,4,46078,2.49993,-0.23494,2313.662,2515.543,27.4,
1458,1,SBT2050,2,9,,4,46158,2.49999,-0.22739,2313.662,2520.678,27.2,
1458,1,SBT2050,2,9,,4,46238,2.499885,-0.22077,2313.662,2525.658,27,
1458,1,SBT2050,2,9,,4,46318,2.5,-0.21463,2313.662,2530.496,26.9,
1458,1,SBT2050,2,9,,4,46398,2.49993,-0.20872,2313.662,2535.198,26.8,
1458,1,SBT2050,2,9,,4,46478,2.49991,-0.20307,2313.662,2539.773,26.7,
1458,1,SBT2050,2,9,,4,46558,2.49993,-0.19812,2313.662,2544.231,26.7,
1458,1,SBT2050,2,9,,4,46638,2.49999,-0.19323,2313.662,2548.58,26.6,
1458,1,SBT2050,2,9,,4,46718,2.49985,-0.18841,2313.662,2552.821,26.5,
1458,1,SBT2050,2,9,,4,46798,2.49994,-0.18401,2313.662,2556.958,26.5,
1458,1,SBT2050,2,9,,4,46878,2.49997,-0.17981,2313.662,2561.002,26.5,
1458,1,SBT2050,2,9,,4,46958,2.50002,-0.17587,2313.662,2564.954,26.4,
1458,1,SBT2050,2,9,,4,47038,2.50004,-0.17162,2313.662,2568.814,26.4,
1458,1,SBT2050,2,9,,4,47118,2.500052,-0.16778,2313.662,2572.586,26.4,
1458,1,SBT2050,2,9,,4,47198,2.500052,-0.1641,2313.662,2576.273,26.3,
1458,1,SBT2050,2,9,,4,47278,2.500064,-0.16038,2313.662,2579.876,26.3,
1458,1,SBT2050,2,9,,4,47358,2.49985,-0.1567,2313.662,2583.399,26.3,
1458,1,SBT2050,2,9,,4,47438,2.500052,-0.15319,2313.662,2586.841,26.3,
1458,1,SBT2050,2,9,,4,47518,2.49992,-0.14975,2313.662,2590.207,26.3,
1458,1,SBT2050,2,9,,4,47598,2.499897,-0.14634,2313.662,2593.497,26.3,
1458,1,SBT2050,2,9,,4,47678,2.49991,-0.1432,2313.662,2596.714,26.3,
1458,1,SBT2050,2,9,,4,47758,2.49996,-0.14003,2313.662,2599.859,26.2,
1458,1,SBT2050,2,9,,4,47838,2.49997,-0.13692,2313.662,2602.935,26.2,
1458,1,SBT2050,2,9,,4,47918,2.49997,-0.13375,2313.662,2605.943,26.2,
1458,1,SBT2050,2,9,,4,47998,2.49998,-0.1308,2313.662,2608.882,26.2,
1458,1,SBT2050,2,9,,4,48078,2.49997,-0.12782,2313.662,2611.755,26.2,
1458,1,SBT2050,2,9,,4,48158,2.49983,-0.12473,2313.662,2614.563,26.1,
1458,1,SBT2050,2,9,,4,48238,2.499873,-0.122,2313.662,2617.307,26.1,
1458,1,SBT2050,2,9,,4,48318,2.49993,-0.11944,2313.662,2619.99,26.1,
1458,1,SBT2050,2,9,,4,48398,2.50003,-0.11655,2313.662,2622.611,26.1,
1458,1,SBT2050,2,9,,4,48478,2.49985,-0.11393,2313.662,2625.174,26.1,
1458,1,SBT2050,2,9,,4,48558,2.50004,-0.11143,2313.662,2627.679,26,
1458,1,SBT2050,2,9,,4,48638,2.49999,-0.10915,2313.662,2630.13,26.1,
1458,1,SBT2050,2,9,,4,48718,2.49993,-0.10692,2313.662,2632.529,26,
1458,1,SBT2050,2,9,,4,48798,2.49991,-0.10444,2313.662,2634.875,26,
1458,1,SBT2050,2,9,,4,48878,2.50011,-0.10213,2313.662,2637.169,26,
1458,1,SBT2050,2,9,,4,48958,2.49999,-0.09984,2313.662,2639.414,26,
1458,1,SBT2050,2,9,,4,49038,2.50017,-0.09779,2313.662,2641.609,26,
1458,1,SBT2050,2,9,,4,49118,2.5,-0.09561,2313.662,2643.756,26,
1458,1,SBT2050,2,9,,4,49198,2.499897,-0.09362,2313.662,2645.859,26,
1458,1,SBT2050,2,9,,4,49278,2.49992,-0.09168,2313.662,2647.918,26,
1458,1,SBT2050,2,9,,4,49358,2.49981,-0.08964,2313.662,2649.934,25.9,
1458,1,SBT2050,2,9,,4,49438,2.49994,-0.08789,2313.662,2651.908,25.9,
1458,1,SBT2050,2,9,,4,49518,2.50004,-0.08645,2313.662,2653.842,25.9,
1458,1,SBT2050,2,9,,4,49598,2.49977,-0.08454,2313.662,2655.741,25.9,
1458,1,SBT2050,2,9,,4,49678,2.49999,-0.08311,2313.662,2657.604,25.9,
1458,1,SBT2050,2,9,,4,49758,2.49986,-0.08132,2313.662,2659.432,25.8,
1458,1,SBT2050,2,9,,4,49838,2.500052,-0.07999,2313.662,2661.226,25.9,
1458,1,SBT2050,2,9,,4,49918,2.5,-0.07846,2313.662,2662.986,25.9,
1458,1,SBT2050,2,9,,4,49998,2.499897,-0.07708,2313.662,2664.717,25.8,
1458,1,SBT2050,2,9,,4,50078,2.49993,-0.07579,2313.662,2666.417,25.8,
1458,1,SBT2050,2,9,,4,50158,2.50016,-0.07455,2313.662,2668.087,25.8,
1458,1,SBT2050,2,9,,4,50238,2.500064,-0.07324,2313.662,2669.727,25.8,
1458,1,SBT2050,2,9,,4,50318,2.500052,-0.07191,2313.662,2671.34,25.8,
1458,1,SBT2050,2,9,,4,50398,2.50017,-0.07072,2313.662,2672.924,25.8,
1458,1,SBT2050,2,9,,4,50478,2.49986,-0.06945,2313.662,2674.483,25.8,
1458,1,SBT2050,2,9,,4,50558,2.5,-0.06827,2313.662,2676.014,25.8,
1458,1,SBT2050,2,9,,4,50638,2.50017,-0.06725,2313.662,2677.519,25.8,
1458,1,SBT2050,2,9,,4,50718,2.499885,-0.06589,2313.662,2678.997,25.8,
1458,1,SBT2050,2,9,,4,50798,2.500052,-0.06475,2313.662,2680.449,25.8,
1458,1,SBT2050,2,9,,4,50878,2.500064,-0.06378,2313.662,2681.875,25.8,
1458,1,SBT2050,2,9,,4,50958,2.499885,-0.06253,2313.662,2683.278,25.8,
1458,1,SBT2050,2,9,,4,51038,2.500052,-0.06165,2313.662,2684.657,25.7,
1458,1,SBT2050,2,9,,4,51118,2.49985,-0.0604,2313.662,2686.013,25.7,
1458,1,SBT2050,2,9,,4,51198,2.50009,-0.05958,2313.662,2687.346,25.8,
1458,1,SBT2050,2,9,,4,51278,2.49997,-0.05845,2313.662,2688.657,25.7,
1458,1,SBT2050,2,9,,4,51358,2.49993,-0.05745,2313.662,2689.946,25.7,
1458,1,SBT2050,2,9,,4,51438,2.50004,-0.05641,2313.662,2691.214,25.7,
1458,1,SBT2050,2,9,,4,51518,2.50003,-0.05559,2313.662,2692.46,25.7,
1458,1,SBT2050,2,9,,4,51598,2.49996,-0.05459,2313.662,2693.684,25.7,
1458,1,SBT2050,2,9,,4,51678,2.50003,-0.05374,2313.662,2694.888,25.7,
1458,1,SBT2050,2,9,,4,51758,2.49994,-0.05275,2313.662,2696.07,25.7,
1458,1,SBT2050,2,9,,4,51838,2.49996,-0.05177,2313.662,2697.231,25.7,
1458,1,SBT2050,2,9,,4,51918,2.49999,-0.05077,2313.662,2698.371,25.7,
1458,1,SBT2050,2,9,,4,51998,2.49986,-0.04981,2313.662,2699.489,25.7,
1458,1,SBT2050,2,9,,4,52078,2.49996,-0.04905,2313.662,2700.588,25.7,
1458,1,SBT2050,2,9,,4,52158,2.50004,-0.04807,2313.662,2701.667,25.7,
1458,1,SBT2050,2,9,,4,52238,2.50012,-0.047238,2313.662,2702.726,25.6,
1458,1,SBT2050,2,9,,4,52318,2.49993,-0.046545,2313.662,2703.766,25.6,
1458,1,SBT2050,2,9,,4,52398,2.499885,-0.045509,2313.662,2704.788,25.7,
1458,1,SBT2050,2,9,,4,52478,2.50015,-0.044911,2313.662,2705.792,25.7,
1458,1,SBT2050,2,9,,4,52558,2.49992,-0.044144,2313.662,2706.778,25.6,
1458,1,SBT2050,2,9,,4,52638,2.50003,-0.043236,2313.662,2707.748,25.7,
1458,1,SBT2050,2,9,,4,52718,2.49979,-0.042488,2313.662,2708.702,25.6,
1458,1,SBT2050,2,9,,4,52798,2.49984,-0.041808,2313.662,2709.641,25.6,
1458,1,SBT2050,2,9,,4,52878,2.50014,-0.041249,2313.662,2710.564,25.7,
1458,1,SBT2050,2,9,,4,52958,2.49991,-0.040442,2313.662,2711.471,25.7,
1458,1,SBT2050,2,9,,4,53038,2.499897,-0.039765,2313.662,2712.363,25.6,
1458,1,SBT2050,2,9,,4,53118,2.49997,-0.039104,2313.662,2713.24,25.6,
1458,1,SBT2050,2,9,,4,53198,2.49999,-0.038376,2313.662,2714.101,25.6,
1458,1,SBT2050,2,9,,4,53278,2.49991,-0.037859,2313.662,2714.948,25.6,
1458,1,SBT2050,2,9,,4,53358,2.49998,-0.037239,2313.662,2715.783,25.6,
1458,1,SBT2050,2,9,,4,53438,2.5,-0.03675,2313.662,2716.605,25.6,
1458,1,SBT2050,2,9,,4,53518,2.49999,-0.036234,2313.662,2717.415,25.6,
1458,1,SBT2050,2,9,,4,53598,2.49985,-0.035477,2313.662,2718.214,25.6,
1458,1,SBT2050,2,9,,4,53678,2.49994,-0.035114,2313.662,2719,25.6,
1458,1,SBT2050,2,9,,4,53758,2.500052,-0.034611,2313.662,2719.773,25.6,
1458,1,SBT2050,2,9,,4,53838,2.499885,-0.033854,2313.662,2720.535,25.6,
1458,1,SBT2050,2,9,,4,53918,2.50009,-0.033452,2313.662,2721.285,25.6,
1458,1,SBT2050,2,9,,4,53998,2.50016,-0.032978,2313.662,2722.022,25.6,
1458,1,SBT2050,2,9,,4,54078,2.49994,-0.032503,2313.662,2722.749,25.6,
1458,1,SBT2050,2,9,,4,54158,2.49998,-0.032067,2313.662,2723.465,25.5,
1458,1,SBT2050,2,9,,4,54238,2.50018,-0.031545,2313.662,2724.171,25.6,
1458,1,SBT2050,2,9,,4,54318,2.49971,-0.030937,2313.662,2724.866,25.6,
1458,1,SBT2050,2,9,,4,54398,2.5001,-0.030615,2313.662,2725.55,25.6,
1458,1,SBT2050,2,9,,4,54478,2.49999,-0.030196,2313.662,2726.223,25.6,
1458,1,SBT2050,2,9,,4,54558,2.50004,-0.029636,2313.662,2726.886,25.5,
1458,1,SBT2050,2,9,,4,54638,2.49992,-0.0291,2313.662,2727.539,25.5,
1458,1,SBT2050,2,9,,4,54718,2.5,-0.02874,2313.662,2728.182,25.6,
1458,1,SBT2050,2,9,,4,54798,2.49998,-0.028245,2313.662,2728.815,25.5,
1458,1,SBT2050,2,9,,4,54878,2.50008,-0.027849,2313.662,2729.437,25.5,
1458,1,SBT2050,2,9,,4,54958,2.499897,-0.027316,2313.662,2730.05,25.5,
1458,1,SBT2050,2,9,,4,55038,2.500052,-0.026964,2313.662,2730.653,25.5,
1458,1,SBT2050,2,9,,4,55118,2.49992,-0.026469,2313.662,2731.246,25.5,
1458,1,SBT2050,2,9,,4,55198,2.50015,-0.026129,2313.662,2731.83,25.5,
1458,1,SBT2050,2,9,,4,55278,2.500064,-0.025644,2313.662,2732.405,25.5,
1458,1,SBT2050,2,9,,4,55358,2.49971,-0.025132,2313.662,2732.971,25.5,
1458,1,SBT2050,2,9,,4,55438,2.500064,-0.024945,2313.662,2733.526,25.5,
1458,1,SBT2050,2,9,,4,55518,2.49998,-0.024327,2313.662,2734.071,25.5,
1458,1,SBT2050,2,9,,4,55598,2.49981,-0.023652,2313.662,2734.607,25.5,
1458,1,SBT2050,2,9,,4,55678,2.49985,-0.023381,2313.662,2735.132,25.5,
1458,1,SBT2050,2,9,,4,55758,2.49992,-0.022882,2313.662,2735.648,25.5,
1458,1,SBT2050,2,9,,4,55838,2.500064,-0.022466,2313.662,2736.154,25.5,
1458,1,SBT2050,2,9,,4,55918,2.50008,-0.022174,2313.662,2736.65,25.5,
1458,1,SBT2050,2,9,,4,55998,2.49992,-0.021843,2313.662,2737.138,25.5,
1458,1,SBT2050,2,9,,4,56078,2.49979,-0.021456,2313.662,2737.618,25.5,
1458,1,SBT2050,2,9,,4,56158,2.50011,-0.021193,2313.662,2738.09,25.5,
1458,1,SBT2050,2,9,,4,56238,2.50012,-0.020844,2313.662,2738.555,25.5,
1458,1,SBT2050,2,9,,4,56318,2.50014,-0.020437,2313.662,2739.012,25.5,
1458,1,SBT2050,2,9,,4,56398,2.49998,-0.02003,2313.662,2739.461,25.5,
1458,1,SBT2050,2,9,,4,56478,2.49996,-0.019694,2313.662,2739.903,25.5,
1458,1,SBT2050,2,9,,4,56558,2.49985,-0.019331,2313.662,2740.338,25.5,
1458,1,SBT2050,2,9,,4,56638,2.50002,-0.019043,2313.662,2740.765,25.5,
1458,1,SBT2050,2,9,,4,56718,2.50012,-0.01869,2313.662,2741.184,25.5,
1458,1,SBT2050,2,9,,4,56798,2.499897,-0.018201,2313.662,2741.596,25.5,
1458,1,SBT2050,2,9,,4,56878,2.50003,-0.017945,2313.662,2741.999,25.5,
1458,1,SBT2050,2,9,,4,56958,2.50003,-0.017648,2313.662,2742.394,25.5,
1458,1,SBT2050,2,9,,4,57038,2.500219,-0.017421,2313.662,2742.782,25.5,
1458,1,SBT2050,2,9,,4,57118,2.50002,-0.016819,2313.662,2743.16,25.5,
1458,1,SBT2050,2,9,,4,57198,2.499885,-0.016437,2313.662,2743.531,25.5,
1458,1,SBT2050,2,9,,4,57278,2.50004,-0.016248,2313.662,2743.894,25.5,
1458,1,SBT2050,2,9,,4,57358,2.500052,-0.015751,2313.662,2744.249,25.4,
1458,1,SBT2050,2,9,,4,57438,2.50011,-0.01562,2313.662,2744.598,25.5,
1458,1,SBT2050,2,9,,4,57518,2.5001,-0.015238,2313.662,2744.94,25.4,
1458,1,SBT2050,2,9,,4,57598,2.49985,-0.014814,2313.662,2745.276,25.5,
1458,1,SBT2050,2,9,,4,57678,2.49994,-0.014712,2313.662,2745.605,25.4,
1458,1,SBT2050,2,9,,4,57758,2.50004,-0.014295,2313.662,2745.926,25.5,
1458,1,SBT2050,2,9,,4,57838,2.499897,-0.013961,2313.662,2746.241,25.5,
1458,1,SBT2050,2,9,,4,57918,2.50002,-0.013845,2313.662,2746.55,25.4,
1458,1,SBT2050,2,9,,4,57998,2.500052,-0.01357,2313.662,2746.853,25.5,
1458,1,SBT2050,2,9,,4,58078,2.499885,-0.013379,2313.662,2747.15,25.5,
1458,1,SBT2050,2,9,,4,58158,2.50014,-0.01316,2313.662,2747.443,25.5,
1458,1,SBT2050,2,9,,4,58238,2.50009,-0.012887,2313.662,2747.73,25.4,
1458,1,SBT2050,2,9,,4,58318,2.49983,-0.012651,2313.662,2748.013,25.4,
1458,1,SBT2050,2,9,,4,58398,2.5,-0.012351,2313.662,2748.291,25.5,
1458,1,SBT2050,2,9,,4,58478,2.49998,-0.012195,2313.662,2748.565,25.4,
1458,1,SBT2050,2,9,,4,58558,2.49994,-0.01207,2313.662,2748.834,25.4,
1458,1,SBT2050,2,9,,4,58638,2.499873,-0.01176,2313.662,2749.099,25.5,
1458,1,SBT2050,2,9,,4,58718,2.500064,-0.011583,2313.662,2749.36,25.4,
1458,1,SBT2050,2,9,,4,58798,2.49999,-0.011449,2313.662,2749.616,25.4,
1458,1,SBT2050,2,9,,4,58878,2.5002,-0.01123,2313.662,2749.868,25.5,
1458,1,SBT2050,2,9,,4,58958,2.5,-0.011042,2313.662,2750.116,25.4,
1458,1,SBT2050,2,9,,4,59038,2.49991,-0.010873,2313.662,2750.36,25.4,
1458,1,SBT2050,2,9,,4,59118,2.50014,-0.010739,2313.662,2750.6,25.4,
1458,1,SBT2050,2,9,,4,59198,2.500064,-0.010453,2313.662,2750.837,25.4,
1458,1,SBT2050,2,9,,4,59278,2.49996,-0.010364,2313.662,2751.07,25.4,
1458,1,SBT2050,2,9,,5,59357,2.55282,0,2313.662,2751.121,25.4,
1458,1,SBT2050,2,9,,5,59437,2.601136,0,2313.662,2751.121,25.4,
1458,1,SBT2050,2,9,,5,59517,2.64003,0,2313.662,2751.121,25.4,
1458,1,SBT2050,2,9,,5,59597,2.67148,0,2313.662,2751.121,25.4,
1458,1,SBT2050,2,9,,5,59677,2.69771,0,2313.662,2751.121,25.4,
1458,1,SBT2050,2,9,,5,59757,2.71897,0,2313.662,2751.121,25.4,
1458,1,SBT2050,2,9,,5,59837,2.73702,0,2313.662,2751.121,25.4,
1458,1,SBT2050,2,9,,5,59917,2.75249,0,2313.662,2751.121,25.4,
1458,1,SBT2050,2,9,,5,59997,2.76584,0,2313.662,2751.121,25.4,
1458,1,SBT2050,2,9,,5,60077,2.77659,0,2313.662,2751.121,25.4,
1458,1,SBT2050,2,9,,5,60157,2.786263,0,2313.662,2751.121,25.4,
1458,1,SBT2050,2,9,,5,60237,2.79433,0,2313.662,2751.121,25.4,
1458,1,SBT2050,2,9,,5,60317,2.80178,0,2313.662,2751.121,25.4,
1458,1,SBT2050,2,9,,5,60397,2.80832,0,2313.662,2751.121,25.4,
1458,1,SBT2050,2,9,,5,60477,2.814202,0,2313.662,2751.121,25.3,
1458,1,SBT2050,2,9,,5,60557,2.81932,0,2313.662,2751.121,25.3,
1458,1,SBT2050,2,9,,5,60637,2.82426,0,2313.662,2751.121,25.3,
1458,1,SBT2050,2,9,,5,60717,2.828947,0,2313.662,2751.121,25.3,
1458,1,SBT2050,2,9,,5,60797,2.83322,0,2313.662,2751.121,25.3,
1458,1,SBT2050,2,9,,5,60877,2.83727,0,2313.662,2751.121,25.4,
1458,1,SBT2050,2,9,,5,60957,2.84083,0,2313.662,2751.121,25.4,
1458,1,SBT2050,2,9,,5,61037,2.844559,0,2313.662,2751.121,25.4,
1458,1,SBT2050,2,9,,5,61095.572,2.84679,-9.8E-05,2313.662,2751.121,,