File: 2C/Test1410.csv
Request Year:,2018,,,,,,,,,,,,
Test:,1410,,,,,,,,,,,,
Test Description:,,,,,,,,,,,,,
TestRegime Name:,Aging_Performance,,,,,,,,,,,,
TestRegime Suffix:,SHP_LC,,,,,,,,,,,,
TestRegime CellSize:,18650,,,,,,,,,,,,
TestRegime Version:,1,,,,,,,,,,,,
Number Of Cells:,1,,,,,,,,,,,,
LotID:,,,,,,,,,,,,,
Lot Description:,,,,,,,,,,,,,
Date Made:,1/21/2003 12:00 AM,,,,,,,,,,,,
Origin:,Other,,,,,,,,,,,,
Requestor:,Admin,,,,,,,,,,,,
Product ID:,Default product,,,,,,,,,,,,
Storage Temp:,R.T./AMB,,,,,,,,,,,,
Storage Delay:,0 days,,,,,,,,,,,,
Test Temp:,R.T./AMB,,,,,,,,,,,,
Start Time:,3/29/2018 10:32 AM,,,,,,,,,,,,
End Time:,3/29/2018 8:22 PM,,,,,,,,,,,,
Operator Instructions:,,,,,,,,,,,,,
Test,Cell,Rack,Shelf,Position,Cell ID,Step,Total Time (Seconds),Voltage (V),Current (A),Charge Capacity (mAh),Discharge Capacity (mAh),TC1 (Â°C),
1410,1,SBT2050,2,9,,0,1,3.36308,0,0,0,24.9,
1410,1,SBT2050,2,9,,0,47,3.36301,0,0,0,24.9,
1410,1,SBT2050,2,9,,0,93,3.36314,0,0,0,24.9,
1410,1,SBT2050,2,9,,0,139,3.36359,0,0,0,24.9,
1410,1,SBT2050,2,9,,0,185,3.36344,0,0,0,24.9,
1410,1,SBT2050,2,9,,0,231,3.36407,0,0,0,24.9,
1410,1,SBT2050,2,9,,0,277,3.36447,0,0,0,24.9,
1410,1,SBT2050,2,9,,1,323,2.77704,-2.9359,0,18.756,25.4,
1410,1,SBT2050,2,9,,1,369,2.499464,-2.5517,0,55.654,27.4,
1410,1,SBT2050,2,9,,1,415,2.49968,-1.8513,0,83.169,28.8,
1410,1,SBT2050,2,9,,1,461,2.499619,-1.4031,0,103.788,29.5,
1410,1,SBT2050,2,9,,1,507,2.49967,-1.0782,0,119.554,29.8,
1410,1,SBT2050,2,9,,1,553,2.49968,-0.8035,0,131.548,29.7,
1410,1,SBT2050,2,9,,1,599,2.4995,-0.5625,0,140.219,29.4,
1410,1,SBT2050,2,9,,1,645,2.4994,-0.37376,0,146.147,29.1,
1410,1,SBT2050,2,9,,1,691,2.49939,-0.24091,0,150.011,28.6,
1410,1,SBT2050,2,9,,1,737,2.49933,-0.1666,0,152.565,28.2,
1410,1,SBT2050,2,9,,1,783,2.49974,-0.12989,0,154.43,27.8,
1410,1,SBT2050,2,9,,1,829,2.49976,-0.11084,0,155.955,27.4,
1410,1,SBT2050,2,9,,1,875,2.49993,-0.09968,0,157.294,27.1,
1410,1,SBT2050,2,9,,1,921,2.5,-0.0922,0,158.517,26.8,
1410,1,SBT2050,2,9,,1,967,2.49987,-0.08649,0,159.656,26.6,
1410,1,SBT2050,2,9,,1,1013,2.49992,-0.08192,0,160.731,26.4,
1410,1,SBT2050,2,9,,1,1059,2.50008,-0.07798,0,161.752,26.3,
1410,1,SBT2050,2,9,,1,1105,2.50006,-0.075,0,162.729,26.1,
1410,1,SBT2050,2,9,,1,1151,2.49993,-0.07224,0,163.669,26,
1410,1,SBT2050,2,9,,1,1197,2.49987,-0.06983,0,164.576,25.8,
1410,1,SBT2050,2,9,,1,1243,2.5,-0.06779,0,165.455,25.7,
1410,1,SBT2050,2,9,,1,1289,2.5001,-0.06572,0,166.308,25.6,
1410,1,SBT2050,2,9,,1,1335,2.499786,-0.06392,0,167.137,25.5,
1410,1,SBT2050,2,9,,1,1381,2.499953,-0.06226,0,167.944,25.5,
1410,1,SBT2050,2,9,,1,1427,2.50012,-0.06081,0,168.731,25.4,
1410,1,SBT2050,2,9,,1,1473,2.49999,-0.05938,0,169.5,25.4,
1410,1,SBT2050,2,9,,1,1519,2.499953,-0.05814,0,170.25,25.4,
1410,1,SBT2050,2,9,,1,1565,2.49987,-0.05664,0,170.983,25.3,
1410,1,SBT2050,2,9,,1,1611,2.50008,-0.05555,0,171.7,25.3,
1410,1,SBT2050,2,9,,1,1657,2.50004,-0.05429,0,172.401,25.3,
1410,1,SBT2050,2,9,,1,1703,2.499965,-0.05324,0,173.088,25.3,
1410,1,SBT2050,2,9,,1,1749,2.49987,-0.05206,0,173.76,25.3,
1410,1,SBT2050,2,9,,1,1795,2.50001,-0.05104,0,174.419,25.3,
1410,1,SBT2050,2,9,,1,1841,2.499798,-0.04993,0,175.065,25.2,
1410,1,SBT2050,2,9,,1,1887,2.50005,-0.04916,0,175.698,25.2,
1410,1,SBT2050,2,9,,1,1933,2.499953,-0.04817,0,176.32,25.2,
1410,1,SBT2050,2,9,,1,1979,2.5,-0.047235,0,176.929,25.2,
1410,1,SBT2050,2,9,,1,2025,2.50006,-0.046423,0,177.527,25.2,
1410,1,SBT2050,2,9,,1,2071,2.50006,-0.045585,0,178.115,25.2,
1410,1,SBT2050,2,9,,1,2117,2.5001,-0.044881,0,178.693,25.2,
1410,1,SBT2050,2,9,,1,2163,2.49991,-0.04397,0,179.261,25.1,
1410,1,SBT2050,2,9,,1,2209,2.50005,-0.043356,0,179.819,25.1,
1410,1,SBT2050,2,9,,1,2255,2.49993,-0.042684,0,180.368,25.1,
1410,1,SBT2050,2,9,,1,2301,2.50001,-0.041882,0,180.909,25.2,
1410,1,SBT2050,2,9,,1,2347,2.499953,-0.041253,0,181.441,25.2,
1410,1,SBT2050,2,9,,1,2393,2.49999,-0.040708,0,181.965,25.1,
1410,1,SBT2050,2,9,,1,2439,2.500108,-0.040191,0,182.481,25.1,
1410,1,SBT2050,2,9,,1,2485,2.5001,-0.039556,0,182.99,25.1,
1410,1,SBT2050,2,9,,1,2531,2.49986,-0.038886,0,183.492,25.1,
1410,1,SBT2050,2,9,,1,2577,2.49986,-0.038345,0,183.987,25.1,
1410,1,SBT2050,2,9,,1,2623,2.49991,-0.037853,0,184.476,25.1,
1410,1,SBT2050,2,9,,1,2669,2.50004,-0.037431,0,184.957,25.1,
1410,1,SBT2050,2,9,,1,2715,2.49992,-0.036931,0,185.432,25.1,
1410,1,SBT2050,2,9,,1,2761,2.5,-0.036497,0,185.901,25.1,
1410,1,SBT2050,2,9,,1,2807,2.50016,-0.036032,0,186.363,25.1,
1410,1,SBT2050,2,9,,1,2853,2.50006,-0.035418,0,186.819,25.1,
1410,1,SBT2050,2,9,,1,2899,2.50022,-0.034975,0,187.269,25.1,
1410,1,SBT2050,2,9,,1,2945,2.50006,-0.034522,0,187.713,25.1,
1410,1,SBT2050,2,9,,1,2991,2.49991,-0.034114,0,188.151,25,
1410,1,SBT2050,2,9,,1,3037,2.499941,-0.033597,0,188.583,25.1,
1410,1,SBT2050,2,9,,1,3083,2.50007,-0.033168,0,189.01,25,
1410,1,SBT2050,2,9,,1,3129,2.500108,-0.032755,0,189.431,25,
1410,1,SBT2050,2,9,,1,3175,2.50004,-0.032328,0,189.846,25.1,
1410,1,SBT2050,2,9,,1,3221,2.499953,-0.032028,0,190.256,25.1,
1410,1,SBT2050,2,9,,1,3267,2.5,-0.03142,0,190.661,25.1,
1410,1,SBT2050,2,9,,1,3313,2.49998,-0.031094,0,191.061,25,
1410,1,SBT2050,2,9,,1,3359,2.49985,-0.030489,0,191.455,25,
1410,1,SBT2050,2,9,,1,3405,2.50016,-0.030192,0,191.844,25.1,
1410,1,SBT2050,2,9,,1,3451,2.49998,-0.029878,0,192.228,25,
1410,1,SBT2050,2,9,,1,3497,2.49993,-0.029408,0,192.607,25.1,
1410,1,SBT2050,2,9,,1,3543,2.50023,-0.029315,0,192.981,25,
1410,1,SBT2050,2,9,,1,3589,2.499941,-0.028684,0,193.35,25,
1410,1,SBT2050,2,9,,1,3635,2.499965,-0.028257,0,193.714,25,
1410,1,SBT2050,2,9,,1,3681,2.49998,-0.027863,0,194.073,25,
1410,1,SBT2050,2,9,,1,3727,2.50002,-0.027514,0,194.427,25,
1410,1,SBT2050,2,9,,1,3773,2.499941,-0.027174,0,194.776,25,
1410,1,SBT2050,2,9,,1,3819,2.499953,-0.026767,0,195.121,25,
1410,1,SBT2050,2,9,,1,3865,2.5002,-0.026569,0,195.461,25,
1410,1,SBT2050,2,9,,1,3911,2.500132,-0.026146,0,195.796,25,
1410,1,SBT2050,2,9,,1,3957,2.50001,-0.025632,0,196.127,25,
1410,1,SBT2050,2,9,,1,4003,2.50006,-0.025367,0,196.454,24.9,
1410,1,SBT2050,2,9,,1,4049,2.49992,-0.025154,0,196.777,25,
1410,1,SBT2050,2,9,,1,4095,2.49987,-0.024782,0,197.097,24.9,
1410,1,SBT2050,2,9,,1,4141,2.50014,-0.02475,0,197.412,25,
1410,1,SBT2050,2,9,,1,4187,2.499798,-0.024243,0,197.723,25,
1410,1,SBT2050,2,9,,1,4233,2.50001,-0.023874,0,198.031,25,
1410,1,SBT2050,2,9,,1,4279,2.49999,-0.023604,0,198.334,25,
1410,1,SBT2050,2,9,,1,4325,2.50001,-0.023368,0,198.634,25,
1410,1,SBT2050,2,9,,1,4371,2.50008,-0.023032,0,198.931,24.9,
1410,1,SBT2050,2,9,,1,4417,2.50007,-0.022766,0,199.223,25,
1410,1,SBT2050,2,9,,1,4463,2.49999,-0.022474,0,199.512,25,
1410,1,SBT2050,2,9,,1,4509,2.50006,-0.022325,0,199.797,25,
1410,1,SBT2050,2,9,,1,4555,2.50006,-0.021959,0,200.078,25,
1410,1,SBT2050,2,9,,1,4601,2.50006,-0.021627,0,200.356,25,
1410,1,SBT2050,2,9,,1,4647,2.50001,-0.021193,0,200.629,25,
1410,1,SBT2050,2,9,,1,4693,2.5,-0.021022,0,200.899,24.9,
1410,1,SBT2050,2,9,,1,4739,2.49998,-0.020559,0,201.166,25,
1410,1,SBT2050,2,9,,1,4785,2.49968,-0.020403,0,201.429,25,
1410,1,SBT2050,2,9,,1,4831,2.50008,-0.02023,0,201.688,25,
1410,1,SBT2050,2,9,,1,4877,2.499941,-0.019745,0,201.944,25,
1410,1,SBT2050,2,9,,1,4923,2.500108,-0.019695,0,202.197,25,
1410,1,SBT2050,2,9,,1,4969,2.50002,-0.019509,0,202.446,25,
1410,1,SBT2050,2,9,,1,5015,2.50007,-0.019111,0,202.692,25,
1410,1,SBT2050,2,9,,1,5061,2.50005,-0.018891,0,202.934,25,
1410,1,SBT2050,2,9,,1,5107,2.50008,-0.018642,0,203.174,25,
1410,1,SBT2050,2,9,,1,5153,2.49986,-0.018196,0,203.41,25,
1410,1,SBT2050,2,9,,1,5199,2.50004,-0.018115,0,203.643,25,
1410,1,SBT2050,2,9,,1,5245,2.499965,-0.01774,0,203.873,25,
1410,1,SBT2050,2,9,,1,5291,2.49993,-0.017596,0,204.099,24.9,
1410,1,SBT2050,2,9,,1,5337,2.49993,-0.017298,0,204.322,25,
1410,1,SBT2050,2,9,,1,5383,2.499965,-0.017116,0,204.542,24.9,
1410,1,SBT2050,2,9,,1,5429,2.50014,-0.016854,0,204.759,24.9,
1410,1,SBT2050,2,9,,1,5475,2.49982,-0.016547,0,204.973,24.9,
1410,1,SBT2050,2,9,,1,5521,2.49999,-0.016409,0,205.184,25,
1410,1,SBT2050,2,9,,1,5567,2.49991,-0.016034,0,205.392,25,
1410,1,SBT2050,2,9,,1,5613,2.49992,-0.015837,0,205.597,24.9,
1410,1,SBT2050,2,9,,1,5659,2.5,-0.015562,0,205.799,25,
1410,1,SBT2050,2,9,,1,5705,2.5,-0.015549,0,205.998,24.9,
1410,1,SBT2050,2,9,,1,5751,2.49999,-0.015246,0,206.193,24.9,
1410,1,SBT2050,2,9,,1,5797,2.49985,-0.014871,0,206.386,24.9,
1410,1,SBT2050,2,9,,1,5843,2.49993,-0.014577,0,206.576,25,
1410,1,SBT2050,2,9,,1,5889,2.49991,-0.014459,0,206.762,24.9,
1410,1,SBT2050,2,9,,1,5935,2.499965,-0.014257,0,206.946,25,
1410,1,SBT2050,2,9,,1,5981,2.49999,-0.014107,0,207.127,24.9,
1410,1,SBT2050,2,9,,1,6027,2.5001,-0.013733,0,207.305,24.9,
1410,1,SBT2050,2,9,,1,6073,2.499953,-0.013615,0,207.48,24.9,
1410,1,SBT2050,2,9,,1,6119,2.49989,-0.013302,0,207.652,24.9,
1410,1,SBT2050,2,9,,1,6165,2.49989,-0.013107,0,207.822,24.9,
1410,1,SBT2050,2,9,,1,6211,2.50001,-0.012993,0,207.989,24.9,
1410,1,SBT2050,2,9,,1,6257,2.49986,-0.012595,0,208.154,24.9,
1410,1,SBT2050,2,9,,1,6303,2.50019,-0.012598,0,208.317,24.9,
1410,1,SBT2050,2,9,,1,6349,2.499953,-0.01242,0,208.476,24.9,
1410,1,SBT2050,2,9,,1,6395,2.49998,-0.012239,0,208.634,24.9,
1410,1,SBT2050,2,9,,1,6441,2.499953,-0.012062,0,208.789,24.9,
1410,1,SBT2050,2,9,,1,6487,2.49983,-0.011818,0,208.942,24.9,
1410,1,SBT2050,2,9,,1,6533,2.49999,-0.011646,0,209.092,24.9,
1410,1,SBT2050,2,9,,1,6579,2.50008,-0.011451,0,209.24,24.9,
1410,1,SBT2050,2,9,,1,6625,2.50002,-0.011255,0,209.386,24.9,
1410,1,SBT2050,2,9,,1,6671,2.50001,-0.011207,0,209.53,24.9,
1410,1,SBT2050,2,9,,1,6717,2.499965,-0.010965,0,209.671,24.9,
1410,1,SBT2050,2,9,,1,6763,2.50014,-0.010967,0,209.811,24.9,
1410,1,SBT2050,2,9,,1,6809,2.50006,-0.010781,0,209.949,24.9,
1410,1,SBT2050,2,9,,1,6855,2.49983,-0.010461,0,210.085,24.9,
1410,1,SBT2050,2,9,,1,6901,2.50007,-0.010375,0,210.219,24.8,
1410,1,SBT2050,2,9,,1,6947,2.499965,-0.010249,0,210.35,24.9,
1410,1,SBT2050,2,9,,2,6992,3.38154,2.9361,25.382,210.39,25,
1410,1,SBT2050,2,9,,2,7038,3.56616,2.9364,62.897,210.39,25.4,
1410,1,SBT2050,2,9,,2,7084,3.6501,2.9364,100.412,210.39,25.8,
1410,1,SBT2050,2,9,,2,7130,3.67148,2.936,137.927,210.39,26.4,
1410,1,SBT2050,2,9,,2,7176,3.68308,2.9359,175.442,210.39,26.9,
1410,1,SBT2050,2,9,,2,7222,3.695244,2.9356,212.957,210.39,27.4,
1410,1,SBT2050,2,9,,2,7268,3.70786,2.9363,250.471,210.39,27.8,
1410,1,SBT2050,2,9,,2,7314,3.72083,2.9357,287.986,210.39,28.2,
1410,1,SBT2050,2,9,,2,7360,3.7318,2.936,325.501,210.39,28.4,
1410,1,SBT2050,2,9,,2,7406,3.74167,2.9358,363.016,210.39,28.6,
1410,1,SBT2050,2,9,,2,7452,3.751352,2.9361,400.531,210.39,28.7,
1410,1,SBT2050,2,9,,2,7498,3.760028,2.9359,438.045,210.39,28.9,
1410,1,SBT2050,2,9,,2,7544,3.769196,2.936,475.56,210.39,29,
1410,1,SBT2050,2,9,,2,7590,3.77815,2.9357,513.075,210.39,29.1,
1410,1,SBT2050,2,9,,2,7636,3.78727,2.936,550.59,210.39,29.2,
1410,1,SBT2050,2,9,,2,7682,3.79635,2.936,588.105,210.39,29.2,
1410,1,SBT2050,2,9,,2,7728,3.80557,2.9362,625.619,210.39,29.3,
1410,1,SBT2050,2,9,,2,7774,3.8151,2.9356,663.134,210.39,29.2,
1410,1,SBT2050,2,9,,2,7820,3.824878,2.9358,700.649,210.39,29.3,
1410,1,SBT2050,2,9,,2,7866,3.83415,2.936,738.164,210.39,29.4,
1410,1,SBT2050,2,9,,2,7912,3.84437,2.9358,775.679,210.39,29.4,
1410,1,SBT2050,2,9,,2,7958,3.85432,2.9355,813.193,210.39,29.4,
1410,1,SBT2050,2,9,,2,8004,3.8648,2.9358,850.708,210.39,29.4,
1410,1,SBT2050,2,9,,2,8050,3.87584,2.9361,888.223,210.39,29.5,
1410,1,SBT2050,2,9,,2,8096,3.88707,2.9355,925.738,210.39,29.5,
1410,1,SBT2050,2,9,,2,8142,3.89856,2.936,963.253,210.39,29.5,
1410,1,SBT2050,2,9,,2,8188,3.91143,2.9358,1000.767,210.39,29.6,
1410,1,SBT2050,2,9,,2,8234,3.923344,2.9359,1038.282,210.39,29.7,
1410,1,SBT2050,2,9,,2,8280,3.936416,2.9358,1075.797,210.39,29.7,
1410,1,SBT2050,2,9,,2,8326,3.95004,2.9361,1113.312,210.39,29.7,
1410,1,SBT2050,2,9,,2,8372,3.96373,2.9361,1150.827,210.39,29.8,
1410,1,SBT2050,2,9,,2,8418,3.97735,2.936,1188.342,210.39,29.8,
1410,1,SBT2050,2,9,,2,8464,3.99177,2.9361,1225.857,210.39,29.9,
1410,1,SBT2050,2,9,,2,8510,4.00578,2.936,1263.371,210.39,30,
1410,1,SBT2050,2,9,,2,8556,4.02024,2.9356,1300.886,210.39,30.1,
1410,1,SBT2050,2,9,,2,8602,4.03433,2.9364,1338.401,210.39,30.1,
1410,1,SBT2050,2,9,,2,8648,4.04873,2.936,1375.916,210.39,30.2,
1410,1,SBT2050,2,9,,2,8694,4.06287,2.9357,1413.431,210.39,30.2,
1410,1,SBT2050,2,9,,2,8740,4.07714,2.9364,1450.946,210.39,30.3,
1410,1,SBT2050,2,9,,2,8786,4.091472,2.9357,1488.461,210.39,30.3,
1410,1,SBT2050,2,9,,2,8832,4.10521,2.9362,1525.975,210.39,30.4,
1410,1,SBT2050,2,9,,2,8878,4.11964,2.936,1563.49,210.39,30.4,
1410,1,SBT2050,2,9,,2,8924,4.13394,2.9358,1601.005,210.39,30.5,
1410,1,SBT2050,2,9,,2,8970,4.14828,2.9363,1638.52,210.39,30.6,
1410,1,SBT2050,2,9,,2,9016,4.150002,2.7594,1674.961,210.39,30.6,
1410,1,SBT2050,2,9,,2,9062,4.150288,2.6083,1709.254,210.39,30.6,
1410,1,SBT2050,2,9,,2,9108,4.15016,2.4739,1741.725,210.39,30.5,
1410,1,SBT2050,2,9,,2,9154,4.150014,2.3434,1772.488,210.39,30.4,
1410,1,SBT2050,2,9,,2,9200,4.15015,2.2182,1801.618,210.39,30.2,
1410,1,SBT2050,2,9,,2,9246,4.15044,2.0996,1829.205,210.39,30,
1410,1,SBT2050,2,9,,2,9292,4.150002,1.9896,1855.326,210.39,29.8,
1410,1,SBT2050,2,9,,2,9338,4.15017,1.8824,1880.057,210.39,29.6,
1410,1,SBT2050,2,9,,2,9384,4.14988,1.7846,1903.495,210.39,29.4,
1410,1,SBT2050,2,9,,2,9430,4.150002,1.6929,1925.705,210.39,29.2,
1410,1,SBT2050,2,9,,2,9476,4.14994,1.6069,1946.773,210.39,28.9,
1410,1,SBT2050,2,9,,2,9522,4.15009,1.5257,1966.773,210.39,28.7,
1410,1,SBT2050,2,9,,2,9568,4.15013,1.448,1985.761,210.39,28.4,
1410,1,SBT2050,2,9,,2,9614,4.14978,1.3772,2003.803,210.39,28.2,
1410,1,SBT2050,2,9,,2,9660,4.14999,1.3103,2020.962,210.39,28.1,
1410,1,SBT2050,2,9,,2,9706,4.14999,1.2488,2037.3,210.39,27.9,
1410,1,SBT2050,2,9,,2,9752,4.15009,1.1909,2052.865,210.39,27.7,
1410,1,SBT2050,2,9,,2,9798,4.15011,1.1355,2067.714,210.39,27.5,
1410,1,SBT2050,2,9,,2,9844,4.14986,1.0847,2081.892,210.39,27.4,
1410,1,SBT2050,2,9,,2,9890,4.14985,1.036,2095.427,210.39,27.2,
1410,1,SBT2050,2,9,,2,9936,4.14995,0.9909,2108.37,210.39,27.1,
1410,1,SBT2050,2,9,,2,9982,4.15012,0.9469,2120.753,210.39,26.9,
1410,1,SBT2050,2,9,,2,10028,4.14986,0.9076,2132.603,210.39,26.8,
1410,1,SBT2050,2,9,,2,10074,4.15012,0.8721,2143.971,210.39,26.7,
1410,1,SBT2050,2,9,,2,10120,4.15012,0.8358,2154.873,210.39,26.6,
1410,1,SBT2050,2,9,,2,10166,4.15012,0.8034,2165.335,210.39,26.5,
1410,1,SBT2050,2,9,,2,10212,4.15012,0.7713,2175.393,210.39,26.4,
1410,1,SBT2050,2,9,,2,10258,4.15007,0.7422,2185.058,210.39,26.3,
1410,1,SBT2050,2,9,,2,10304,4.15025,0.7129,2194.353,210.39,26.2,
1410,1,SBT2050,2,9,,2,10350,4.1501,0.6867,2203.297,210.39,26.1,
1410,1,SBT2050,2,9,,2,10396,4.15005,0.6618,2211.914,210.39,26,
1410,1,SBT2050,2,9,,2,10442,4.150014,0.6384,2220.212,210.39,26,
1410,1,SBT2050,2,9,,2,10488,4.15004,0.6154,2228.217,210.39,25.9,
1410,1,SBT2050,2,9,,2,10534,4.15006,0.594,2235.94,210.39,25.8,
1410,1,SBT2050,2,9,,2,10580,4.150002,0.5744,2243.402,210.39,25.8,
1410,1,SBT2050,2,9,,2,10626,4.15006,0.5535,2250.609,210.39,25.7,
1410,1,SBT2050,2,9,,2,10672,4.14991,0.5354,2257.568,210.39,25.7,
1410,1,SBT2050,2,9,,2,10718,4.14993,0.5187,2264.296,210.39,25.7,
1410,1,SBT2050,2,9,,2,10764,4.15009,0.5002,2270.809,210.39,25.6,
1410,1,SBT2050,2,9,,2,10810,4.15022,0.4858,2277.107,210.39,25.6,
1410,1,SBT2050,2,9,,2,10856,4.150026,0.4706,2283.21,210.39,25.5,
1410,1,SBT2050,2,9,,2,10902,4.14988,0.45666,2289.12,210.39,25.5,
1410,1,SBT2050,2,9,,2,10948,4.15012,0.44193,2294.858,210.39,25.4,
1410,1,SBT2050,2,9,,2,10994,4.14995,0.42866,2300.422,210.39,25.5,
1410,1,SBT2050,2,9,,2,11040,4.15037,0.41596,2305.822,210.39,25.4,
1410,1,SBT2050,2,9,,2,11086,4.15011,0.4036,2311.057,210.39,25.4,
1410,1,SBT2050,2,9,,2,11132,4.15004,0.39148,2316.133,210.39,25.3,
1410,1,SBT2050,2,9,,2,11178,4.14997,0.38031,2321.068,210.39,25.3,
1410,1,SBT2050,2,9,,2,11224,4.14988,0.36986,2325.861,210.39,25.3,
1410,1,SBT2050,2,9,,2,11270,4.15007,0.359,2330.514,210.39,25.3,
1410,1,SBT2050,2,9,,2,11316,4.15023,0.34873,2335.039,210.39,25.3,
1410,1,SBT2050,2,9,,2,11362,4.15011,0.33937,2339.442,210.39,25.3,
1410,1,SBT2050,2,9,,2,11408,4.14999,0.33045,2343.727,210.39,25.3,
1410,1,SBT2050,2,9,,2,11454,4.15011,0.32149,2347.893,210.39,25.3,
1410,1,SBT2050,2,9,,2,11500,4.15004,0.31254,2351.946,210.39,25.2,
1410,1,SBT2050,2,9,,2,11546,4.15018,0.30424,2355.894,210.39,25.2,
1410,1,SBT2050,2,9,,2,11592,4.14986,0.29665,2359.735,210.39,25.2,
1410,1,SBT2050,2,9,,2,11638,4.15009,0.28978,2363.482,210.39,25.2,
1410,1,SBT2050,2,9,,2,11684,4.15012,0.28155,2367.127,210.39,25.1,
1410,1,SBT2050,2,9,,2,11730,4.150026,0.27446,2370.684,210.39,25.2,
1410,1,SBT2050,2,9,,2,11776,4.149978,0.26709,2374.145,210.39,25.2,
1410,1,SBT2050,2,9,,2,11822,4.15004,0.26145,2377.526,210.39,25.1,
1410,1,SBT2050,2,9,,2,11868,4.15015,0.25454,2380.825,210.39,25.1,
1410,1,SBT2050,2,9,,2,11914,4.15023,0.24889,2384.041,210.39,25.1,
1410,1,SBT2050,2,9,,2,11960,4.14981,0.24302,2387.183,210.39,25.1,
1410,1,SBT2050,2,9,,2,12006,4.15022,0.23651,2390.244,210.39,25.1,
1410,1,SBT2050,2,9,,2,12052,4.1503,0.23076,2393.226,210.39,25.1,
1410,1,SBT2050,2,9,,2,12098,4.14991,0.22505,2396.144,210.39,25.1,
1410,1,SBT2050,2,9,,2,12144,4.15023,0.22046,2398.992,210.39,25.1,
1410,1,SBT2050,2,9,,2,12190,4.14994,0.21553,2401.777,210.39,25.1,
1410,1,SBT2050,2,9,,2,12236,4.15019,0.21007,2404.496,210.39,25,
1410,1,SBT2050,2,9,,2,12282,4.1502,0.20559,2407.149,210.39,25,
1410,1,SBT2050,2,9,,2,12328,4.15004,0.20133,2409.746,210.39,25.1,
1410,1,SBT2050,2,9,,2,12374,4.14995,0.19634,2412.284,210.39,25.1,
1410,1,SBT2050,2,9,,2,12420,4.149978,0.19223,2414.762,210.39,25.1,
1410,1,SBT2050,2,9,,2,12466,4.15019,0.18771,2417.194,210.39,25,
1410,1,SBT2050,2,9,,2,12512,4.14992,0.18364,2419.569,210.39,25.1,
1410,1,SBT2050,2,9,,2,12558,4.15009,0.17964,2421.889,210.39,25.1,
1410,1,SBT2050,2,9,,2,12604,4.14997,0.17553,2424.156,210.39,25,
1410,1,SBT2050,2,9,,2,12650,4.15013,0.17114,2426.375,210.39,25,
1410,1,SBT2050,2,9,,2,12696,4.15005,0.16764,2428.545,210.39,25,
1410,1,SBT2050,2,9,,2,12742,4.15009,0.1646,2430.665,210.39,25,
1410,1,SBT2050,2,9,,2,12788,4.14975,0.16106,2432.747,210.39,25,
1410,1,SBT2050,2,9,,2,12834,4.15004,0.15726,2434.779,210.39,25,
1410,1,SBT2050,2,9,,2,12880,4.150026,0.15394,2436.769,210.39,25,
1410,1,SBT2050,2,9,,2,12926,4.14994,0.15113,2438.718,210.39,25,
1410,1,SBT2050,2,9,,2,12972,4.15012,0.14736,2440.626,210.39,25,
1410,1,SBT2050,2,9,,2,13018,4.150312,0.14467,2442.493,210.39,25,
1410,1,SBT2050,2,9,,2,13064,4.15004,0.14199,2444.32,210.39,25,
1410,1,SBT2050,2,9,,2,13110,4.1501,0.13818,2446.111,210.39,25,
1410,1,SBT2050,2,9,,2,13156,4.1501,0.13606,2447.868,210.39,25,
1410,1,SBT2050,2,9,,2,13202,4.14997,0.13232,2449.583,210.39,25,
1410,1,SBT2050,2,9,,2,13248,4.149978,0.12861,2451.252,210.39,25,
1410,1,SBT2050,2,9,,2,13294,4.15007,0.12742,2452.887,210.39,25,
1410,1,SBT2050,2,9,,2,13340,4.15016,0.12494,2454.5,210.39,24.9,
1410,1,SBT2050,2,9,,2,13386,4.150002,0.12313,2456.082,210.39,24.9,
1410,1,SBT2050,2,9,,2,13432,4.14988,0.12069,2457.645,210.39,24.9,
1410,1,SBT2050,2,9,,2,13478,4.15006,0.11793,2459.166,210.39,24.9,
1410,1,SBT2050,2,9,,2,13524,4.15007,0.11567,2460.657,210.39,25,
1410,1,SBT2050,2,9,,2,13570,4.14985,0.11312,2462.124,210.39,25,
1410,1,SBT2050,2,9,,2,13616,4.14993,0.11148,2463.559,210.39,24.9,
1410,1,SBT2050,2,9,,2,13662,4.150014,0.10943,2464.974,210.39,24.9,
1410,1,SBT2050,2,9,,2,13708,4.15016,0.10713,2466.358,210.39,24.9,
1410,1,SBT2050,2,9,,2,13754,4.15006,0.10516,2467.713,210.39,24.9,
1410,1,SBT2050,2,9,,2,13800,4.14995,0.10311,2469.042,210.39,25,
1410,1,SBT2050,2,9,,2,13846,4.1501,0.10112,2470.346,210.39,24.9,
1410,1,SBT2050,2,9,,2,13892,4.15004,0.09924,2471.628,210.39,25,
1410,1,SBT2050,2,9,,2,13938,4.14994,0.09736,2472.89,210.39,25,
1410,1,SBT2050,2,9,,2,13984,4.150002,0.09604,2474.13,210.39,25,
1410,1,SBT2050,2,9,,2,14030,4.14982,0.09436,2475.343,210.39,25,
1410,1,SBT2050,2,9,,2,14076,4.14999,0.09193,2476.535,210.39,25,
1410,1,SBT2050,2,9,,2,14122,4.14995,0.09097,2477.703,210.39,25.1,
1410,1,SBT2050,2,9,,2,14168,4.150014,0.08842,2478.848,210.39,25.1,
1410,1,SBT2050,2,9,,2,14214,4.15009,0.08691,2479.969,210.39,25.1,
1410,1,SBT2050,2,9,,2,14260,4.14986,0.08531,2481.07,210.39,25.1,
1410,1,SBT2050,2,9,,2,14306,4.15005,0.08453,2482.151,210.39,25.1,
1410,1,SBT2050,2,9,,2,14352,4.15007,0.0829,2483.221,210.39,25.1,
1410,1,SBT2050,2,9,,2,14398,4.14993,0.08154,2484.271,210.39,25.1,
1410,1,SBT2050,2,9,,2,14444,4.15025,0.07949,2485.304,210.39,25.2,
1410,1,SBT2050,2,9,,2,14490,4.1501,0.07829,2486.313,210.39,25.2,
1410,1,SBT2050,2,9,,2,14536,4.15013,0.07761,2487.31,210.39,25.2,
1410,1,SBT2050,2,9,,2,14582,4.15016,0.07652,2488.291,210.39,25.2,
1410,1,SBT2050,2,9,,2,14628,4.149978,0.07506,2489.257,210.39,25.2,
1410,1,SBT2050,2,9,,2,14674,4.1501,0.0726,2490.205,210.39,25.3,
1410,1,SBT2050,2,9,,2,14720,4.15009,0.07148,2491.127,210.39,25.3,
1410,1,SBT2050,2,9,,2,14766,4.14982,0.07066,2492.034,210.39,25.3,
1410,1,SBT2050,2,9,,2,14812,4.14997,0.07039,2492.936,210.39,25.3,
1410,1,SBT2050,2,9,,2,14858,4.14995,0.06883,2493.826,210.39,25.3,
1410,1,SBT2050,2,9,,2,14904,4.14963,0.0667,2494.694,210.39,25.3,
1410,1,SBT2050,2,9,,2,14950,4.150014,0.06628,2495.547,210.39,25.3,
1410,1,SBT2050,2,9,,2,14996,4.150014,0.06514,2496.388,210.39,25.3,
1410,1,SBT2050,2,9,,2,15042,4.150026,0.06446,2497.217,210.39,25.3,
1410,1,SBT2050,2,9,,2,15088,4.15017,0.06352,2498.037,210.39,25.3,
1410,1,SBT2050,2,9,,2,15134,4.15005,0.06229,2498.841,210.39,25.3,
1410,1,SBT2050,2,9,,2,15180,4.14994,0.06139,2499.634,210.39,25.4,
1410,1,SBT2050,2,9,,2,15226,4.14988,0.0601,2500.409,210.39,25.3,
1410,1,SBT2050,2,9,,2,15272,4.14991,0.059,2501.171,210.39,25.3,
1410,1,SBT2050,2,9,,2,15318,4.15017,0.0584,2501.925,210.39,25.3,
1410,1,SBT2050,2,9,,2,15364,4.14984,0.0573,2502.663,210.39,25.3,
1410,1,SBT2050,2,9,,2,15410,4.150026,0.05661,2503.389,210.39,25.3,
1410,1,SBT2050,2,9,,2,15456,4.15016,0.05558,2504.105,210.39,25.4,
1410,1,SBT2050,2,9,,2,15502,4.14985,0.05542,2504.814,210.39,25.4,
1410,1,SBT2050,2,9,,2,15548,4.15006,0.05384,2505.512,210.39,25.4,
1410,1,SBT2050,2,9,,2,15594,4.14991,0.05331,2506.19,210.39,25.4,
1410,1,SBT2050,2,9,,2,15640,4.15018,0.05223,2506.864,210.39,25.4,
1410,1,SBT2050,2,9,,2,15686,4.15006,0.05129,2507.529,210.39,25.4,
1410,1,SBT2050,2,9,,2,15732,4.15011,0.05055,2508.185,210.39,25.4,
1410,1,SBT2050,2,9,,2,15778,4.14994,0.05012,2508.827,210.39,25.4,
1410,1,SBT2050,2,9,,2,15824,4.14992,0.04964,2509.464,210.39,25.4,
1410,1,SBT2050,2,9,,2,15870,4.14993,0.04871,2510.091,210.39,25.4,
1410,1,SBT2050,2,9,,2,15916,4.14988,0.047346,2510.707,210.39,25.4,
1410,1,SBT2050,2,9,,2,15962,4.15022,0.046751,2511.311,210.39,25.4,
1410,1,SBT2050,2,9,,2,16008,4.14999,0.04607,2511.907,210.39,25.4,
1410,1,SBT2050,2,9,,2,16054,4.150014,0.046306,2512.495,210.39,25.4,
1410,1,SBT2050,2,9,,2,16100,4.15016,0.044957,2513.077,210.39,25.5,
1410,1,SBT2050,2,9,,2,16146,4.14994,0.044773,2513.65,210.39,25.4,
1410,1,SBT2050,2,9,,2,16192,4.15011,0.043508,2514.213,210.39,25.4,
1410,1,SBT2050,2,9,,2,16238,4.15005,0.043846,2514.774,210.39,25.4,
1410,1,SBT2050,2,9,,2,16284,4.15012,0.041927,2515.323,210.39,25.4,
1410,1,SBT2050,2,9,,2,16330,4.14997,0.041485,2515.862,210.39,25.5,
1410,1,SBT2050,2,9,,2,16376,4.15015,0.04033,2516.388,210.39,25.5,
1410,1,SBT2050,2,9,,2,16422,4.15005,0.040519,2516.911,210.39,25.5,
1410,1,SBT2050,2,9,,2,16468,4.150026,0.039515,2517.424,210.39,25.5,
1410,1,SBT2050,2,9,,2,16514,4.15017,0.039408,2517.93,210.39,25.4,
1410,1,SBT2050,2,9,,2,16560,4.15023,0.039013,2518.431,210.39,25.5,
1410,1,SBT2050,2,9,,2,16606,4.15005,0.037385,2518.922,210.39,25.5,
1410,1,SBT2050,2,9,,2,16652,4.15006,0.038038,2519.406,210.39,25.5,
1410,1,SBT2050,2,9,,2,16698,4.14999,0.037234,2519.886,210.39,25.4,
1410,1,SBT2050,2,9,,2,16744,4.15011,0.03616,2520.357,210.39,25.5,
1410,1,SBT2050,2,9,,2,16790,4.150014,0.036048,2520.818,210.39,25.5,
1410,1,SBT2050,2,9,,2,16836,4.15023,0.035154,2521.275,210.39,25.5,
1410,1,SBT2050,2,9,,2,16882,4.15009,0.035125,2521.726,210.39,25.5,
1410,1,SBT2050,2,9,,2,16928,4.1501,0.034986,2522.175,210.39,25.5,
1410,1,SBT2050,2,9,,2,16974,4.15016,0.034471,2522.617,210.39,25.5,
1410,1,SBT2050,2,9,,2,17020,4.15012,0.033565,2523.054,210.39,25.5,
1410,1,SBT2050,2,9,,2,17066,4.15044,0.033178,2523.484,210.39,25.5,
1410,1,SBT2050,2,9,,2,17112,4.14986,0.033205,2523.909,210.39,25.5,
1410,1,SBT2050,2,9,,2,17158,4.1501,0.032571,2524.328,210.39,25.5,
1410,1,SBT2050,2,9,,2,17204,4.15024,0.031857,2524.739,210.39,25.5,
1410,1,SBT2050,2,9,,2,17250,4.14986,0.031346,2525.148,210.39,25.5,
1410,1,SBT2050,2,9,,2,17296,4.14988,0.031328,2525.55,210.39,25.5,
1410,1,SBT2050,2,9,,2,17342,4.150026,0.030866,2525.95,210.39,25.5,
1410,1,SBT2050,2,9,,2,17388,4.15006,0.030489,2526.341,210.39,25.5,
1410,1,SBT2050,2,9,,2,17434,4.1501,0.029792,2526.727,210.39,25.5,
1410,1,SBT2050,2,9,,2,17480,4.14986,0.029328,2527.105,210.39,25.5,
1410,1,SBT2050,2,9,,2,17526,4.14991,0.029462,2527.479,210.39,25.5,
1410,1,SBT2050,2,9,,2,17572,4.15013,0.028593,2527.847,210.39,25.5,
1410,1,SBT2050,2,9,,2,17618,4.15006,0.028928,2528.218,210.39,25.5,
1410,1,SBT2050,2,9,,2,17664,4.15005,0.028186,2528.582,210.39,25.5,
1410,1,SBT2050,2,9,,2,17710,4.14978,0.027853,2528.938,210.39,25.5,
1410,1,SBT2050,2,9,,2,17756,4.15004,0.026777,2529.289,210.39,25.5,
1410,1,SBT2050,2,9,,2,17802,4.15007,0.026708,2529.63,210.39,25.5,
1410,1,SBT2050,2,9,,2,17848,4.150002,0.026128,2529.971,210.39,25.5,
1410,1,SBT2050,2,9,,2,17894,4.15013,0.026006,2530.306,210.39,25.5,
1410,1,SBT2050,2,9,,2,17940,4.15011,0.026064,2530.638,210.39,25.5,
1410,1,SBT2050,2,9,,2,17986,4.14989,0.026673,2530.974,210.39,25.5,
1410,1,SBT2050,2,9,,2,18032,4.14999,0.025305,2531.303,210.39,25.5,
1410,1,SBT2050,2,9,,2,18078,4.15019,0.02556,2531.632,210.39,25.6,
1410,1,SBT2050,2,9,,2,18124,4.15005,0.024621,2531.952,210.39,25.5,
1410,1,SBT2050,2,9,,2,18170,4.14978,0.024991,2532.268,210.39,25.5,
1410,1,SBT2050,2,9,,2,18216,4.14988,0.023653,2532.581,210.39,25.5,
1410,1,SBT2050,2,9,,2,18262,4.15022,0.024362,2532.885,210.39,25.6,
1410,1,SBT2050,2,9,,2,18308,4.15023,0.02362,2533.192,210.39,25.5,
1410,1,SBT2050,2,9,,2,18354,4.14991,0.023759,2533.494,210.39,25.6,
1410,1,SBT2050,2,9,,2,18400,4.14988,0.023556,2533.797,210.39,25.5,
1410,1,SBT2050,2,9,,2,18446,4.15005,0.022953,2534.093,210.39,25.6,
1410,1,SBT2050,2,9,,2,18492,4.14999,0.023038,2534.384,210.39,25.6,
1410,1,SBT2050,2,9,,2,18538,4.15005,0.022425,2534.672,210.39,25.6,
1410,1,SBT2050,2,9,,2,18584,4.14989,0.02133,2534.953,210.39,25.6,
1410,1,SBT2050,2,9,,2,18630,4.14993,0.021426,2535.227,210.39,25.5,
1410,1,SBT2050,2,9,,2,18676,4.14989,0.021415,2535.497,210.39,25.5,
1410,1,SBT2050,2,9,,2,18722,4.14997,0.02147,2535.775,210.39,25.5,
1410,1,SBT2050,2,9,,2,18768,4.14995,0.021429,2536.047,210.39,25.5,
1410,1,SBT2050,2,9,,2,18814,4.15006,0.020955,2536.315,210.39,25.6,
1410,1,SBT2050,2,9,,2,18860,4.150014,0.02021,2536.58,210.39,25.5,
1410,1,SBT2050,2,9,,2,18906,4.14985,0.020327,2536.839,210.39,25.6,
1410,1,SBT2050,2,9,,2,18952,4.150014,0.020516,2537.098,210.39,25.5,
1410,1,SBT2050,2,9,,2,18998,4.15004,0.019674,2537.353,210.39,25.5,
1410,1,SBT2050,2,9,,2,19044,4.15023,0.01976,2537.606,210.39,25.6,
1410,1,SBT2050,2,9,,2,19090,4.15022,0.019291,2537.861,210.39,25.5,
1410,1,SBT2050,2,9,,2,19136,4.14981,0.018829,2538.106,210.39,25.6,
1410,1,SBT2050,2,9,,2,19182,4.15015,0.019095,2538.35,210.39,25.6,
1410,1,SBT2050,2,9,,2,19228,4.14997,0.019293,2538.595,210.39,25.5,
1410,1,SBT2050,2,9,,2,19274,4.14997,0.01772,2538.833,210.39,25.6,
1410,1,SBT2050,2,9,,2,19320,4.150026,0.018368,2539.063,210.39,25.6,
1410,1,SBT2050,2,9,,2,19366,4.14984,0.017906,2539.292,210.39,25.6,
1410,1,SBT2050,2,9,,2,19412,4.149728,0.018372,2539.521,210.39,25.6,
1410,1,SBT2050,2,9,,2,19458,4.15019,0.018171,2539.756,210.39,25.6,
1410,1,SBT2050,2,9,,2,19504,4.14997,0.018072,2539.988,210.39,25.6,
1410,1,SBT2050,2,9,,2,19550,4.15004,0.017591,2540.219,210.39,25.6,
1410,1,SBT2050,2,9,,2,19596,4.149728,0.01803,2540.447,210.39,25.6,
1410,1,SBT2050,2,9,,2,19642,4.15009,0.017531,2540.671,210.39,25.6,
1410,1,SBT2050,2,9,,2,19688,4.15022,0.01694,2540.892,210.39,25.6,
1410,1,SBT2050,2,9,,2,19734,4.14989,0.016913,2541.11,210.39,25.6,
1410,1,SBT2050,2,9,,2,19780,4.149978,0.017731,2541.33,210.39,25.6,
1410,1,SBT2050,2,9,,2,19826,4.14981,0.016873,2541.548,210.39,25.6,
1410,1,SBT2050,2,9,,2,19872,4.15006,0.016494,2541.76,210.39,25.6,
1410,1,SBT2050,2,9,,2,19918,4.1504,0.01637,2541.97,210.39,25.6,
1410,1,SBT2050,2,9,,2,19964,4.14995,0.015759,2542.179,210.39,25.6,
1410,1,SBT2050,2,9,,2,20010,4.150026,0.015727,2542.381,210.39,25.6,
1410,1,SBT2050,2,9,,2,20056,4.1501,0.016014,2542.583,210.39,25.6,
1410,1,SBT2050,2,9,,2,20102,4.14999,0.015596,2542.784,210.39,25.6,
1410,1,SBT2050,2,9,,2,20148,4.14992,0.015205,2542.983,210.39,25.6,
1410,1,SBT2050,2,9,,2,20194,4.150026,0.015014,2543.178,210.39,25.5,
1410,1,SBT2050,2,9,,2,20240,4.150276,0.014984,2543.372,210.39,25.6,
1410,1,SBT2050,2,9,,2,20286,4.15011,0.015319,2543.566,210.39,25.6,
1410,1,SBT2050,2,9,,2,20332,4.150014,0.015299,2543.76,210.39,25.6,
1410,1,SBT2050,2,9,,2,20378,4.15007,0.01477,2543.951,210.39,25.6,
1410,1,SBT2050,2,9,,2,20424,4.15022,0.014476,2544.138,210.39,25.6,
1410,1,SBT2050,2,9,,2,20470,4.14985,0.014568,2544.323,210.39,25.6,
1410,1,SBT2050,2,9,,2,20516,4.14986,0.014562,2544.512,210.39,25.6,
1410,1,SBT2050,2,9,,2,20562,4.14994,0.014275,2544.695,210.39,25.6,
1410,1,SBT2050,2,9,,2,20608,4.15007,0.013222,2544.871,210.39,25.6,
1410,1,SBT2050,2,9,,2,20654,4.14988,0.014193,2545.044,210.39,25.6,
1410,1,SBT2050,2,9,,2,20700,4.150026,0.014115,2545.224,210.39,25.6,
1410,1,SBT2050,2,9,,2,20746,4.14984,0.013154,2545.401,210.39,25.6,
1410,1,SBT2050,2,9,,2,20792,4.15009,0.013999,2545.571,210.39,25.6,
1410,1,SBT2050,2,9,,2,20838,4.15011,0.013955,2545.744,210.39,25.6,
1410,1,SBT2050,2,9,,2,20884,4.14985,0.013097,2545.917,210.39,25.6,
1410,1,SBT2050,2,9,,2,20930,4.15005,0.012906,2546.082,210.39,25.6,
1410,1,SBT2050,2,9,,2,20976,4.150324,0.01275,2546.249,210.39,25.6,
1410,1,SBT2050,2,9,,2,21022,4.14991,0.013011,2546.414,210.39,25.6,
1410,1,SBT2050,2,9,,2,21068,4.14976,0.012726,2546.578,210.39,25.6,
1410,1,SBT2050,2,9,,2,21114,4.14981,0.012761,2546.742,210.39,25.6,
1410,1,SBT2050,2,9,,2,21160,4.14975,0.011642,2546.898,210.39,25.6,
1410,1,SBT2050,2,9,,2,21206,4.15006,0.01243,2547.051,210.39,25.6,
1410,1,SBT2050,2,9,,2,21252,4.14988,0.011831,2547.209,210.39,25.6,
1410,1,SBT2050,2,9,,2,21298,4.15015,0.011952,2547.362,210.39,25.6,
1410,1,SBT2050,2,9,,2,21344,4.14994,0.012066,2547.518,210.39,25.6,
1410,1,SBT2050,2,9,,2,21390,4.14987,0.011979,2547.673,210.39,25.6,
1410,1,SBT2050,2,9,,2,21436,4.15011,0.011065,2547.82,210.39,25.6,
1410,1,SBT2050,2,9,,2,21482,4.14999,0.011021,2547.964,210.39,25.6,
1410,1,SBT2050,2,9,,2,21528,4.14999,0.012,2548.11,210.39,25.6,
1410,1,SBT2050,2,9,,2,21574,4.15013,0.012263,2548.264,210.39,25.6,
1410,1,SBT2050,2,9,,2,21620,4.15013,0.011396,2548.414,210.39,25.6,
1410,1,SBT2050,2,9,,2,21666,4.15015,0.011831,2548.564,210.39,25.6,
1410,1,SBT2050,2,9,,2,21712,4.15009,0.010942,2548.709,210.39,25.6,
1410,1,SBT2050,2,9,,2,21758,4.15005,0.011229,2548.851,210.39,25.6,
1410,1,SBT2050,2,9,,2,21804,4.15013,0.010946,2548.991,210.39,25.6,
1410,1,SBT2050,2,9,,2,21850,4.15005,0.010664,2549.136,210.39,25.6,
1410,1,SBT2050,2,9,,2,21896,4.15004,0.010574,2549.269,210.39,25.6,
1410,1,SBT2050,2,9,,2,21942,4.15015,0.010122,2549.406,210.39,25.6,
1410,1,SBT2050,2,9,,3,21987,4.14993,0,2549.429,210.39,25.6,
1410,1,SBT2050,2,9,,3,22033,4.14952,0,2549.429,210.39,25.6,
1410,1,SBT2050,2,9,,3,22079,4.14929,0,2549.429,210.39,25.6,
1410,1,SBT2050,2,9,,3,22125,4.14906,0,2549.429,210.39,25.6,
1410,1,SBT2050,2,9,,3,22171,4.14908,0,2549.429,210.39,25.6,
1410,1,SBT2050,2,9,,3,22217,4.14884,0,2549.429,210.39,25.6,
1410,1,SBT2050,2,9,,3,22263,4.148634,0,2549.429,210.39,25.6,
1410,1,SBT2050,2,9,,3,22309,4.14862,0,2549.429,210.39,25.5,
1410,1,SBT2050,2,9,,3,22355,4.14842,0,2549.429,210.39,25.5,
1410,1,SBT2050,2,9,,3,22401,4.14846,0,2549.429,210.39,25.5,
1410,1,SBT2050,2,9,,3,22447,4.148376,0,2549.429,210.39,25.6,
1410,1,SBT2050,2,9,,3,22493,4.14827,0,2549.429,210.39,25.5,
1410,1,SBT2050,2,9,,3,22539,4.14821,0,2549.429,210.39,25.5,
1410,1,SBT2050,2,9,,3,22585,4.148176,0,2549.429,210.39,25.5,
1410,1,SBT2050,2,9,,3,22631,4.14808,0,2549.429,210.39,25.5,
1410,1,SBT2050,2,9,,3,22677,4.14806,0,2549.429,210.39,25.5,
1410,1,SBT2050,2,9,,3,22723,4.14775,0,2549.429,210.39,25.5,
1410,1,SBT2050,2,9,,3,22769,4.1475,0,2549.429,210.39,25.5,
1410,1,SBT2050,2,9,,3,22815,4.14788,0,2549.429,210.39,25.5,
1410,1,SBT2050,2,9,,3,22861,4.14802,0,2549.429,210.39,25.5,
1410,1,SBT2050,2,9,,3,22907,4.14786,0,2549.429,210.39,25.5,
1410,1,SBT2050,2,9,,3,22953,4.14759,0,2549.429,210.39,25.5,
1410,1,SBT2050,2,9,,3,22999,4.14739,0,2549.429,210.39,25.5,
1410,1,SBT2050,2,9,,3,23045,4.14746,0,2549.429,210.39,25.5,
1410,1,SBT2050,2,9,,3,23091,4.14731,0,2549.429,210.39,25.5,
1410,1,SBT2050,2,9,,3,23137,4.14713,0,2549.429,210.39,25.5,
1410,1,SBT2050,2,9,,3,23183,4.14716,0,2549.429,210.39,25.5,
1410,1,SBT2050,2,9,,3,23229,4.14725,0,2549.429,210.39,25.5,
1410,1,SBT2050,2,9,,3,23275,4.147272,0,2549.429,210.39,25.5,
1410,1,SBT2050,2,9,,3,23321,4.14721,0,2549.429,210.39,25.5,
1410,1,SBT2050,2,9,,3,23367,4.14706,0,2549.429,210.39,25.5,
1410,1,SBT2050,2,9,,3,23413,4.14698,0,2549.429,210.39,25.5,
1410,1,SBT2050,2,9,,3,23459,4.14633,0,2549.429,210.39,25.5,
1410,1,SBT2050,2,9,,3,23505,4.1464,0,2549.429,210.39,25.4,
1410,1,SBT2050,2,9,,3,23551,4.14638,0,2549.429,210.39,25.2,
1410,1,SBT2050,2,9,,3,23597,4.14651,0,2549.429,210.39,24.9,
1410,1,SBT2050,2,9,,3,23643,4.146326,0,2549.429,210.39,24.6,
1410,1,SBT2050,2,9,,3,23689,4.146086,0,2549.429,210.39,24.4,
1410,1,SBT2050,2,9,,3,23735,4.14628,0,2549.429,210.39,24.1,
1410,1,SBT2050,2,9,,4,23780,3.84599,-2.9358,2549.429,234.737,24.2,
1410,1,SBT2050,2,9,,4,23826,3.81108,-2.9362,2549.429,272.252,24.7,
1410,1,SBT2050,2,9,,4,23872,3.79712,-2.9358,2549.429,309.766,25.2,
1410,1,SBT2050,2,9,,4,23918,3.7886,-2.936,2549.429,347.281,25.7,
1410,1,SBT2050,2,9,,4,23964,3.781198,-2.9357,2549.429,384.796,26.1,
1410,1,SBT2050,2,9,,4,24010,3.77298,-2.9359,2549.429,422.311,26.4,
1410,1,SBT2050,2,9,,4,24056,3.7639,-2.936,2549.429,459.826,26.7,
1410,1,SBT2050,2,9,,4,24102,3.75349,-2.9361,2549.429,497.341,27,
1410,1,SBT2050,2,9,,4,24148,3.74166,-2.9356,2549.429,534.856,27.3,
1410,1,SBT2050,2,9,,4,24194,3.72933,-2.936,2549.429,572.371,27.4,
1410,1,SBT2050,2,9,,4,24240,3.716174,-2.936,2549.429,609.886,27.6,
1410,1,SBT2050,2,9,,4,24286,3.702868,-2.9357,2549.429,647.401,27.7,
1410,1,SBT2050,2,9,,4,24332,3.68953,-2.9364,2549.429,684.916,27.8,
1410,1,SBT2050,2,9,,4,24378,3.67602,-2.9355,2549.429,722.431,27.9,
1410,1,SBT2050,2,9,,4,24424,3.66206,-2.9361,2549.429,759.946,28,
1410,1,SBT2050,2,9,,4,24470,3.64877,-2.9361,2549.429,797.461,28,
1410,1,SBT2050,2,9,,4,24516,3.6353,-2.9365,2549.429,834.976,28.2,
1410,1,SBT2050,2,9,,4,24562,3.62144,-2.9355,2549.429,872.491,28.2,
1410,1,SBT2050,2,9,,4,24608,3.60767,-2.9359,2549.429,910.006,28.3,
1410,1,SBT2050,2,9,,4,24654,3.59353,-2.9361,2549.429,947.521,28.4,
1410,1,SBT2050,2,9,,4,24700,3.57919,-2.9354,2549.429,985.036,28.5,
1410,1,SBT2050,2,9,,4,24746,3.56495,-2.936,2549.429,1022.551,28.5,
1410,1,SBT2050,2,9,,4,24792,3.55047,-2.9361,2549.429,1060.066,28.6,
1410,1,SBT2050,2,9,,4,24838,3.53576,-2.9358,2549.429,1097.581,28.6,
1410,1,SBT2050,2,9,,4,24884,3.52071,-2.9362,2549.429,1135.096,28.7,
1410,1,SBT2050,2,9,,4,24930,3.50564,-2.936,2549.429,1172.612,28.7,
1410,1,SBT2050,2,9,,4,24976,3.49087,-2.9358,2549.429,1210.127,28.8,
1410,1,SBT2050,2,9,,4,25022,3.47567,-2.9363,2549.429,1247.642,28.8,
1410,1,SBT2050,2,9,,4,25068,3.46099,-2.9358,2549.429,1285.157,28.9,
1410,1,SBT2050,2,9,,4,25114,3.44668,-2.9367,2549.429,1322.672,28.9,
1410,1,SBT2050,2,9,,4,25160,3.43211,-2.9363,2549.429,1360.187,29,
1410,1,SBT2050,2,9,,4,25206,3.417932,-2.9356,2549.429,1397.702,29,
1410,1,SBT2050,2,9,,4,25252,3.40406,-2.9362,2549.429,1435.217,29,
1410,1,SBT2050,2,9,,4,25298,3.39077,-2.9361,2549.429,1472.732,29,
1410,1,SBT2050,2,9,,4,25344,3.37766,-2.9359,2549.429,1510.247,29.1,
1410,1,SBT2050,2,9,,4,25390,3.36452,-2.9359,2549.429,1547.762,29.1,
1410,1,SBT2050,2,9,,4,25436,3.35147,-2.9355,2549.429,1585.278,29.2,
1410,1,SBT2050,2,9,,4,25482,3.33878,-2.9362,2549.429,1622.793,29.3,
1410,1,SBT2050,2,9,,4,25528,3.32567,-2.936,2549.429,1660.308,29.3,
1410,1,SBT2050,2,9,,4,25574,3.31253,-2.9361,2549.429,1697.823,29.3,
1410,1,SBT2050,2,9,,4,25620,3.29929,-2.936,2549.429,1735.338,29.3,
1410,1,SBT2050,2,9,,4,25666,3.285305,-2.9362,2549.429,1772.853,29.4,
1410,1,SBT2050,2,9,,4,25712,3.27142,-2.9362,2549.429,1810.368,29.5,
1410,1,SBT2050,2,9,,4,25758,3.25673,-2.936,2549.429,1847.883,29.6,
1410,1,SBT2050,2,9,,4,25804,3.2417,-2.9367,2549.429,1885.398,29.7,
1410,1,SBT2050,2,9,,4,25850,3.22592,-2.9358,2549.429,1922.913,29.8,
1410,1,SBT2050,2,9,,4,25896,3.20896,-2.936,2549.429,1960.428,29.9,
1410,1,SBT2050,2,9,,4,25942,3.19143,-2.9365,2549.429,1997.943,30,
1410,1,SBT2050,2,9,,4,25988,3.1723,-2.9362,2549.429,2035.458,30.2,
1410,1,SBT2050,2,9,,4,26034,3.15167,-2.9363,2549.429,2072.973,30.3,
1410,1,SBT2050,2,9,,4,26080,3.129511,-2.9358,2549.429,2110.488,30.5,
1410,1,SBT2050,2,9,,4,26126,3.105114,-2.9356,2549.429,2148.003,30.6,
1410,1,SBT2050,2,9,,4,26172,3.078581,-2.9358,2549.429,2185.518,30.8,
1410,1,SBT2050,2,9,,4,26218,3.04903,-2.9359,2549.429,2223.033,31,
1410,1,SBT2050,2,9,,4,26264,3.015999,-2.9359,2549.429,2260.548,31.2,
1410,1,SBT2050,2,9,,4,26310,2.9787,-2.9356,2549.429,2298.064,31.5,
1410,1,SBT2050,2,9,,4,26356,2.93643,-2.9362,2549.429,2335.579,31.8,
1410,1,SBT2050,2,9,,4,26402,2.88692,-2.936,2549.429,2373.094,32.2,
1410,1,SBT2050,2,9,,4,26448,2.829221,-2.9359,2549.429,2410.609,32.6,
1410,1,SBT2050,2,9,,4,26494,2.76335,-2.936,2549.429,2448.124,33,
1410,1,SBT2050,2,9,,4,26540,2.68397,-2.9364,2549.429,2485.639,33.7,
1410,1,SBT2050,2,9,,4,26586,2.572307,-2.9358,2549.429,2523.154,34.4,
1410,1,SBT2050,2,9,,4,26632,2.49984,-2.463,2549.429,2558.822,35.2,
1410,1,SBT2050,2,9,,4,26678,2.49968,-1.8732,2549.429,2586.382,35.5,
1410,1,SBT2050,2,9,,4,26724,2.4997,-1.3882,2549.429,2607.134,35.3,
1410,1,SBT2050,2,9,,4,26770,2.49964,-0.9934,2549.429,2622.239,34.7,
1410,1,SBT2050,2,9,,4,26816,2.49962,-0.7081,2549.429,2632.984,34,
1410,1,SBT2050,2,9,,4,26862,2.49957,-0.5205,2549.429,2640.752,33.2,
1410,1,SBT2050,2,9,,4,26908,2.49972,-0.3924,2549.429,2646.531,32.3,
1410,1,SBT2050,2,9,,4,26954,2.49964,-0.30728,2549.429,2650.96,31.5,
1410,1,SBT2050,2,9,,4,27000,2.49971,-0.25598,2549.429,2654.53,30.8,
1410,1,SBT2050,2,9,,4,27046,2.49997,-0.22472,2549.429,2657.586,30.1,
1410,1,SBT2050,2,9,,4,27092,2.49988,-0.20426,2549.429,2660.317,29.5,
1410,1,SBT2050,2,9,,4,27138,2.49979,-0.18957,2549.429,2662.829,29,
1410,1,SBT2050,2,9,,4,27184,2.50007,-0.17858,2549.429,2665.178,28.5,
1410,1,SBT2050,2,9,,4,27230,2.49996,-0.16976,2549.429,2667.402,28.1,
1410,1,SBT2050,2,9,,4,27276,2.499911,-0.16258,2549.429,2669.524,27.8,
1410,1,SBT2050,2,9,,4,27322,2.49988,-0.15614,2549.429,2671.56,27.5,
1410,1,SBT2050,2,9,,4,27368,2.499935,-0.15083,2549.429,2673.521,27.2,
1410,1,SBT2050,2,9,,4,27414,2.50003,-0.14602,2549.429,2675.416,27,
1410,1,SBT2050,2,9,,4,27460,2.49989,-0.14133,2549.429,2677.251,26.8,
1410,1,SBT2050,2,9,,4,27506,2.49996,-0.13745,2549.429,2679.032,26.6,
1410,1,SBT2050,2,9,,4,27552,2.50002,-0.13349,2549.429,2680.762,26.5,
1410,1,SBT2050,2,9,,4,27598,2.50004,-0.13026,2549.429,2682.446,26.4,
1410,1,SBT2050,2,9,,4,27644,2.49985,-0.12676,2549.429,2684.086,26.3,
1410,1,SBT2050,2,9,,4,27690,2.50004,-0.12359,2549.429,2685.684,26.2,
1410,1,SBT2050,2,9,,4,27736,2.49988,-0.12036,2549.429,2687.243,26.1,
1410,1,SBT2050,2,9,,4,27782,2.49996,-0.11743,2549.429,2688.764,26,
1410,1,SBT2050,2,9,,4,27828,2.500102,-0.11476,2549.429,2690.247,25.9,
1410,1,SBT2050,2,9,,4,27874,2.49988,-0.11185,2549.429,2691.695,25.9,
1410,1,SBT2050,2,9,,4,27920,2.49998,-0.10936,2549.429,2693.108,25.8,
1410,1,SBT2050,2,9,,4,27966,2.49999,-0.10678,2549.429,2694.489,25.8,
1410,1,SBT2050,2,9,,4,28012,2.50011,-0.10439,2549.429,2695.837,25.7,
1410,1,SBT2050,2,9,,4,28058,2.49988,-0.10201,2549.429,2697.154,25.7,
1410,1,SBT2050,2,9,,4,28104,2.49996,-0.09976,2549.429,2698.442,25.7,
1410,1,SBT2050,2,9,,4,28150,2.49997,-0.09755,2549.429,2699.702,25.7,
1410,1,SBT2050,2,9,,4,28196,2.50003,-0.09538,2549.429,2700.934,25.6,
1410,1,SBT2050,2,9,,4,28242,2.500078,-0.09333,2549.429,2702.139,25.6,
1410,1,SBT2050,2,9,,4,28288,2.49998,-0.09124,2549.429,2703.318,25.6,
1410,1,SBT2050,2,9,,4,28334,2.50001,-0.08931,2549.429,2704.471,25.5,
1410,1,SBT2050,2,9,,4,28380,2.50011,-0.08732,2549.429,2705.599,25.5,
1410,1,SBT2050,2,9,,4,28426,2.499935,-0.08544,2549.429,2706.703,25.5,
1410,1,SBT2050,2,9,,4,28472,2.50002,-0.0837,2549.429,2707.785,25.5,
1410,1,SBT2050,2,9,,4,28518,2.50017,-0.08223,2549.429,2708.844,25.5,
1410,1,SBT2050,2,9,,4,28564,2.49988,-0.0802,2549.429,2709.88,25.5,
1410,1,SBT2050,2,9,,4,28610,2.50001,-0.07885,2549.429,2710.896,25.5,
1410,1,SBT2050,2,9,,4,28656,2.49998,-0.07698,2549.429,2711.891,25.5,
1410,1,SBT2050,2,9,,4,28702,2.50005,-0.07551,2549.429,2712.866,25.4,
1410,1,SBT2050,2,9,,4,28748,2.499911,-0.07392,2549.429,2713.821,25.4,
1410,1,SBT2050,2,9,,4,28794,2.49986,-0.07241,2549.429,2714.756,25.4,
1410,1,SBT2050,2,9,,4,28840,2.49989,-0.07091,2549.429,2715.672,25.4,
1410,1,SBT2050,2,9,,4,28886,2.50002,-0.06952,2549.429,2716.569,25.3,
1410,1,SBT2050,2,9,,4,28932,2.49998,-0.06812,2549.429,2717.448,25.3,
1410,1,SBT2050,2,9,,4,28978,2.50005,-0.06679,2549.429,2718.309,25.3,
1410,1,SBT2050,2,9,,4,29024,2.50003,-0.06541,2549.429,2719.152,25.3,
1410,1,SBT2050,2,9,,4,29070,2.500078,-0.06421,2549.429,2719.98,25.4,
1410,1,SBT2050,2,9,,4,29116,2.49997,-0.06289,2549.429,2720.791,25.3,
1410,1,SBT2050,2,9,,4,29162,2.49995,-0.06151,2549.429,2721.586,25.3,
1410,1,SBT2050,2,9,,4,29208,2.49995,-0.06055,2549.429,2722.367,25.3,
1410,1,SBT2050,2,9,,4,29254,2.499923,-0.05937,2549.429,2723.132,25.3,
1410,1,SBT2050,2,9,,4,29300,2.50001,-0.05813,2549.429,2723.883,25.3,
1410,1,SBT2050,2,9,,4,29346,2.4999,-0.05711,2549.429,2724.62,25.3,
1410,1,SBT2050,2,9,,4,29392,2.499911,-0.05616,2549.429,2725.343,25.3,
1410,1,SBT2050,2,9,,4,29438,2.49982,-0.05505,2549.429,2726.052,25.3,
1410,1,SBT2050,2,9,,4,29484,2.49986,-0.05396,2549.429,2726.749,25.3,
1410,1,SBT2050,2,9,,4,29530,2.50003,-0.05308,2549.429,2727.433,25.2,
1410,1,SBT2050,2,9,,4,29576,2.499935,-0.05215,2549.429,2728.105,25.2,
1410,1,SBT2050,2,9,,4,29622,2.50009,-0.05121,2549.429,2728.765,25.2,
1410,1,SBT2050,2,9,,4,29668,2.49997,-0.05033,2549.429,2729.413,25.2,
1410,1,SBT2050,2,9,,4,29714,2.50004,-0.04948,2549.429,2730.05,25.2,
1410,1,SBT2050,2,9,,4,29760,2.50013,-0.04857,2549.429,2730.677,25.2,
1410,1,SBT2050,2,9,,4,29806,2.50007,-0.047789,2549.429,2731.292,25.2,
1410,1,SBT2050,2,9,,4,29852,2.49996,-0.046881,2549.429,2731.898,25.2,
1410,1,SBT2050,2,9,,4,29898,2.49998,-0.046151,2549.429,2732.493,25.1,
1410,1,SBT2050,2,9,,4,29944,2.50014,-0.045446,2549.429,2733.078,25.2,
1410,1,SBT2050,2,9,,4,29990,2.49995,-0.044533,2549.429,2733.654,25.2,
1410,1,SBT2050,2,9,,4,30036,2.49999,-0.044053,2549.429,2734.22,25.1,
1410,1,SBT2050,2,9,,4,30082,2.50005,-0.043142,2549.429,2734.777,25.2,
1410,1,SBT2050,2,9,,4,30128,2.499923,-0.042385,2549.429,2735.324,25.2,
1410,1,SBT2050,2,9,,4,30174,2.49998,-0.041733,2549.429,2735.862,25.2,
1410,1,SBT2050,2,9,,4,30220,2.49997,-0.041023,2549.429,2736.391,25.2,
1410,1,SBT2050,2,9,,4,30266,2.499911,-0.040307,2549.429,2736.911,25.2,
1410,1,SBT2050,2,9,,4,30312,2.49998,-0.039708,2549.429,2737.422,25.3,
1410,1,SBT2050,2,9,,4,30358,2.50005,-0.039064,2549.429,2737.925,25.2,
1410,1,SBT2050,2,9,,4,30404,2.49998,-0.038267,2549.429,2738.418,25.3,
1410,1,SBT2050,2,9,,4,30450,2.4999,-0.037662,2549.429,2738.903,25.3,
1410,1,SBT2050,2,9,,4,30496,2.49998,-0.037091,2549.429,2739.38,25.3,
1410,1,SBT2050,2,9,,4,30542,2.50003,-0.036259,2549.429,2739.849,25.3,
1410,1,SBT2050,2,9,,4,30588,2.50007,-0.035671,2549.429,2740.31,25.3,
1410,1,SBT2050,2,9,,4,30634,2.50004,-0.035086,2549.429,2740.762,25.3,
1410,1,SBT2050,2,9,,4,30680,2.49995,-0.034543,2549.429,2741.207,25.3,
1410,1,SBT2050,2,9,,4,30726,2.50003,-0.033824,2549.429,2741.644,25.3,
1410,1,SBT2050,2,9,,4,30772,2.499911,-0.033224,2549.429,2742.073,25.3,
1410,1,SBT2050,2,9,,4,30818,2.49989,-0.032627,2549.429,2742.494,25.3,
1410,1,SBT2050,2,9,,4,30864,2.49983,-0.032006,2549.429,2742.908,25.3,
1410,1,SBT2050,2,9,,4,30910,2.49999,-0.031427,2549.429,2743.314,25.3,
1410,1,SBT2050,2,9,,4,30956,2.50005,-0.030932,2549.429,2743.713,25.4,
1410,1,SBT2050,2,9,,4,31002,2.499923,-0.030312,2549.429,2744.104,25.3,
1410,1,SBT2050,2,9,,4,31048,2.50001,-0.029809,2549.429,2744.488,25.3,
1410,1,SBT2050,2,9,,4,31094,2.50015,-0.029293,2549.429,2744.865,25.3,
1410,1,SBT2050,2,9,,4,31140,2.49997,-0.028645,2549.429,2745.235,25.3,
1410,1,SBT2050,2,9,,4,31186,2.50002,-0.028222,2549.429,2745.599,25.4,
1410,1,SBT2050,2,9,,4,31232,2.50001,-0.027634,2549.429,2745.957,25.4,
1410,1,SBT2050,2,9,,4,31278,2.50004,-0.027309,2549.429,2746.308,25.3,
1410,1,SBT2050,2,9,,4,31324,2.50007,-0.026797,2549.429,2746.653,25.3,
1410,1,SBT2050,2,9,,4,31370,2.50005,-0.026421,2549.429,2746.993,25.3,
1410,1,SBT2050,2,9,,4,31416,2.500102,-0.025935,2549.429,2747.326,25.3,
1410,1,SBT2050,2,9,,4,31462,2.50003,-0.025531,2549.429,2747.654,25.3,
1410,1,SBT2050,2,9,,4,31508,2.50009,-0.025094,2549.429,2747.977,25.4,
1410,1,SBT2050,2,9,,4,31554,2.50003,-0.024664,2549.429,2748.294,25.4,
1410,1,SBT2050,2,9,,4,31600,2.499923,-0.024099,2549.429,2748.605,25.3,
1410,1,SBT2050,2,9,,4,31646,2.50004,-0.023779,2549.429,2748.911,25.3,
1410,1,SBT2050,2,9,,4,31692,2.50003,-0.023334,2549.429,2749.211,25.3,
1410,1,SBT2050,2,9,,4,31738,2.500078,-0.022907,2549.429,2749.506,25.3,
1410,1,SBT2050,2,9,,4,31784,2.50001,-0.022466,2549.429,2749.795,25.3,
1410,1,SBT2050,2,9,,4,31830,2.50004,-0.021993,2549.429,2750.078,25.3,
1410,1,SBT2050,2,9,,4,31876,2.49998,-0.021629,2549.429,2750.357,25.2,
1410,1,SBT2050,2,9,,4,31922,2.49997,-0.021097,2549.429,2750.63,25.1,
1410,1,SBT2050,2,9,,4,31968,2.50014,-0.020919,2549.429,2750.898,24.9,
1410,1,SBT2050,2,9,,4,32014,2.50003,-0.020366,2549.429,2751.161,24.9,
1410,1,SBT2050,2,9,,4,32060,2.500078,-0.019985,2549.429,2751.419,24.8,
1410,1,SBT2050,2,9,,4,32106,2.49998,-0.019588,2549.429,2751.672,24.8,
1410,1,SBT2050,2,9,,4,32152,2.4999,-0.019077,2549.429,2751.92,24.8,
1410,1,SBT2050,2,9,,4,32198,2.49996,-0.018693,2549.429,2752.163,24.8,
1410,1,SBT2050,2,9,,4,32244,2.50001,-0.018393,2549.429,2752.4,24.8,
1410,1,SBT2050,2,9,,4,32290,2.50001,-0.01798,2549.429,2752.633,24.8,
1410,1,SBT2050,2,9,,4,32336,2.499935,-0.017634,2549.429,2752.861,24.8,
1410,1,SBT2050,2,9,,4,32382,2.49995,-0.017269,2549.429,2753.084,24.8,
1410,1,SBT2050,2,9,,4,32428,2.49995,-0.016972,2549.429,2753.302,24.8,
1410,1,SBT2050,2,9,,4,32474,2.49983,-0.01656,2549.429,2753.516,24.8,
1410,1,SBT2050,2,9,,4,32520,2.49997,-0.016294,2549.429,2753.725,24.8,
1410,1,SBT2050,2,9,,4,32566,2.49996,-0.015875,2549.429,2753.931,24.8,
1410,1,SBT2050,2,9,,4,32612,2.49989,-0.015655,2549.429,2754.132,24.8,
1410,1,SBT2050,2,9,,4,32658,2.499911,-0.015244,2549.429,2754.329,24.9,
1410,1,SBT2050,2,9,,4,32704,2.50005,-0.015093,2549.429,2754.522,24.9,
1410,1,SBT2050,2,9,,4,32750,2.50007,-0.014785,2549.429,2754.712,24.8,
1410,1,SBT2050,2,9,,4,32796,2.4998,-0.014235,2549.429,2754.897,24.8,
1410,1,SBT2050,2,9,,4,32842,2.499923,-0.014084,2549.429,2755.079,24.8,
1410,1,SBT2050,2,9,,4,32888,2.4999,-0.013603,2549.429,2755.257,24.9,
1410,1,SBT2050,2,9,,4,32934,2.50002,-0.013515,2549.429,2755.432,24.9,
1410,1,SBT2050,2,9,,4,32980,2.49986,-0.013149,2549.429,2755.602,24.9,
1410,1,SBT2050,2,9,,4,33026,2.50013,-0.012957,2549.429,2755.77,24.9,
1410,1,SBT2050,2,9,,4,33072,2.500078,-0.01271,2549.429,2755.934,24.8,
1410,1,SBT2050,2,9,,4,33118,2.49997,-0.012428,2549.429,2756.095,24.8,
1410,1,SBT2050,2,9,,4,33164,2.499768,-0.012149,2549.429,2756.253,24.9,
1410,1,SBT2050,2,9,,4,33210,2.50009,-0.012136,2549.429,2756.407,24.8,
1410,1,SBT2050,2,9,,4,33256,2.50003,-0.011883,2549.429,2756.559,24.8,
1410,1,SBT2050,2,9,,4,33302,2.50007,-0.011744,2549.429,2756.708,24.9,
1410,1,SBT2050,2,9,,4,33348,2.50003,-0.011246,2549.429,2756.853,24.9,
1410,1,SBT2050,2,9,,4,33394,2.50013,-0.011129,2549.429,2756.996,24.9,
1410,1,SBT2050,2,9,,4,33440,2.49996,-0.010929,2549.429,2757.137,24.9,
1410,1,SBT2050,2,9,,4,33486,2.50007,-0.010784,2549.429,2757.275,24.9,
1410,1,SBT2050,2,9,,4,33532,2.49985,-0.010332,2549.429,2757.41,24.8,
1410,1,SBT2050,2,9,,4,33578,2.50014,-0.010318,2549.429,2757.543,24.8,
1410,1,SBT2050,2,9,,5,33623,2.51262,0,2549.429,2757.641,24.8,
1410,1,SBT2050,2,9,,5,33669,2.54669,0,2549.429,2757.641,24.9,
1410,1,SBT2050,2,9,,5,33715,2.57462,0,2549.429,2757.641,24.8,
1410,1,SBT2050,2,9,,5,33761,2.5994,0,2549.429,2757.641,24.8,
1410,1,SBT2050,2,9,,5,33807,2.62116,0,2549.429,2757.641,24.8,
1410,1,SBT2050,2,9,,5,33853,2.64059,0,2549.429,2757.641,24.8,
1410,1,SBT2050,2,9,,5,33899,2.65761,0,2549.429,2757.641,24.8,
1410,1,SBT2050,2,9,,5,33945,2.6729,0,2549.429,2757.641,24.8,
1410,1,SBT2050,2,9,,5,33991,2.68641,0,2549.429,2757.641,24.8,
1410,1,SBT2050,2,9,,5,34037,2.69853,0,2549.429,2757.641,24.9,
1410,1,SBT2050,2,9,,5,34083,2.70944,0,2549.429,2757.641,24.8,
1410,1,SBT2050,2,9,,5,34129,2.71918,0,2549.429,2757.641,24.8,
1410,1,SBT2050,2,9,,5,34175,2.72817,0,2549.429,2757.641,24.8,
1410,1,SBT2050,2,9,,5,34221,2.73634,0,2549.429,2757.641,24.8,
1410,1,SBT2050,2,9,,5,34267,2.743647,0,2549.429,2757.641,24.8,
1410,1,SBT2050,2,9,,5,34313,2.75019,0,2549.429,2757.641,24.8,
1410,1,SBT2050,2,9,,5,34359,2.75659,0,2549.429,2757.641,24.8,
1410,1,SBT2050,2,9,,5,34405,2.76223,0,2549.429,2757.641,24.8,
1410,1,SBT2050,2,9,,5,34451,2.76726,0,2549.429,2757.641,24.8,
1410,1,SBT2050,2,9,,5,34497,2.77225,0,2549.429,2757.641,24.8,
1410,1,SBT2050,2,9,,5,34543,2.77659,0,2549.429,2757.641,24.8,
1410,1,SBT2050,2,9,,5,34589,2.78075,0,2549.429,2757.641,24.9,
1410,1,SBT2050,2,9,,5,34635,2.78457,0,2549.429,2757.641,24.8,
1410,1,SBT2050,2,9,,5,34681,2.78813,0,2549.429,2757.641,24.8,
1410,1,SBT2050,2,9,,5,34727,2.79131,0,2549.429,2757.641,24.8,
1410,1,SBT2050,2,9,,5,34773,2.79432,0,2549.429,2757.641,24.8,
1410,1,SBT2050,2,9,,5,34819,2.797665,0,2549.429,2757.641,24.8,
1410,1,SBT2050,2,9,,5,34865,2.80024,0,2549.429,2757.641,24.8,
1410,1,SBT2050,2,9,,5,34911,2.80274,0,2549.429,2757.641,24.8,
1410,1,SBT2050,2,9,,5,34957,2.8053,0,2549.429,2757.641,24.8,
1410,1,SBT2050,2,9,,5,35003,2.80753,0,2549.429,2757.641,24.8,
1410,1,SBT2050,2,9,,5,35049,2.80997,0,2549.429,2757.641,24.8,
1410,1,SBT2050,2,9,,5,35095,2.81178,0,2549.429,2757.641,24.8,
1410,1,SBT2050,2,9,,5,35141,2.81398,0,2549.429,2757.641,24.8,
1410,1,SBT2050,2,9,,5,35187,2.81588,0,2549.429,2757.641,24.8,
1410,1,SBT2050,2,9,,5,35233,2.81782,0,2549.429,2757.641,24.8,
1410,1,SBT2050,2,9,,5,35279,2.82,0,2549.429,2757.641,24.8,
1410,1,SBT2050,2,9,,5,35325,2.82124,0,2549.429,2757.641,24.8,
1410,1,SBT2050,2,9,,5,35371,2.82289,0,2549.429,2757.641,24.8,
1410,1,SBT2050,2,9,,5,35412.72,2.82478,-0.000101,2549.429,2757.641,,