File: 2C/Test1447.csv
Request Year:,2018,,,,,,,,,,,,
Test:,1447,,,,,,,,,,,,
Test Description:,,,,,,,,,,,,,
TestRegime Name:,Aging_Performance,,,,,,,,,,,,
TestRegime Suffix:,SHP_LC,,,,,,,,,,,,
TestRegime CellSize:,18650,,,,,,,,,,,,
TestRegime Version:,1,,,,,,,,,,,,
Number Of Cells:,1,,,,,,,,,,,,
LotID:,,,,,,,,,,,,,
Lot Description:,,,,,,,,,,,,,
Date Made:,1/21/2003 12:00 AM,,,,,,,,,,,,
Origin:,Other,,,,,,,,,,,,
Requestor:,Admin,,,,,,,,,,,,
Product ID:,Default product,,,,,,,,,,,,
Storage Temp:,R.T./AMB,,,,,,,,,,,,
Storage Delay:,0 days,,,,,,,,,,,,
Test Temp:,R.T./AMB,,,,,,,,,,,,
Start Time:,4/2/2018 9:40 PM,,,,,,,,,,,,
End Time:,4/3/2018 12:50 PM,,,,,,,,,,,,
Operator Instructions:,,,,,,,,,,,,,
Test,Cell,Rack,Shelf,Position,Cell ID,Step,Total Time (Seconds),Voltage (V),Current (A),Charge Capacity (mAh),Discharge Capacity (mAh),TC1 (Â°C),
1447,1,SBT2050,2,9,,0,1,3.40399,0,0,0,25.7,
1447,1,SBT2050,2,9,,0,72,3.40448,0,0,0,25.6,
1447,1,SBT2050,2,9,,0,143,3.40503,0,0,0,25.6,
1447,1,SBT2050,2,9,,0,214,3.40594,0,0,0,25.7,
1447,1,SBT2050,2,9,,0,285,3.40671,0,0,0,25.7,
1447,1,SBT2050,2,9,,1,356,2.726287,-2.9358,0,45.669,27.1,
1447,1,SBT2050,2,9,,1,427,2.4999,-2.3038,0,100.632,29.8,
1447,1,SBT2050,2,9,,1,498,2.499955,-1.611,0,138.405,31.2,
1447,1,SBT2050,2,9,,1,569,2.49976,-1.2132,0,166.02,31.7,
1447,1,SBT2050,2,9,,1,640,2.49988,-0.9044,0,186.805,31.5,
1447,1,SBT2050,2,9,,1,711,2.49976,-0.6459,0,202.007,31.1,
1447,1,SBT2050,2,9,,1,782,2.49978,-0.45967,0,212.781,30.4,
1447,1,SBT2050,2,9,,1,853,2.49974,-0.34451,0,220.619,29.8,
1447,1,SBT2050,2,9,,1,924,2.499955,-0.27362,0,226.661,29.1,
1447,1,SBT2050,2,9,,1,995,2.5,-0.22905,0,231.584,28.6,
1447,1,SBT2050,2,9,,1,1066,2.499788,-0.19835,0,235.778,28.1,
1447,1,SBT2050,2,9,,1,1137,2.5,-0.17662,0,239.462,27.8,
1447,1,SBT2050,2,9,,1,1208,2.49993,-0.16108,0,242.784,27.5,
1447,1,SBT2050,2,9,,1,1279,2.5001,-0.1502,0,245.848,27.2,
1447,1,SBT2050,2,9,,1,1350,2.49987,-0.14156,0,248.721,27.1,
1447,1,SBT2050,2,9,,1,1421,2.49984,-0.1351,0,251.447,26.9,
1447,1,SBT2050,2,9,,1,1492,2.499955,-0.12958,0,254.057,26.7,
1447,1,SBT2050,2,9,,1,1563,2.49974,-0.12486,0,256.566,26.6,
1447,1,SBT2050,2,9,,1,1634,2.5001,-0.12076,0,258.987,26.5,
1447,1,SBT2050,2,9,,1,1705,2.49999,-0.11728,0,261.332,26.5,
1447,1,SBT2050,2,9,,1,1776,2.499955,-0.11382,0,263.608,26.4,
1447,1,SBT2050,2,9,,1,1847,2.4999,-0.11078,0,265.822,26.4,
1447,1,SBT2050,2,9,,1,1918,2.49993,-0.10805,0,267.979,26.3,
1447,1,SBT2050,2,9,,1,1989,2.49991,-0.10532,0,270.083,26.3,
1447,1,SBT2050,2,9,,1,2060,2.500134,-0.10323,0,272.139,26.3,
1447,1,SBT2050,2,9,,1,2131,2.50018,-0.10103,0,274.15,26.2,
1447,1,SBT2050,2,9,,1,2202,2.49992,-0.09871,0,276.118,26.2,
1447,1,SBT2050,2,9,,1,2273,2.49988,-0.09677,0,278.047,26.2,
1447,1,SBT2050,2,9,,1,2344,2.49998,-0.09498,0,279.937,26.2,
1447,1,SBT2050,2,9,,1,2415,2.50006,-0.09316,0,281.791,26.2,
1447,1,SBT2050,2,9,,1,2486,2.50003,-0.09136,0,283.61,26.2,
1447,1,SBT2050,2,9,,1,2557,2.50004,-0.08966,0,285.394,26.2,
1447,1,SBT2050,2,9,,1,2628,2.49991,-0.08793,0,287.145,26.2,
1447,1,SBT2050,2,9,,1,2699,2.4999,-0.08647,0,288.867,26.1,
1447,1,SBT2050,2,9,,1,2770,2.49998,-0.08515,0,290.56,26.1,
1447,1,SBT2050,2,9,,1,2841,2.49998,-0.08361,0,292.225,26.1,
1447,1,SBT2050,2,9,,1,2912,2.49987,-0.08242,0,293.864,26.1,
1447,1,SBT2050,2,9,,1,2983,2.4999,-0.08106,0,295.477,26.1,
1447,1,SBT2050,2,9,,1,3054,2.49993,-0.07989,0,297.065,26.1,
1447,1,SBT2050,2,9,,1,3125,2.50006,-0.07869,0,298.629,26.1,
1447,1,SBT2050,2,9,,1,3196,2.5001,-0.07751,0,300.169,26.1,
1447,1,SBT2050,2,9,,1,3267,2.50004,-0.07634,0,301.686,26.1,
1447,1,SBT2050,2,9,,1,3338,2.5,-0.07508,0,303.179,26,
1447,1,SBT2050,2,9,,1,3409,2.499967,-0.07398,0,304.65,26.1,
1447,1,SBT2050,2,9,,1,3480,2.50016,-0.07298,0,306.098,26.1,
1447,1,SBT2050,2,9,,1,3551,2.50022,-0.0719,0,307.523,26,
1447,1,SBT2050,2,9,,1,3622,2.50004,-0.07067,0,308.928,26,
1447,1,SBT2050,2,9,,1,3693,2.500134,-0.06985,0,310.313,26.1,
1447,1,SBT2050,2,9,,1,3764,2.50004,-0.06885,0,311.68,26,
1447,1,SBT2050,2,9,,1,3835,2.50017,-0.06796,0,313.03,26,
1447,1,SBT2050,2,9,,1,3906,2.499955,-0.06709,0,314.361,26,
1447,1,SBT2050,2,9,,1,3977,2.499967,-0.0661,0,315.673,26,
1447,1,SBT2050,2,9,,1,4048,2.49985,-0.06518,0,316.968,26,
1447,1,SBT2050,2,9,,1,4119,2.50003,-0.06457,0,318.248,26.1,
1447,1,SBT2050,2,9,,1,4190,2.49993,-0.06372,0,319.513,26,
1447,1,SBT2050,2,9,,1,4261,2.49992,-0.06307,0,320.764,26,
1447,1,SBT2050,2,9,,1,4332,2.499955,-0.06231,0,322.002,26,
1447,1,SBT2050,2,9,,1,4403,2.50011,-0.06171,0,323.225,26,
1447,1,SBT2050,2,9,,1,4474,2.49994,-0.06107,0,324.436,26,
1447,1,SBT2050,2,9,,1,4545,2.4999,-0.06021,0,325.632,26,
1447,1,SBT2050,2,9,,1,4616,2.50005,-0.05957,0,326.816,26,
1447,1,SBT2050,2,9,,1,4687,2.50001,-0.05896,0,327.986,26,
1447,1,SBT2050,2,9,,1,4758,2.50019,-0.05851,0,329.143,26,
1447,1,SBT2050,2,9,,1,4829,2.49993,-0.05766,0,330.288,25.9,
1447,1,SBT2050,2,9,,1,4900,2.500122,-0.05708,0,331.418,25.9,
1447,1,SBT2050,2,9,,1,4971,2.49994,-0.05637,0,332.536,25.9,
1447,1,SBT2050,2,9,,1,5042,2.5,-0.05576,0,333.641,25.9,
1447,1,SBT2050,2,9,,1,5113,2.4999,-0.05506,0,334.733,25.9,
1447,1,SBT2050,2,9,,1,5184,2.5,-0.05447,0,335.813,25.9,
1447,1,SBT2050,2,9,,1,5255,2.499967,-0.05402,0,336.882,25.9,
1447,1,SBT2050,2,9,,1,5326,2.50001,-0.0535,0,337.941,25.8,
1447,1,SBT2050,2,9,,1,5397,2.4999,-0.05288,0,338.988,25.8,
1447,1,SBT2050,2,9,,1,5468,2.50003,-0.05229,0,340.025,25.9,
1447,1,SBT2050,2,9,,1,5539,2.499955,-0.05177,0,341.051,25.8,
1447,1,SBT2050,2,9,,1,5610,2.50004,-0.05138,0,342.067,25.9,
1447,1,SBT2050,2,9,,1,5681,2.49994,-0.05089,0,343.075,25.8,
1447,1,SBT2050,2,9,,1,5752,2.49987,-0.05024,0,344.074,25.8,
1447,1,SBT2050,2,9,,1,5823,2.49998,-0.04998,0,345.064,25.8,
1447,1,SBT2050,2,9,,1,5894,2.5001,-0.04953,0,346.045,25.8,
1447,1,SBT2050,2,9,,1,5965,2.50011,-0.04907,0,347.017,25.8,
1447,1,SBT2050,2,9,,1,6036,2.50004,-0.04869,0,347.98,25.8,
1447,1,SBT2050,2,9,,1,6107,2.50006,-0.04818,0,348.934,25.8,
1447,1,SBT2050,2,9,,1,6178,2.499967,-0.047776,0,349.88,25.8,
1447,1,SBT2050,2,9,,1,6249,2.49991,-0.047413,0,350.818,25.8,
1447,1,SBT2050,2,9,,1,6320,2.50017,-0.047008,0,351.747,25.8,
1447,1,SBT2050,2,9,,1,6391,2.50004,-0.046594,0,352.667,25.8,
1447,1,SBT2050,2,9,,1,6462,2.49993,-0.045901,0,353.579,25.8,
1447,1,SBT2050,2,9,,1,6533,2.49992,-0.04552,0,354.481,25.8,
1447,1,SBT2050,2,9,,1,6604,2.5001,-0.045122,0,355.375,25.8,
1447,1,SBT2050,2,9,,1,6675,2.499955,-0.044462,0,356.258,25.8,
1447,1,SBT2050,2,9,,1,6746,2.50004,-0.044144,0,357.133,25.7,
1447,1,SBT2050,2,9,,1,6817,2.49992,-0.043778,0,358,25.8,
1447,1,SBT2050,2,9,,1,6888,2.50003,-0.043426,0,358.859,25.7,
1447,1,SBT2050,2,9,,1,6959,2.50004,-0.043023,0,359.711,25.7,
1447,1,SBT2050,2,9,,1,7030,2.50001,-0.042518,0,360.555,25.7,
1447,1,SBT2050,2,9,,1,7101,2.49994,-0.042209,0,361.391,25.7,
1447,1,SBT2050,2,9,,1,7172,2.499967,-0.041781,0,362.22,25.8,
1447,1,SBT2050,2,9,,1,7243,2.50015,-0.041584,0,363.041,25.7,
1447,1,SBT2050,2,9,,1,7314,2.500122,-0.041112,0,363.855,25.7,
1447,1,SBT2050,2,9,,1,7385,2.50004,-0.040494,0,364.66,25.8,
1447,1,SBT2050,2,9,,1,7456,2.49985,-0.040279,0,365.458,25.7,
1447,1,SBT2050,2,9,,1,7527,2.49984,-0.039785,0,366.249,25.7,
1447,1,SBT2050,2,9,,1,7598,2.49993,-0.03945,0,367.032,25.7,
1447,1,SBT2050,2,9,,1,7669,2.50009,-0.039164,0,367.806,25.8,
1447,1,SBT2050,2,9,,1,7740,2.50017,-0.038708,0,368.572,25.8,
1447,1,SBT2050,2,9,,1,7811,2.49987,-0.038195,0,369.329,25.7,
1447,1,SBT2050,2,9,,1,7882,2.49999,-0.037735,0,370.077,25.7,
1447,1,SBT2050,2,9,,1,7953,2.49999,-0.037396,0,370.817,25.7,
1447,1,SBT2050,2,9,,1,8024,2.50005,-0.036813,0,371.547,25.7,
1447,1,SBT2050,2,9,,1,8095,2.50005,-0.036301,0,372.268,25.7,
1447,1,SBT2050,2,9,,1,8166,2.50001,-0.035923,0,372.981,25.7,
1447,1,SBT2050,2,9,,1,8237,2.50003,-0.035458,0,373.685,25.7,
1447,1,SBT2050,2,9,,1,8308,2.50022,-0.035067,0,374.38,25.7,
1447,1,SBT2050,2,9,,1,8379,2.50003,-0.03452,0,375.066,25.7,
1447,1,SBT2050,2,9,,1,8450,2.49994,-0.03418,0,375.744,25.7,
1447,1,SBT2050,2,9,,1,8521,2.499967,-0.033763,0,376.413,25.7,
1447,1,SBT2050,2,9,,1,8592,2.50006,-0.0333,0,377.074,25.7,
1447,1,SBT2050,2,9,,1,8663,2.50001,-0.032818,0,377.726,25.7,
1447,1,SBT2050,2,9,,1,8734,2.50001,-0.032396,0,378.369,25.7,
1447,1,SBT2050,2,9,,1,8805,2.49988,-0.032005,0,379.003,25.7,
1447,1,SBT2050,2,9,,1,8876,2.49988,-0.031459,0,379.63,25.7,
1447,1,SBT2050,2,9,,1,8947,2.499955,-0.031046,0,380.247,25.6,
1447,1,SBT2050,2,9,,1,9018,2.49992,-0.030661,0,380.856,25.6,
1447,1,SBT2050,2,9,,1,9089,2.50004,-0.030353,0,381.457,25.7,
1447,1,SBT2050,2,9,,1,9160,2.499955,-0.02979,0,382.049,25.6,
1447,1,SBT2050,2,9,,1,9231,2.50007,-0.029416,0,382.631,25.6,
1447,1,SBT2050,2,9,,1,9302,2.499955,-0.028816,0,383.205,25.6,
1447,1,SBT2050,2,9,,1,9373,2.49986,-0.028342,0,383.769,25.6,
1447,1,SBT2050,2,9,,1,9444,2.499955,-0.0279,0,384.325,25.7,
1447,1,SBT2050,2,9,,1,9515,2.50001,-0.02771,0,384.874,25.6,
1447,1,SBT2050,2,9,,1,9586,2.50015,-0.027343,0,385.415,25.6,
1447,1,SBT2050,2,9,,1,9657,2.5,-0.026866,0,385.949,25.6,
1447,1,SBT2050,2,9,,1,9728,2.49978,-0.02629,0,386.475,25.6,
1447,1,SBT2050,2,9,,1,9799,2.499967,-0.026107,0,386.994,25.6,
1447,1,SBT2050,2,9,,1,9870,2.50001,-0.025615,0,387.504,25.6,
1447,1,SBT2050,2,9,,1,9941,2.50019,-0.025388,0,388.006,25.6,
1447,1,SBT2050,2,9,,1,10012,2.50009,-0.024951,0,388.501,25.6,
1447,1,SBT2050,2,9,,1,10083,2.49994,-0.024576,0,388.989,25.6,
1447,1,SBT2050,2,9,,1,10154,2.5,-0.024183,0,389.469,25.6,
1447,1,SBT2050,2,9,,1,10225,2.50005,-0.023939,0,389.943,25.6,
1447,1,SBT2050,2,9,,1,10296,2.49999,-0.023479,0,390.41,25.6,
1447,1,SBT2050,2,9,,1,10367,2.49993,-0.023088,0,390.87,25.5,
1447,1,SBT2050,2,9,,1,10438,2.49986,-0.022743,0,391.323,25.5,
1447,1,SBT2050,2,9,,1,10509,2.499955,-0.022384,0,391.77,25.6,
1447,1,SBT2050,2,9,,1,10580,2.49994,-0.022075,0,392.21,25.6,
1447,1,SBT2050,2,9,,1,10651,2.4998,-0.021662,0,392.643,25.6,
1447,1,SBT2050,2,9,,1,10722,2.49998,-0.0214,0,393.069,25.6,
1447,1,SBT2050,2,9,,1,10793,2.49999,-0.020972,0,393.488,25.6,
1447,1,SBT2050,2,9,,1,10864,2.499967,-0.020668,0,393.899,25.5,
1447,1,SBT2050,2,9,,1,10935,2.49999,-0.020329,0,394.304,25.5,
1447,1,SBT2050,2,9,,1,11006,2.50001,-0.02003,0,394.703,25.5,
1447,1,SBT2050,2,9,,1,11077,2.499967,-0.019698,0,395.095,25.5,
1447,1,SBT2050,2,9,,1,11148,2.50004,-0.019427,0,395.481,25.5,
1447,1,SBT2050,2,9,,1,11219,2.49991,-0.01909,0,395.86,25.5,
1447,1,SBT2050,2,9,,1,11290,2.50005,-0.018691,0,396.234,25.5,
1447,1,SBT2050,2,9,,1,11361,2.49998,-0.018511,0,396.601,25.5,
1447,1,SBT2050,2,9,,1,11432,2.50016,-0.018139,0,396.963,25.5,
1447,1,SBT2050,2,9,,1,11503,2.499967,-0.017829,0,397.318,25.5,
1447,1,SBT2050,2,9,,1,11574,2.5,-0.017623,0,397.668,25.5,
1447,1,SBT2050,2,9,,1,11645,2.49999,-0.017321,0,398.013,25.5,
1447,1,SBT2050,2,9,,1,11716,2.49985,-0.017154,0,398.353,25.5,
1447,1,SBT2050,2,9,,1,11787,2.50009,-0.016946,0,398.687,25.5,
1447,1,SBT2050,2,9,,1,11858,2.49991,-0.016488,0,399.017,25.5,
1447,1,SBT2050,2,9,,1,11929,2.49994,-0.016276,0,399.342,25.5,
1447,1,SBT2050,2,9,,1,12000,2.4999,-0.016066,0,399.661,25.5,
1447,1,SBT2050,2,9,,1,12071,2.5,-0.015833,0,399.974,25.5,
1447,1,SBT2050,2,9,,1,12142,2.50003,-0.01558,0,400.283,25.5,
1447,1,SBT2050,2,9,,1,12213,2.50011,-0.015281,0,400.586,25.5,
1447,1,SBT2050,2,9,,1,12284,2.49991,-0.014888,0,400.884,25.5,
1447,1,SBT2050,2,9,,1,12355,2.50011,-0.014891,0,401.177,25.4,
1447,1,SBT2050,2,9,,1,12426,2.49992,-0.01452,0,401.466,25.4,
1447,1,SBT2050,2,9,,1,12497,2.50015,-0.014221,0,401.75,25.4,
1447,1,SBT2050,2,9,,1,12568,2.500122,-0.0142,0,402.029,25.4,
1447,1,SBT2050,2,9,,1,12639,2.5,-0.013776,0,402.304,25.4,
1447,1,SBT2050,2,9,,1,12710,2.49998,-0.013627,0,402.575,25.4,
1447,1,SBT2050,2,9,,1,12781,2.5,-0.013351,0,402.842,25.4,
1447,1,SBT2050,2,9,,1,12852,2.5,-0.013077,0,403.105,25.4,
1447,1,SBT2050,2,9,,1,12923,2.50004,-0.013005,0,403.363,25.4,
1447,1,SBT2050,2,9,,1,12994,2.50003,-0.012848,0,403.617,25.4,
1447,1,SBT2050,2,9,,1,13065,2.50005,-0.012513,0,403.867,25.4,
1447,1,SBT2050,2,9,,1,13136,2.500134,-0.01233,0,404.113,25.4,
1447,1,SBT2050,2,9,,1,13207,2.50007,-0.01214,0,404.355,25.4,
1447,1,SBT2050,2,9,,1,13278,2.49973,-0.011986,0,404.593,25.4,
1447,1,SBT2050,2,9,,1,13349,2.49999,-0.011788,0,404.828,25.4,
1447,1,SBT2050,2,9,,1,13420,2.499812,-0.011384,0,405.058,25.4,
1447,1,SBT2050,2,9,,1,13491,2.50009,-0.011419,0,405.286,25.4,
1447,1,SBT2050,2,9,,1,13562,2.49991,-0.011236,0,405.51,25.4,
1447,1,SBT2050,2,9,,1,13633,2.50018,-0.011169,0,405.731,25.4,
1447,1,SBT2050,2,9,,1,13704,2.49993,-0.010886,0,405.949,25.4,
1447,1,SBT2050,2,9,,1,13775,2.50007,-0.010871,0,406.164,25.4,
1447,1,SBT2050,2,9,,1,13846,2.49998,-0.010632,0,406.375,25.4,
1447,1,SBT2050,2,9,,1,13917,2.500122,-0.010632,0,406.584,25.4,
1447,1,SBT2050,2,9,,2,13987,3.21555,2.9363,5.486,406.767,25.5,
1447,1,SBT2050,2,9,,2,14058,3.66514,2.936,63.39,406.767,26.1,
1447,1,SBT2050,2,9,,2,14129,3.74712,2.9363,121.293,406.767,27.2,
1447,1,SBT2050,2,9,,2,14200,3.77113,2.9356,179.196,406.767,28.2,
1447,1,SBT2050,2,9,,2,14271,3.79307,2.9359,237.1,406.767,29.1,
1447,1,SBT2050,2,9,,2,14342,3.81119,2.9357,295.003,406.767,29.7,
1447,1,SBT2050,2,9,,2,14413,3.82696,2.9357,352.907,406.767,30.2,
1447,1,SBT2050,2,9,,2,14484,3.84229,2.9359,410.81,406.767,30.5,
1447,1,SBT2050,2,9,,2,14555,3.85836,2.9361,468.713,406.767,30.8,
1447,1,SBT2050,2,9,,2,14626,3.87496,2.936,526.617,406.767,31,
1447,1,SBT2050,2,9,,2,14697,3.8925,2.9364,584.52,406.767,31.1,
1447,1,SBT2050,2,9,,2,14768,3.91071,2.936,642.424,406.767,31.2,
1447,1,SBT2050,2,9,,2,14839,3.93057,2.936,700.327,406.767,31.3,
1447,1,SBT2050,2,9,,2,14910,3.951426,2.9357,758.231,406.767,31.4,
1447,1,SBT2050,2,9,,2,14981,3.9733,2.9361,816.134,406.767,31.5,
1447,1,SBT2050,2,9,,2,15052,3.99526,2.9361,874.038,406.767,31.6,
1447,1,SBT2050,2,9,,2,15123,4.01733,2.9361,931.942,406.767,31.8,
1447,1,SBT2050,2,9,,2,15194,4.03916,2.9356,989.845,406.767,31.8,
1447,1,SBT2050,2,9,,2,15265,4.06111,2.9357,1047.749,406.767,31.9,
1447,1,SBT2050,2,9,,2,15336,4.08266,2.9359,1105.653,406.767,32,
1447,1,SBT2050,2,9,,2,15407,4.10482,2.9358,1163.557,406.767,32.2,
1447,1,SBT2050,2,9,,2,15478,4.12743,2.9357,1221.461,406.767,32.3,
1447,1,SBT2050,2,9,,2,15549,4.15024,2.9253,1279.361,406.767,32.3,
1447,1,SBT2050,2,9,,2,15620,4.14991,2.6685,1334.32,406.767,32.3,
1447,1,SBT2050,2,9,,2,15691,4.15006,2.4561,1384.828,406.767,32.2,
1447,1,SBT2050,2,9,,2,15762,4.149836,2.2574,1431.278,406.767,32,
1447,1,SBT2050,2,9,,2,15833,4.15027,2.0761,1473.984,406.767,31.6,
1447,1,SBT2050,2,9,,2,15904,4.15011,1.913,1513.295,406.767,31.3,
1447,1,SBT2050,2,9,,2,15975,4.14997,1.7698,1549.587,406.767,30.9,
1447,1,SBT2050,2,9,,2,16046,4.15005,1.6396,1583.196,406.767,30.4,
1447,1,SBT2050,2,9,,2,16117,4.15004,1.5255,1614.4,406.767,30.1,
1447,1,SBT2050,2,9,,2,16188,4.150122,1.4232,1643.467,406.767,29.7,
1447,1,SBT2050,2,9,,2,16259,4.14972,1.331,1670.61,406.767,29.4,
1447,1,SBT2050,2,9,,2,16330,4.15003,1.248,1696.035,406.767,29,
1447,1,SBT2050,2,9,,2,16401,4.14999,1.1718,1719.888,406.767,28.7,
1447,1,SBT2050,2,9,,2,16472,4.15,1.1022,1742.31,406.767,28.5,
1447,1,SBT2050,2,9,,2,16543,4.15001,1.0417,1763.449,406.767,28.3,
1447,1,SBT2050,2,9,,2,16614,4.14992,0.9845,1783.408,406.767,28,
1447,1,SBT2050,2,9,,2,16685,4.15004,0.9313,1802.283,406.767,27.8,
1447,1,SBT2050,2,9,,2,16756,4.15003,0.882,1820.158,406.767,27.6,
1447,1,SBT2050,2,9,,2,16827,4.14993,0.8368,1837.105,406.767,27.5,
1447,1,SBT2050,2,9,,2,16898,4.150158,0.7962,1853.201,406.767,27.3,
1447,1,SBT2050,2,9,,2,16969,4.14999,0.757,1868.506,406.767,27.1,
1447,1,SBT2050,2,9,,2,17040,4.15025,0.7198,1883.073,406.767,27,
1447,1,SBT2050,2,9,,2,17111,4.15,0.6862,1896.946,406.767,26.9,
1447,1,SBT2050,2,9,,2,17182,4.150122,0.657,1910.18,406.767,26.8,
1447,1,SBT2050,2,9,,2,17253,4.14994,0.6268,1922.83,406.767,26.7,
1447,1,SBT2050,2,9,,2,17324,4.14992,0.5982,1934.907,406.767,26.6,
1447,1,SBT2050,2,9,,2,17395,4.15005,0.5724,1946.459,406.767,26.6,
1447,1,SBT2050,2,9,,2,17466,4.15007,0.5495,1957.523,406.767,26.5,
1447,1,SBT2050,2,9,,2,17537,4.15003,0.5256,1968.122,406.767,26.4,
1447,1,SBT2050,2,9,,2,17608,4.15029,0.5041,1978.285,406.767,26.3,
1447,1,SBT2050,2,9,,2,17679,4.150158,0.4841,1988.04,406.767,26.3,
1447,1,SBT2050,2,9,,2,17750,4.15024,0.46535,1997.415,406.767,26.2,
1447,1,SBT2050,2,9,,2,17821,4.14986,0.44793,2006.422,406.767,26.2,
1447,1,SBT2050,2,9,,2,17892,4.15005,0.43114,2015.085,406.767,26.1,
1447,1,SBT2050,2,9,,2,17963,4.149836,0.41541,2023.426,406.767,26.1,
1447,1,SBT2050,2,9,,2,18034,4.15017,0.39956,2031.455,406.767,26.1,
1447,1,SBT2050,2,9,,2,18105,4.15007,0.38416,2039.183,406.767,26,
1447,1,SBT2050,2,9,,2,18176,4.15009,0.37168,2046.641,406.767,26,
1447,1,SBT2050,2,9,,2,18247,4.15005,0.35784,2053.83,406.767,26,
1447,1,SBT2050,2,9,,2,18318,4.14988,0.34531,2060.769,406.767,26,
1447,1,SBT2050,2,9,,2,18389,4.15,0.33436,2067.477,406.767,25.9,
1447,1,SBT2050,2,9,,2,18460,4.15007,0.3238,2073.956,406.767,25.9,
1447,1,SBT2050,2,9,,2,18531,4.15024,0.31314,2080.232,406.767,25.9,
1447,1,SBT2050,2,9,,2,18602,4.14974,0.30363,2086.308,406.767,25.9,
1447,1,SBT2050,2,9,,2,18673,4.14993,0.29364,2092.186,406.767,25.8,
1447,1,SBT2050,2,9,,2,18744,4.14999,0.28413,2097.882,406.767,25.8,
1447,1,SBT2050,2,9,,2,18815,4.14991,0.27456,2103.389,406.767,25.8,
1447,1,SBT2050,2,9,,2,18886,4.15018,0.26649,2108.729,406.767,25.8,
1447,1,SBT2050,2,9,,2,18957,4.150122,0.25877,2113.916,406.767,25.8,
1447,1,SBT2050,2,9,,2,19028,4.15009,0.25134,2118.949,406.767,25.8,
1447,1,SBT2050,2,9,,2,19099,4.14992,0.24333,2123.837,406.767,25.7,
1447,1,SBT2050,2,9,,2,19170,4.14997,0.23717,2128.573,406.767,25.8,
1447,1,SBT2050,2,9,,2,19241,4.150158,0.23008,2133.179,406.767,25.7,
1447,1,SBT2050,2,9,,2,19312,4.15006,0.22453,2137.659,406.767,25.7,
1447,1,SBT2050,2,9,,2,19383,4.15021,0.21809,2142.017,406.767,25.7,
1447,1,SBT2050,2,9,,2,19454,4.15009,0.21215,2146.261,406.767,25.7,
1447,1,SBT2050,2,9,,2,19525,4.15023,0.20631,2150.391,406.767,25.7,
1447,1,SBT2050,2,9,,2,19596,4.15011,0.2007,2154.41,406.767,25.7,
1447,1,SBT2050,2,9,,2,19667,4.1503,0.19609,2158.326,406.767,25.6,
1447,1,SBT2050,2,9,,2,19738,4.15007,0.19022,2162.142,406.767,25.6,
1447,1,SBT2050,2,9,,2,19809,4.15024,0.18496,2165.856,406.767,25.7,
1447,1,SBT2050,2,9,,2,19880,4.14993,0.18095,2169.468,406.767,25.6,
1447,1,SBT2050,2,9,,2,19951,4.15019,0.17682,2173.001,406.767,25.6,
1447,1,SBT2050,2,9,,2,20022,4.1503,0.17168,2176.442,406.767,25.6,
1447,1,SBT2050,2,9,,2,20093,4.14975,0.16804,2179.801,406.767,25.6,
1447,1,SBT2050,2,9,,2,20164,4.15005,0.16439,2183.074,406.767,25.6,
1447,1,SBT2050,2,9,,2,20235,4.150122,0.16027,2186.276,406.767,25.6,
1447,1,SBT2050,2,9,,2,20306,4.15006,0.15627,2189.396,406.767,25.6,
1447,1,SBT2050,2,9,,2,20377,4.14986,0.15355,2192.456,406.767,25.6,
1447,1,SBT2050,2,9,,2,20448,4.14986,0.14928,2195.439,406.767,25.6,
1447,1,SBT2050,2,9,,2,20519,4.150158,0.14656,2198.356,406.767,25.6,
1447,1,SBT2050,2,9,,2,20590,4.15004,0.14242,2201.206,406.767,25.6,
1447,1,SBT2050,2,9,,2,20661,4.14981,0.14027,2203.989,406.767,25.6,
1447,1,SBT2050,2,9,,2,20732,4.15027,0.13572,2206.712,406.767,25.6,
1447,1,SBT2050,2,9,,2,20803,4.15018,0.13336,2209.369,406.767,25.6,
1447,1,SBT2050,2,9,,2,20874,4.14976,0.13095,2211.974,406.767,25.5,
1447,1,SBT2050,2,9,,2,20945,4.14997,0.12796,2214.524,406.767,25.6,
1447,1,SBT2050,2,9,,2,21016,4.149824,0.1246,2217.01,406.767,25.5,
1447,1,SBT2050,2,9,,2,21087,4.15,0.12188,2219.445,406.767,25.5,
1447,1,SBT2050,2,9,,2,21158,4.15003,0.11994,2221.827,406.767,25.5,
1447,1,SBT2050,2,9,,2,21229,4.15005,0.11733,2224.17,406.767,25.5,
1447,1,SBT2050,2,9,,2,21300,4.14997,0.11522,2226.462,406.767,25.5,
1447,1,SBT2050,2,9,,2,21371,4.149872,0.11245,2228.7,406.767,25.5,
1447,1,SBT2050,2,9,,2,21442,4.15011,0.11026,2230.898,406.767,25.5,
1447,1,SBT2050,2,9,,2,21513,4.15,0.10843,2233.054,406.767,25.5,
1447,1,SBT2050,2,9,,2,21584,4.15,0.10615,2235.17,406.767,25.5,
1447,1,SBT2050,2,9,,2,21655,4.150122,0.10438,2237.239,406.767,25.5,
1447,1,SBT2050,2,9,,2,21726,4.15005,0.10169,2239.264,406.767,25.5,
1447,1,SBT2050,2,9,,2,21797,4.15,0.09943,2241.249,406.767,25.5,
1447,1,SBT2050,2,9,,2,21868,4.14997,0.09811,2243.204,406.767,25.5,
1447,1,SBT2050,2,9,,2,21939,4.15,0.09597,2245.129,406.767,25.5,
1447,1,SBT2050,2,9,,2,22010,4.14994,0.0945,2247.007,406.767,25.5,
1447,1,SBT2050,2,9,,2,22081,4.15,0.09263,2248.848,406.767,25.5,
1447,1,SBT2050,2,9,,2,22152,4.14997,0.08989,2250.647,406.767,25.5,
1447,1,SBT2050,2,9,,2,22223,4.15,0.08899,2252.417,406.767,25.5,
1447,1,SBT2050,2,9,,2,22294,4.1501,0.08678,2254.154,406.767,25.5,
1447,1,SBT2050,2,9,,2,22365,4.14998,0.08607,2255.857,406.767,25.5,
1447,1,SBT2050,2,9,,2,22436,4.150122,0.08415,2257.533,406.767,25.5,
1447,1,SBT2050,2,9,,2,22507,4.15001,0.08223,2259.175,406.767,25.5,
1447,1,SBT2050,2,9,,2,22578,4.15003,0.08077,2260.786,406.767,25.5,
1447,1,SBT2050,2,9,,2,22649,4.15018,0.07901,2262.362,406.767,25.5,
1447,1,SBT2050,2,9,,2,22720,4.14996,0.07813,2263.912,406.767,25.5,
1447,1,SBT2050,2,9,,2,22791,4.14997,0.07604,2265.429,406.767,25.5,
1447,1,SBT2050,2,9,,2,22862,4.15009,0.07537,2266.921,406.767,25.5,
1447,1,SBT2050,2,9,,2,22933,4.14996,0.07335,2268.393,406.767,25.5,
1447,1,SBT2050,2,9,,2,23004,4.15003,0.07269,2269.839,406.767,25.5,
1447,1,SBT2050,2,9,,2,23075,4.14986,0.07087,2271.258,406.767,25.5,
1447,1,SBT2050,2,9,,2,23146,4.15018,0.06958,2272.645,406.767,25.5,
1447,1,SBT2050,2,9,,2,23217,4.14997,0.06855,2274.004,406.767,25.4,
1447,1,SBT2050,2,9,,2,23288,4.1498,0.06739,2275.34,406.767,25.4,
1447,1,SBT2050,2,9,,2,23359,4.149848,0.06636,2276.657,406.767,25.4,
1447,1,SBT2050,2,9,,2,23430,4.14997,0.06551,2277.961,406.767,25.5,
1447,1,SBT2050,2,9,,2,23501,4.150122,0.0644,2279.234,406.767,25.5,
1447,1,SBT2050,2,9,,2,23572,4.15003,0.0634,2280.494,406.767,25.4,
1447,1,SBT2050,2,9,,2,23643,4.15018,0.06228,2281.734,406.767,25.4,
1447,1,SBT2050,2,9,,2,23714,4.15009,0.06079,2282.944,406.767,25.5,
1447,1,SBT2050,2,9,,2,23785,4.14979,0.06032,2284.138,406.767,25.4,
1447,1,SBT2050,2,9,,2,23856,4.1501,0.05926,2285.317,406.767,25.4,
1447,1,SBT2050,2,9,,2,23927,4.149848,0.05835,2286.473,406.767,25.4,
1447,1,SBT2050,2,9,,2,23998,4.15011,0.05724,2287.613,406.767,25.5,
1447,1,SBT2050,2,9,,2,24069,4.15007,0.05652,2288.734,406.767,25.4,
1447,1,SBT2050,2,9,,2,24140,4.14997,0.05485,2289.832,406.767,25.4,
1447,1,SBT2050,2,9,,2,24211,4.149872,0.05441,2290.905,406.767,25.4,
1447,1,SBT2050,2,9,,2,24282,4.15003,0.05286,2291.968,406.767,25.4,
1447,1,SBT2050,2,9,,2,24353,4.1501,0.05209,2293.008,406.767,25.4,
1447,1,SBT2050,2,9,,2,24424,4.15018,0.05206,2294.042,406.767,25.4,
1447,1,SBT2050,2,9,,2,24495,4.15,0.05121,2295.06,406.767,25.4,
1447,1,SBT2050,2,9,,2,24566,4.150122,0.05024,2296.067,406.767,25.4,
1447,1,SBT2050,2,9,,2,24637,4.14996,0.0498,2297.054,406.767,25.4,
1447,1,SBT2050,2,9,,2,24708,4.14996,0.04816,2298.017,406.767,25.4,
1447,1,SBT2050,2,9,,2,24779,4.150158,0.04839,2298.968,406.767,25.4,
1447,1,SBT2050,2,9,,2,24850,4.150158,0.046753,2299.907,406.767,25.4,
1447,1,SBT2050,2,9,,2,24921,4.1501,0.046604,2300.833,406.767,25.4,
1447,1,SBT2050,2,9,,2,24992,4.14986,0.046157,2301.749,406.767,25.4,
1447,1,SBT2050,2,9,,2,25063,4.14998,0.045165,2302.652,406.767,25.4,
1447,1,SBT2050,2,9,,2,25134,4.14999,0.044777,2303.543,406.767,25.5,
1447,1,SBT2050,2,9,,2,25205,4.149824,0.044504,2304.418,406.767,25.4,
1447,1,SBT2050,2,9,,2,25276,4.15006,0.043631,2305.28,406.767,25.4,
1447,1,SBT2050,2,9,,2,25347,4.15009,0.042756,2306.131,406.767,25.5,
1447,1,SBT2050,2,9,,2,25418,4.14997,0.042648,2306.97,406.767,25.4,
1447,1,SBT2050,2,9,,2,25489,4.14986,0.04178,2307.798,406.767,25.4,
1447,1,SBT2050,2,9,,2,25560,4.14999,0.041153,2308.616,406.767,25.4,
1447,1,SBT2050,2,9,,2,25631,4.15,0.040757,2309.42,406.767,25.4,
1447,1,SBT2050,2,9,,2,25702,4.15004,0.039729,2310.21,406.767,25.4,
1447,1,SBT2050,2,9,,2,25773,4.15006,0.039284,2310.983,406.767,25.5,
1447,1,SBT2050,2,9,,2,25844,4.14974,0.039174,2311.756,406.767,25.4,
1447,1,SBT2050,2,9,,2,25915,4.14993,0.037804,2312.518,406.767,25.4,
1447,1,SBT2050,2,9,,2,25986,4.14998,0.03796,2313.267,406.767,25.4,
1447,1,SBT2050,2,9,,2,26057,4.14999,0.03725,2314.007,406.767,25.4,
1447,1,SBT2050,2,9,,2,26128,4.15006,0.037001,2314.737,406.767,25.4,
1447,1,SBT2050,2,9,,2,26199,4.14994,0.036533,2315.459,406.767,25.4,
1447,1,SBT2050,2,9,,2,26270,4.14992,0.035564,2316.172,406.767,25.4,
1447,1,SBT2050,2,9,,2,26341,4.15,0.035933,2316.877,406.767,25.4,
1447,1,SBT2050,2,9,,2,26412,4.14976,0.03509,2317.574,406.767,25.4,
1447,1,SBT2050,2,9,,2,26483,4.14999,0.034387,2318.262,406.767,25.4,
1447,1,SBT2050,2,9,,2,26554,4.14994,0.034406,2318.939,406.767,25.4,
1447,1,SBT2050,2,9,,2,26625,4.14998,0.033663,2319.612,406.767,25.4,
1447,1,SBT2050,2,9,,2,26696,4.150146,0.033321,2320.272,406.767,25.4,
1447,1,SBT2050,2,9,,2,26767,4.14978,0.033251,2320.928,406.767,25.4,
1447,1,SBT2050,2,9,,2,26838,4.150158,0.032686,2321.576,406.767,25.4,
1447,1,SBT2050,2,9,,2,26909,4.15005,0.031197,2322.213,406.767,25.4,
1447,1,SBT2050,2,9,,2,26980,4.15005,0.031383,2322.832,406.767,25.4,
1447,1,SBT2050,2,9,,2,27051,4.1498,0.03153,2323.456,406.767,25.4,
1447,1,SBT2050,2,9,,2,27122,4.1501,0.03082,2324.071,406.767,25.4,
1447,1,SBT2050,2,9,,2,27193,4.15,0.030498,2324.68,406.767,25.4,
1447,1,SBT2050,2,9,,2,27264,4.14986,0.030111,2325.279,406.767,25.4,
1447,1,SBT2050,2,9,,2,27335,4.14994,0.029847,2325.871,406.767,25.4,
1447,1,SBT2050,2,9,,2,27406,4.14986,0.029684,2326.458,406.767,25.4,
1447,1,SBT2050,2,9,,2,27477,4.14996,0.029509,2327.04,406.767,25.4,
1447,1,SBT2050,2,9,,2,27548,4.14992,0.028991,2327.611,406.767,25.4,
1447,1,SBT2050,2,9,,2,27619,4.15,0.028226,2328.177,406.767,25.4,
1447,1,SBT2050,2,9,,2,27690,4.15006,0.028097,2328.736,406.767,25.4,
1447,1,SBT2050,2,9,,2,27761,4.14994,0.028059,2329.291,406.767,25.4,
1447,1,SBT2050,2,9,,2,27832,4.15001,0.027737,2329.841,406.767,25.4,
1447,1,SBT2050,2,9,,2,27903,4.14998,0.027661,2330.382,406.767,25.4,
1447,1,SBT2050,2,9,,2,27974,4.15,0.026876,2330.916,406.767,25.4,
1447,1,SBT2050,2,9,,2,28045,4.14994,0.026547,2331.443,406.767,25.4,
1447,1,SBT2050,2,9,,2,28116,4.14993,0.025732,2331.96,406.767,25.4,
1447,1,SBT2050,2,9,,2,28187,4.14991,0.025668,2332.466,406.767,25.4,
1447,1,SBT2050,2,9,,2,28258,4.14988,0.025985,2332.979,406.767,25.4,
1447,1,SBT2050,2,9,,2,28329,4.14997,0.025511,2333.487,406.767,25.4,
1447,1,SBT2050,2,9,,2,28400,4.15009,0.025404,2333.991,406.767,25.4,
1447,1,SBT2050,2,9,,2,28471,4.14999,0.024975,2334.485,406.767,25.4,
1447,1,SBT2050,2,9,,2,28542,4.14996,0.02465,2334.975,406.767,25.4,
1447,1,SBT2050,2,9,,2,28613,4.14999,0.024231,2335.46,406.767,25.4,
1447,1,SBT2050,2,9,,2,28684,4.14991,0.024147,2335.939,406.767,25.4,
1447,1,SBT2050,2,9,,2,28755,4.15001,0.023745,2336.413,406.767,25.4,
1447,1,SBT2050,2,9,,2,28826,4.14999,0.023539,2336.882,406.767,25.4,
1447,1,SBT2050,2,9,,2,28897,4.149824,0.023573,2337.347,406.767,25.4,
1447,1,SBT2050,2,9,,2,28968,4.15,0.023006,2337.807,406.767,25.4,
1447,1,SBT2050,2,9,,2,29039,4.14996,0.022872,2338.261,406.767,25.4,
1447,1,SBT2050,2,9,,2,29110,4.14991,0.022971,2338.714,406.767,25.4,
1447,1,SBT2050,2,9,,2,29181,4.14994,0.02213,2339.157,406.767,25.4,
1447,1,SBT2050,2,9,,2,29252,4.15021,0.02211,2339.59,406.767,25.4,
1447,1,SBT2050,2,9,,2,29323,4.14996,0.022553,2340.03,406.767,25.4,
1447,1,SBT2050,2,9,,2,29394,4.15,0.021635,2340.463,406.767,25.4,
1447,1,SBT2050,2,9,,2,29465,4.1501,0.021724,2340.886,406.767,25.4,
1447,1,SBT2050,2,9,,2,29536,4.1501,0.021226,2341.309,406.767,25.4,
1447,1,SBT2050,2,9,,2,29607,4.14988,0.021284,2341.733,406.767,25.4,
1447,1,SBT2050,2,9,,2,29678,4.149872,0.021275,2342.15,406.767,25.4,
1447,1,SBT2050,2,9,,2,29749,4.15,0.020726,2342.557,406.767,25.4,
1447,1,SBT2050,2,9,,2,29820,4.150146,0.020457,2342.964,406.767,25.4,
1447,1,SBT2050,2,9,,2,29891,4.149824,0.020632,2343.366,406.767,25.4,
1447,1,SBT2050,2,9,,2,29962,4.15017,0.020184,2343.767,406.767,25.4,
1447,1,SBT2050,2,9,,2,30033,4.1499,0.020506,2344.168,406.767,25.4,
1447,1,SBT2050,2,9,,2,30104,4.15,0.019826,2344.562,406.767,25.4,
1447,1,SBT2050,2,9,,2,30175,4.149872,0.019872,2344.953,406.767,25.4,
1447,1,SBT2050,2,9,,2,30246,4.15006,0.019354,2345.341,406.767,25.4,
1447,1,SBT2050,2,9,,2,30317,4.15003,0.019465,2345.726,406.767,25.4,
1447,1,SBT2050,2,9,,2,30388,4.1501,0.01916,2346.105,406.767,25.4,
1447,1,SBT2050,2,9,,2,30459,4.14988,0.01953,2346.485,406.767,25.4,
1447,1,SBT2050,2,9,,2,30530,4.14991,0.018645,2346.861,406.767,25.4,
1447,1,SBT2050,2,9,,2,30601,4.15005,0.018468,2347.227,406.767,25.4,
1447,1,SBT2050,2,9,,2,30672,4.15007,0.018834,2347.597,406.767,25.4,
1447,1,SBT2050,2,9,,2,30743,4.14991,0.01873,2347.964,406.767,25.4,
1447,1,SBT2050,2,9,,2,30814,4.14992,0.018407,2348.326,406.767,25.4,
1447,1,SBT2050,2,9,,2,30885,4.1499,0.018397,2348.687,406.767,25.4,
1447,1,SBT2050,2,9,,2,30956,4.15005,0.017857,2349.039,406.767,25.4,
1447,1,SBT2050,2,9,,2,31027,4.15022,0.017839,2349.392,406.767,25.4,
1447,1,SBT2050,2,9,,2,31098,4.14996,0.016951,2349.738,406.767,25.4,
1447,1,SBT2050,2,9,,2,31169,4.14996,0.01756,2350.083,406.767,25.4,
1447,1,SBT2050,2,9,,2,31240,4.14999,0.016949,2350.421,406.767,25.4,
1447,1,SBT2050,2,9,,2,31311,4.14998,0.017431,2350.765,406.767,25.4,
1447,1,SBT2050,2,9,,2,31382,4.1498,0.01739,2351.103,406.767,25.4,
1447,1,SBT2050,2,9,,2,31453,4.149824,0.017015,2351.439,406.767,25.4,
1447,1,SBT2050,2,9,,2,31524,4.15022,0.016777,2351.771,406.767,25.4,
1447,1,SBT2050,2,9,,2,31595,4.15,0.016643,2352.1,406.767,25.4,
1447,1,SBT2050,2,9,,2,31666,4.14999,0.015982,2352.425,406.767,25.4,
1447,1,SBT2050,2,9,,2,31737,4.14986,0.01623,2352.743,406.767,25.4,
1447,1,SBT2050,2,9,,2,31808,4.149824,0.016352,2353.062,406.767,25.4,
1447,1,SBT2050,2,9,,2,31879,4.15001,0.016376,2353.381,406.767,25.4,
1447,1,SBT2050,2,9,,2,31950,4.1501,0.015348,2353.694,406.767,25.4,
1447,1,SBT2050,2,9,,2,32021,4.14993,0.015482,2354.004,406.767,25.4,
1447,1,SBT2050,2,9,,2,32092,4.15009,0.015928,2354.314,406.767,25.4,
1447,1,SBT2050,2,9,,2,32163,4.15001,0.01541,2354.622,406.767,25.4,
1447,1,SBT2050,2,9,,2,32234,4.149872,0.015913,2354.93,406.767,25.4,
1447,1,SBT2050,2,9,,2,32305,4.15,0.015537,2355.234,406.767,25.4,
1447,1,SBT2050,2,9,,2,32376,4.15004,0.014909,2355.535,406.767,25.4,
1447,1,SBT2050,2,9,,2,32447,4.15025,0.015215,2355.837,406.767,25.4,
1447,1,SBT2050,2,9,,2,32518,4.14993,0.014779,2356.133,406.767,25.4,
1447,1,SBT2050,2,9,,2,32589,4.14988,0.015188,2356.431,406.767,25.4,
1447,1,SBT2050,2,9,,2,32660,4.14991,0.014654,2356.723,406.767,25.4,
1447,1,SBT2050,2,9,,2,32731,4.14992,0.014168,2357.01,406.767,25.4,
1447,1,SBT2050,2,9,,2,32802,4.14998,0.014313,2357.291,406.767,25.4,
1447,1,SBT2050,2,9,,2,32873,4.15011,0.014222,2357.575,406.767,25.4,
1447,1,SBT2050,2,9,,2,32944,4.15003,0.01411,2357.856,406.767,25.4,
1447,1,SBT2050,2,9,,2,33015,4.1499,0.014252,2358.137,406.767,25.4,
1447,1,SBT2050,2,9,,2,33086,4.15005,0.014237,2358.415,406.767,25.4,
1447,1,SBT2050,2,9,,2,33157,4.14996,0.013961,2358.687,406.767,25.4,
1447,1,SBT2050,2,9,,2,33228,4.15007,0.013397,2358.959,406.767,25.4,
1447,1,SBT2050,2,9,,2,33299,4.150134,0.013675,2359.232,406.767,25.4,
1447,1,SBT2050,2,9,,2,33370,4.15004,0.013594,2359.499,406.767,25.4,
1447,1,SBT2050,2,9,,2,33441,4.1501,0.013308,2359.769,406.767,25.4,
1447,1,SBT2050,2,9,,2,33512,4.149848,0.013499,2360.032,406.767,25.4,
1447,1,SBT2050,2,9,,2,33583,4.15,0.013353,2360.295,406.767,25.4,
1447,1,SBT2050,2,9,,2,33654,4.14994,0.013623,2360.563,406.767,25.4,
1447,1,SBT2050,2,9,,2,33725,4.15018,0.013234,2360.826,406.767,25.4,
1447,1,SBT2050,2,9,,2,33796,4.15007,0.013586,2361.09,406.767,25.3,
1447,1,SBT2050,2,9,,2,33867,4.14998,0.012876,2361.35,406.767,25.4,
1447,1,SBT2050,2,9,,2,33938,4.14996,0.013172,2361.606,406.767,25.4,
1447,1,SBT2050,2,9,,2,34009,4.150134,0.012517,2361.858,406.767,25.4,
1447,1,SBT2050,2,9,,2,34080,4.15021,0.012782,2362.111,406.767,25.4,
1447,1,SBT2050,2,9,,2,34151,4.14986,0.01252,2362.361,406.767,25.4,
1447,1,SBT2050,2,9,,2,34222,4.150158,0.012683,2362.611,406.767,25.4,
1447,1,SBT2050,2,9,,2,34293,4.15017,0.012512,2362.857,406.767,25.4,
1447,1,SBT2050,2,9,,2,34364,4.14988,0.012377,2363.103,406.767,25.4,
1447,1,SBT2050,2,9,,2,34435,4.14998,0.012008,2363.344,406.767,25.4,
1447,1,SBT2050,2,9,,2,34506,4.1499,0.012166,2363.584,406.767,25.4,
1447,1,SBT2050,2,9,,2,34577,4.1499,0.012407,2363.823,406.767,25.4,
1447,1,SBT2050,2,9,,2,34648,4.15005,0.011971,2364.064,406.767,25.3,
1447,1,SBT2050,2,9,,2,34719,4.149872,0.012002,2364.302,406.767,25.3,
1447,1,SBT2050,2,9,,2,34790,4.14996,0.012017,2364.54,406.767,25.3,
1447,1,SBT2050,2,9,,2,34861,4.14988,0.012053,2364.776,406.767,25.3,
1447,1,SBT2050,2,9,,2,34932,4.14997,0.011734,2365.008,406.767,25.3,
1447,1,SBT2050,2,9,,2,35003,4.14988,0.011991,2365.241,406.767,25.4,
1447,1,SBT2050,2,9,,2,35074,4.15036,0.010914,2365.47,406.767,25.4,
1447,1,SBT2050,2,9,,2,35145,4.1499,0.011915,2365.696,406.767,25.3,
1447,1,SBT2050,2,9,,2,35216,4.14998,0.010985,2365.924,406.767,25.4,
1447,1,SBT2050,2,9,,2,35287,4.14991,0.011205,2366.149,406.767,25.4,
1447,1,SBT2050,2,9,,2,35358,4.15009,0.011517,2366.373,406.767,25.4,
1447,1,SBT2050,2,9,,2,35429,4.14997,0.011254,2366.597,406.767,25.3,
1447,1,SBT2050,2,9,,2,35500,4.150122,0.011036,2366.813,406.767,25.4,
1447,1,SBT2050,2,9,,2,35571,4.15,0.010838,2367.027,406.767,25.4,
1447,1,SBT2050,2,9,,2,35642,4.14996,0.011078,2367.245,406.767,25.3,
1447,1,SBT2050,2,9,,2,35713,4.150158,0.010956,2367.46,406.767,25.4,
1447,1,SBT2050,2,9,,2,35784,4.15,0.010973,2367.678,406.767,25.4,
1447,1,SBT2050,2,9,,2,35855,4.150146,0.01055,2367.89,406.767,25.4,
1447,1,SBT2050,2,9,,2,35926,4.15006,0.01099,2368.104,406.767,25.4,
1447,1,SBT2050,2,9,,2,35997,4.14993,0.010702,2368.317,406.767,25.4,
1447,1,SBT2050,2,9,,2,36068,4.15019,0.010822,2368.529,406.767,25.4,
1447,1,SBT2050,2,9,,3,36138,4.14878,0,2368.7,406.767,25.4,
1447,1,SBT2050,2,9,,3,36209,4.14774,0,2368.7,406.767,25.4,
1447,1,SBT2050,2,9,,3,36280,4.14715,0,2368.7,406.767,25.4,
1447,1,SBT2050,2,9,,3,36351,4.14695,0,2368.7,406.767,25.4,
1447,1,SBT2050,2,9,,3,36422,4.1467,0,2368.7,406.767,25.4,
1447,1,SBT2050,2,9,,3,36493,4.14623,0,2368.7,406.767,25.4,
1447,1,SBT2050,2,9,,3,36564,4.14635,0,2368.7,406.767,25.4,
1447,1,SBT2050,2,9,,3,36635,4.14616,0,2368.7,406.767,25.4,
1447,1,SBT2050,2,9,,3,36706,4.145638,0,2368.7,406.767,25.4,
1447,1,SBT2050,2,9,,3,36777,4.14557,0,2368.7,406.767,25.4,
1447,1,SBT2050,2,9,,3,36848,4.1456,0,2368.7,406.767,25.4,
1447,1,SBT2050,2,9,,3,36919,4.14529,0,2368.7,406.767,25.4,
1447,1,SBT2050,2,9,,3,36990,4.14484,0,2368.7,406.767,25.4,
1447,1,SBT2050,2,9,,3,37061,4.14507,0,2368.7,406.767,25.4,
1447,1,SBT2050,2,9,,3,37132,4.14468,0,2368.7,406.767,25.4,
1447,1,SBT2050,2,9,,3,37203,4.14461,0,2368.7,406.767,25.4,
1447,1,SBT2050,2,9,,3,37274,4.14458,0,2368.7,406.767,25.4,
1447,1,SBT2050,2,9,,3,37345,4.144424,0,2368.7,406.767,25.4,
1447,1,SBT2050,2,9,,3,37416,4.14449,0,2368.7,406.767,25.4,
1447,1,SBT2050,2,9,,3,37487,4.143868,0,2368.7,406.767,25.4,
1447,1,SBT2050,2,9,,3,37558,4.143882,0,2368.7,406.767,25.4,
1447,1,SBT2050,2,9,,3,37629,4.144504,0,2368.7,406.767,25.4,
1447,1,SBT2050,2,9,,3,37700,4.14391,0,2368.7,406.767,25.4,
1447,1,SBT2050,2,9,,3,37771,4.14388,0,2368.7,406.767,25.3,
1447,1,SBT2050,2,9,,3,37842,4.143524,0,2368.7,406.767,25.4,
1447,1,SBT2050,2,9,,3,37913,4.14332,0,2368.7,406.767,25.4,
1447,1,SBT2050,2,9,,4,37983,3.73435,-2.9361,2368.7,453.16,26.2,
1447,1,SBT2050,2,9,,4,38054,3.70446,-2.9359,2368.7,511.064,27.3,
1447,1,SBT2050,2,9,,4,38125,3.69317,-2.9358,2368.7,568.968,28.2,
1447,1,SBT2050,2,9,,4,38196,3.68094,-2.936,2368.7,626.871,28.9,
1447,1,SBT2050,2,9,,4,38267,3.66433,-2.9358,2368.7,684.775,29.3,
1447,1,SBT2050,2,9,,4,38338,3.64423,-2.9356,2368.7,742.678,29.6,
1447,1,SBT2050,2,9,,4,38409,3.62153,-2.9361,2368.7,800.582,29.9,
1447,1,SBT2050,2,9,,4,38480,3.598228,-2.9359,2368.7,858.485,30.1,
1447,1,SBT2050,2,9,,4,38551,3.57408,-2.9358,2368.7,916.389,30.1,
1447,1,SBT2050,2,9,,4,38622,3.54924,-2.9358,2368.7,974.292,30.3,
1447,1,SBT2050,2,9,,4,38693,3.524014,-2.9361,2368.7,1032.196,30.4,
1447,1,SBT2050,2,9,,4,38764,3.49781,-2.9359,2368.7,1090.099,30.5,
1447,1,SBT2050,2,9,,4,38835,3.470768,-2.936,2368.7,1148.002,30.5,
1447,1,SBT2050,2,9,,4,38906,3.44372,-2.9355,2368.7,1205.906,30.6,
1447,1,SBT2050,2,9,,4,38977,3.41634,-2.9357,2368.7,1263.809,30.8,
1447,1,SBT2050,2,9,,4,39048,3.38866,-2.936,2368.7,1321.713,30.8,
1447,1,SBT2050,2,9,,4,39119,3.362006,-2.9361,2368.7,1379.616,30.9,
1447,1,SBT2050,2,9,,4,39190,3.33524,-2.9363,2368.7,1437.519,31,
1447,1,SBT2050,2,9,,4,39261,3.30839,-2.9358,2368.7,1495.423,31.2,
1447,1,SBT2050,2,9,,4,39332,3.28186,-2.9357,2368.7,1553.326,31.3,
1447,1,SBT2050,2,9,,4,39403,3.25578,-2.9357,2368.7,1611.23,31.4,
1447,1,SBT2050,2,9,,4,39474,3.22878,-2.9361,2368.7,1669.133,31.6,
1447,1,SBT2050,2,9,,4,39545,3.2007,-2.9359,2368.7,1727.037,31.7,
1447,1,SBT2050,2,9,,4,39616,3.17148,-2.936,2368.7,1784.94,31.9,
1447,1,SBT2050,2,9,,4,39687,3.140475,-2.936,2368.7,1842.843,32.1,
1447,1,SBT2050,2,9,,4,39758,3.10697,-2.9358,2368.7,1900.747,32.4,
1447,1,SBT2050,2,9,,4,39829,3.07024,-2.9358,2368.7,1958.65,32.7,
1447,1,SBT2050,2,9,,4,39900,3.02885,-2.9355,2368.7,2016.553,33,
1447,1,SBT2050,2,9,,4,39971,2.98246,-2.9362,2368.7,2074.457,33.4,
1447,1,SBT2050,2,9,,4,40042,2.93416,-2.9363,2368.7,2132.36,33.8,
1447,1,SBT2050,2,9,,4,40113,2.88495,-2.9357,2368.7,2190.264,34.3,
1447,1,SBT2050,2,9,,4,40184,2.81923,-2.9362,2368.7,2248.167,34.7,
1447,1,SBT2050,2,9,,4,40255,2.72089,-2.9359,2368.7,2306.071,35.3,
1447,1,SBT2050,2,9,,4,40326,2.56059,-2.9359,2368.7,2363.974,36.3,
1447,1,SBT2050,2,9,,4,40397,2.4995,-2.2319,2368.7,2415.774,37.2,
1447,1,SBT2050,2,9,,4,40468,2.49992,-1.6734,2368.7,2454.103,37.1,
1447,1,SBT2050,2,9,,4,40539,2.49972,-1.2015,2368.7,2482.302,36.4,
1447,1,SBT2050,2,9,,4,40610,2.499644,-0.8202,2368.7,2502.069,35.3,
1447,1,SBT2050,2,9,,4,40681,2.49969,-0.5468,2368.7,2515.352,34,
1447,1,SBT2050,2,9,,4,40752,2.49978,-0.395,2368.7,2524.461,32.7,
1447,1,SBT2050,2,9,,4,40823,2.499966,-0.32383,2368.7,2531.464,31.6,
1447,1,SBT2050,2,9,,4,40894,2.499799,-0.28724,2368.7,2537.455,30.6,
1447,1,SBT2050,2,9,,4,40965,2.50009,-0.26559,2368.7,2542.891,29.8,
1447,1,SBT2050,2,9,,4,41036,2.499966,-0.25037,2368.7,2547.968,29.2,
1447,1,SBT2050,2,9,,4,41107,2.49989,-0.23854,2368.7,2552.783,28.7,
1447,1,SBT2050,2,9,,4,41178,2.499954,-0.22882,2368.7,2557.39,28.3,
1447,1,SBT2050,2,9,,4,41249,2.49992,-0.22057,2368.7,2561.821,28,
1447,1,SBT2050,2,9,,4,41320,2.49985,-0.21355,2368.7,2566.103,27.7,
1447,1,SBT2050,2,9,,4,41391,2.50003,-0.2073,2368.7,2570.253,27.5,
1447,1,SBT2050,2,9,,4,41462,2.50003,-0.20187,2368.7,2574.285,27.3,
1447,1,SBT2050,2,9,,4,41533,2.499954,-0.19632,2368.7,2578.209,27.2,
1447,1,SBT2050,2,9,,4,41604,2.49983,-0.19143,2368.7,2582.035,27.2,
1447,1,SBT2050,2,9,,4,41675,2.49994,-0.18704,2368.7,2585.768,27,
1447,1,SBT2050,2,9,,4,41746,2.50004,-0.18259,2368.7,2589.412,26.9,
1447,1,SBT2050,2,9,,4,41817,2.50006,-0.17848,2368.7,2592.97,26.9,
1447,1,SBT2050,2,9,,4,41888,2.49999,-0.17437,2368.7,2596.447,26.8,
1447,1,SBT2050,2,9,,4,41959,2.49989,-0.17046,2368.7,2599.848,26.8,
1447,1,SBT2050,2,9,,4,42030,2.49983,-0.16687,2368.7,2603.175,26.7,
1447,1,SBT2050,2,9,,4,42101,2.50001,-0.16324,2368.7,2606.43,26.7,
1447,1,SBT2050,2,9,,4,42172,2.499954,-0.15991,2368.7,2609.616,26.6,
1447,1,SBT2050,2,9,,4,42243,2.49987,-0.15652,2368.7,2612.737,26.6,
1447,1,SBT2050,2,9,,4,42314,2.49994,-0.15346,2368.7,2615.794,26.6,
1447,1,SBT2050,2,9,,4,42385,2.49993,-0.15053,2368.7,2618.792,26.6,
1447,1,SBT2050,2,9,,4,42456,2.49992,-0.1477,2368.7,2621.734,26.5,
1447,1,SBT2050,2,9,,4,42527,2.499978,-0.14497,2368.7,2624.62,26.5,
1447,1,SBT2050,2,9,,4,42598,2.499966,-0.14199,2368.7,2627.449,26.5,
1447,1,SBT2050,2,9,,4,42669,2.499978,-0.13936,2368.7,2630.224,26.5,
1447,1,SBT2050,2,9,,4,42740,2.49988,-0.13664,2368.7,2632.947,26.5,
1447,1,SBT2050,2,9,,4,42811,2.49989,-0.13415,2368.7,2635.618,26.4,
1447,1,SBT2050,2,9,,4,42882,2.50011,-0.1317,2368.7,2638.239,26.4,
1447,1,SBT2050,2,9,,4,42953,2.50001,-0.12898,2368.7,2640.81,26.4,
1447,1,SBT2050,2,9,,4,43024,2.49989,-0.12674,2368.7,2643.332,26.4,
1447,1,SBT2050,2,9,,4,43095,2.49993,-0.12437,2368.7,2645.808,26.4,
1447,1,SBT2050,2,9,,4,43166,2.500133,-0.12211,2368.7,2648.237,26.3,
1447,1,SBT2050,2,9,,4,43237,2.50003,-0.11967,2368.7,2650.62,26.3,
1447,1,SBT2050,2,9,,4,43308,2.49991,-0.11749,2368.7,2652.959,26.4,
1447,1,SBT2050,2,9,,4,43379,2.49999,-0.11524,2368.7,2655.254,26.3,
1447,1,SBT2050,2,9,,4,43450,2.499966,-0.11306,2368.7,2657.505,26.3,
1447,1,SBT2050,2,9,,4,43521,2.49987,-0.11089,2368.7,2659.714,26.3,
1447,1,SBT2050,2,9,,4,43592,2.49994,-0.10874,2368.7,2661.882,26.3,
1447,1,SBT2050,2,9,,4,43663,2.50001,-0.1068,2368.7,2664.01,26.3,
1447,1,SBT2050,2,9,,4,43734,2.49989,-0.10464,2368.7,2666.096,26.2,
1447,1,SBT2050,2,9,,4,43805,2.499954,-0.10262,2368.7,2668.142,26.2,
1447,1,SBT2050,2,9,,4,43876,2.49991,-0.10085,2368.7,2670.15,26.2,
1447,1,SBT2050,2,9,,4,43947,2.50006,-0.09903,2368.7,2672.121,26.2,
1447,1,SBT2050,2,9,,4,44018,2.5001,-0.09707,2368.7,2674.053,26.2,
1447,1,SBT2050,2,9,,4,44089,2.50001,-0.09501,2368.7,2675.947,26.1,
1447,1,SBT2050,2,9,,4,44160,2.50004,-0.0933,2368.7,2677.803,26.1,
1447,1,SBT2050,2,9,,4,44231,2.50007,-0.09133,2368.7,2679.624,26.1,
1447,1,SBT2050,2,9,,4,44302,2.499954,-0.08967,2368.7,2681.409,26.1,
1447,1,SBT2050,2,9,,4,44373,2.49993,-0.08785,2368.7,2683.16,26.1,
1447,1,SBT2050,2,9,,4,44444,2.499978,-0.08637,2368.7,2684.878,26.1,
1447,1,SBT2050,2,9,,4,44515,2.5002,-0.08488,2368.7,2686.564,26.1,
1447,1,SBT2050,2,9,,4,44586,2.50003,-0.08305,2368.7,2688.218,26.1,
1447,1,SBT2050,2,9,,4,44657,2.5,-0.08141,2368.7,2689.839,26,
1447,1,SBT2050,2,9,,4,44728,2.49988,-0.07975,2368.7,2691.427,26,
1447,1,SBT2050,2,9,,4,44799,2.50003,-0.07822,2368.7,2692.986,26,
1447,1,SBT2050,2,9,,4,44870,2.49987,-0.0768,2368.7,2694.515,26,
1447,1,SBT2050,2,9,,4,44941,2.50004,-0.07552,2368.7,2696.016,26,
1447,1,SBT2050,2,9,,4,45012,2.49986,-0.07411,2368.7,2697.491,26,
1447,1,SBT2050,2,9,,4,45083,2.50001,-0.07284,2368.7,2698.938,26,
1447,1,SBT2050,2,9,,4,45154,2.50007,-0.07157,2368.7,2700.362,26,
1447,1,SBT2050,2,9,,4,45225,2.49991,-0.07032,2368.7,2701.761,26,
1447,1,SBT2050,2,9,,4,45296,2.499978,-0.06906,2368.7,2703.136,25.9,
1447,1,SBT2050,2,9,,4,45367,2.499966,-0.06788,2368.7,2704.487,25.9,
1447,1,SBT2050,2,9,,4,45438,2.50009,-0.06671,2368.7,2705.815,25.9,
1447,1,SBT2050,2,9,,4,45509,2.49987,-0.06548,2368.7,2707.118,26,
1447,1,SBT2050,2,9,,4,45580,2.49988,-0.06432,2368.7,2708.398,26,
1447,1,SBT2050,2,9,,4,45651,2.49987,-0.06318,2368.7,2709.655,25.9,
1447,1,SBT2050,2,9,,4,45722,2.49983,-0.062,2368.7,2710.889,25.9,
1447,1,SBT2050,2,9,,4,45793,2.49985,-0.06077,2368.7,2712.1,25.9,
1447,1,SBT2050,2,9,,4,45864,2.49988,-0.05972,2368.7,2713.29,25.9,
1447,1,SBT2050,2,9,,4,45935,2.50016,-0.05895,2368.7,2714.46,25.9,
1447,1,SBT2050,2,9,,4,46006,2.50005,-0.05787,2368.7,2715.611,25.9,
1447,1,SBT2050,2,9,,4,46077,2.50011,-0.05701,2368.7,2716.743,25.9,
1447,1,SBT2050,2,9,,4,46148,2.49991,-0.05607,2368.7,2717.858,25.9,
1447,1,SBT2050,2,9,,4,46219,2.50005,-0.05522,2368.7,2718.955,25.8,
1447,1,SBT2050,2,9,,4,46290,2.50009,-0.05444,2368.7,2720.035,25.8,
1447,1,SBT2050,2,9,,4,46361,2.50019,-0.05364,2368.7,2721.099,25.8,
1447,1,SBT2050,2,9,,4,46432,2.5,-0.05271,2368.7,2722.146,25.8,
1447,1,SBT2050,2,9,,4,46503,2.499966,-0.05176,2368.7,2723.177,25.8,
1447,1,SBT2050,2,9,,4,46574,2.50014,-0.05106,2368.7,2724.191,25.8,
1447,1,SBT2050,2,9,,4,46645,2.5001,-0.05029,2368.7,2725.189,25.8,
1447,1,SBT2050,2,9,,4,46716,2.49993,-0.04929,2368.7,2726.171,25.8,
1447,1,SBT2050,2,9,,4,46787,2.499966,-0.0486,2368.7,2727.136,25.8,
1447,1,SBT2050,2,9,,4,46858,2.499954,-0.04772,2368.7,2728.086,25.8,
1447,1,SBT2050,2,9,,4,46929,2.500121,-0.047057,2368.7,2729.022,25.8,
1447,1,SBT2050,2,9,,4,47000,2.49999,-0.046333,2368.7,2729.943,25.7,
1447,1,SBT2050,2,9,,4,47071,2.49978,-0.045468,2368.7,2730.85,25.7,
1447,1,SBT2050,2,9,,4,47142,2.50004,-0.044726,2368.7,2731.743,25.8,
1447,1,SBT2050,2,9,,4,47213,2.50009,-0.044185,2368.7,2732.622,25.8,
1447,1,SBT2050,2,9,,4,47284,2.5,-0.043497,2368.7,2733.486,25.8,
1447,1,SBT2050,2,9,,4,47355,2.49994,-0.042727,2368.7,2734.336,25.7,
1447,1,SBT2050,2,9,,4,47426,2.499966,-0.04197,2368.7,2735.171,25.8,
1447,1,SBT2050,2,9,,4,47497,2.50004,-0.041273,2368.7,2735.992,25.7,
1447,1,SBT2050,2,9,,4,47568,2.50003,-0.040599,2368.7,2736.8,25.7,
1447,1,SBT2050,2,9,,4,47639,2.5001,-0.039926,2368.7,2737.595,25.7,
1447,1,SBT2050,2,9,,4,47710,2.50004,-0.039271,2368.7,2738.376,25.7,
1447,1,SBT2050,2,9,,4,47781,2.49993,-0.038728,2368.7,2739.146,25.7,
1447,1,SBT2050,2,9,,4,47852,2.50006,-0.038157,2368.7,2739.904,25.7,
1447,1,SBT2050,2,9,,4,47923,2.49992,-0.037415,2368.7,2740.649,25.7,
1447,1,SBT2050,2,9,,4,47994,2.49989,-0.036896,2368.7,2741.383,25.7,
1447,1,SBT2050,2,9,,4,48065,2.50004,-0.036201,2368.7,2742.103,25.7,
1447,1,SBT2050,2,9,,4,48136,2.50011,-0.035531,2368.7,2742.81,25.7,
1447,1,SBT2050,2,9,,4,48207,2.50004,-0.03488,2368.7,2743.504,25.7,
1447,1,SBT2050,2,9,,4,48278,2.5,-0.034323,2368.7,2744.184,25.7,
1447,1,SBT2050,2,9,,4,48349,2.50003,-0.033517,2368.7,2744.853,25.7,
1447,1,SBT2050,2,9,,4,48420,2.50004,-0.032973,2368.7,2745.509,25.7,
1447,1,SBT2050,2,9,,4,48491,2.50004,-0.032402,2368.7,2746.154,25.7,
1447,1,SBT2050,2,9,,4,48562,2.499811,-0.031803,2368.7,2746.788,25.7,
1447,1,SBT2050,2,9,,4,48633,2.50004,-0.031283,2368.7,2747.41,25.7,
1447,1,SBT2050,2,9,,4,48704,2.50004,-0.030627,2368.7,2748.02,25.6,
1447,1,SBT2050,2,9,,4,48775,2.499966,-0.030133,2368.7,2748.619,25.7,
1447,1,SBT2050,2,9,,4,48846,2.50005,-0.029682,2368.7,2749.208,25.5,
1447,1,SBT2050,2,9,,4,48917,2.50005,-0.028945,2368.7,2749.785,25.3,
1447,1,SBT2050,2,9,,4,48988,2.50006,-0.028492,2368.7,2750.352,24.9,
1447,1,SBT2050,2,9,,4,49059,2.500133,-0.027929,2368.7,2750.908,24.6,
1447,1,SBT2050,2,9,,4,49130,2.50003,-0.027441,2368.7,2751.454,24.4,
1447,1,SBT2050,2,9,,4,49201,2.50003,-0.026935,2368.7,2751.988,24.3,
1447,1,SBT2050,2,9,,4,49272,2.50005,-0.026357,2368.7,2752.512,24.3,
1447,1,SBT2050,2,9,,4,49343,2.49999,-0.025737,2368.7,2753.026,24.3,
1447,1,SBT2050,2,9,,4,49414,2.50009,-0.025286,2368.7,2753.53,24.4,
1447,1,SBT2050,2,9,,4,49485,2.49986,-0.024896,2368.7,2754.025,24.5,
1447,1,SBT2050,2,9,,4,49556,2.49994,-0.024285,2368.7,2754.51,24.6,
1447,1,SBT2050,2,9,,4,49627,2.49993,-0.024033,2368.7,2754.986,24.7,
1447,1,SBT2050,2,9,,4,49698,2.50009,-0.023639,2368.7,2755.452,24.8,
1447,1,SBT2050,2,9,,4,49769,2.49991,-0.022949,2368.7,2755.91,24.8,
1447,1,SBT2050,2,9,,4,49840,2.49988,-0.022534,2368.7,2756.359,24.9,
1447,1,SBT2050,2,9,,4,49911,2.49985,-0.022006,2368.7,2756.8,24.9,
1447,1,SBT2050,2,9,,4,49982,2.49993,-0.021581,2368.7,2757.232,25,
1447,1,SBT2050,2,9,,4,50053,2.5001,-0.021294,2368.7,2757.656,25,
1447,1,SBT2050,2,9,,4,50124,2.49993,-0.020772,2368.7,2758.072,25.1,
1447,1,SBT2050,2,9,,4,50195,2.5001,-0.020584,2368.7,2758.48,25.1,
1447,1,SBT2050,2,9,,4,50266,2.499966,-0.020124,2368.7,2758.881,25.1,
1447,1,SBT2050,2,9,,4,50337,2.50005,-0.019702,2368.7,2759.274,25.2,
1447,1,SBT2050,2,9,,4,50408,2.49999,-0.019471,2368.7,2759.66,25.2,
1447,1,SBT2050,2,9,,4,50479,2.50003,-0.018918,2368.7,2760.037,25.2,
1447,1,SBT2050,2,9,,4,50550,2.50003,-0.018581,2368.7,2760.408,25.3,
1447,1,SBT2050,2,9,,4,50621,2.50009,-0.018366,2368.7,2760.771,25.3,
1447,1,SBT2050,2,9,,4,50692,2.50019,-0.017973,2368.7,2761.127,25.3,
1447,1,SBT2050,2,9,,4,50763,2.49999,-0.017531,2368.7,2761.476,25.3,
1447,1,SBT2050,2,9,,4,50834,2.50001,-0.017138,2368.7,2761.818,25.3,
1447,1,SBT2050,2,9,,4,50905,2.499978,-0.016774,2368.7,2762.152,25.3,
1447,1,SBT2050,2,9,,4,50976,2.50007,-0.016372,2368.7,2762.479,25.3,
1447,1,SBT2050,2,9,,4,51047,2.500121,-0.015988,2368.7,2762.797,25.3,
1447,1,SBT2050,2,9,,4,51118,2.50001,-0.015764,2368.7,2763.109,25.4,
1447,1,SBT2050,2,9,,4,51189,2.50006,-0.015467,2368.7,2763.416,25.4,
1447,1,SBT2050,2,9,,4,51260,2.499978,-0.015216,2368.7,2763.716,25.4,
1447,1,SBT2050,2,9,,4,51331,2.50006,-0.014772,2368.7,2764.011,25.4,
1447,1,SBT2050,2,9,,4,51402,2.49992,-0.014556,2368.7,2764.299,25.4,
1447,1,SBT2050,2,9,,4,51473,2.49999,-0.014282,2368.7,2764.582,25.4,
1447,1,SBT2050,2,9,,4,51544,2.50004,-0.013854,2368.7,2764.86,25.4,
1447,1,SBT2050,2,9,,4,51615,2.50023,-0.013784,2368.7,2765.133,25.4,
1447,1,SBT2050,2,9,,4,51686,2.50007,-0.013517,2368.7,2765.4,25.4,
1447,1,SBT2050,2,9,,4,51757,2.50007,-0.013048,2368.7,2765.663,25.5,
1447,1,SBT2050,2,9,,4,51828,2.49982,-0.012799,2368.7,2765.921,25.5,
1447,1,SBT2050,2,9,,4,51899,2.5,-0.012726,2368.7,2766.174,25.5,
1447,1,SBT2050,2,9,,4,51970,2.49982,-0.012537,2368.7,2766.423,25.5,
1447,1,SBT2050,2,9,,4,52041,2.500121,-0.012347,2368.7,2766.668,25.5,
1447,1,SBT2050,2,9,,4,52112,2.49999,-0.012067,2368.7,2766.908,25.5,
1447,1,SBT2050,2,9,,4,52183,2.499811,-0.011824,2368.7,2767.145,25.5,
1447,1,SBT2050,2,9,,4,52254,2.50001,-0.011744,2368.7,2767.376,25.5,
1447,1,SBT2050,2,9,,4,52325,2.50001,-0.011567,2368.7,2767.604,25.5,
1447,1,SBT2050,2,9,,4,52396,2.50017,-0.011255,2368.7,2767.828,25.5,
1447,1,SBT2050,2,9,,4,52467,2.49988,-0.010993,2368.7,2768.047,25.5,
1447,1,SBT2050,2,9,,4,52538,2.50023,-0.010993,2368.7,2768.263,25.5,
1447,1,SBT2050,2,9,,4,52609,2.5001,-0.010622,2368.7,2768.475,25.5,
1447,1,SBT2050,2,9,,4,52680,2.49983,-0.010449,2368.7,2768.683,25.5,
1447,1,SBT2050,2,9,,4,52751,2.49991,-0.010397,2368.7,2768.887,25.5,
1447,1,SBT2050,2,9,,5,52821,2.53671,0,2368.7,2768.969,25.5,
1447,1,SBT2050,2,9,,5,52892,2.582118,0,2368.7,2768.969,25.4,
1447,1,SBT2050,2,9,,5,52963,2.61927,0,2368.7,2768.969,25.1,
1447,1,SBT2050,2,9,,5,53034,2.65032,0,2368.7,2768.969,24.8,
1447,1,SBT2050,2,9,,5,53105,2.67629,0,2368.7,2768.969,24.5,
1447,1,SBT2050,2,9,,5,53176,2.697953,0,2368.7,2768.969,24.3,
1447,1,SBT2050,2,9,,5,53247,2.71658,0,2368.7,2768.969,24.3,
1447,1,SBT2050,2,9,,5,53318,2.73251,0,2368.7,2768.969,24.3,
1447,1,SBT2050,2,9,,5,53389,2.74617,0,2368.7,2768.969,24.3,
1447,1,SBT2050,2,9,,5,53460,2.7582,0,2368.7,2768.969,24.4,
1447,1,SBT2050,2,9,,5,53531,2.76841,0,2368.7,2768.969,24.5,
1447,1,SBT2050,2,9,,5,53602,2.77752,0,2368.7,2768.969,24.5,
1447,1,SBT2050,2,9,,5,53673,2.7856,0,2368.7,2768.969,24.6,
1447,1,SBT2050,2,9,,5,53744,2.79247,0,2368.7,2768.969,24.7,
1447,1,SBT2050,2,9,,5,53815,2.79869,0,2368.7,2768.969,24.7,
1447,1,SBT2050,2,9,,5,53886,2.80443,0,2368.7,2768.969,24.7,
1447,1,SBT2050,2,9,,5,53957,2.8095,0,2368.7,2768.969,24.8,
1447,1,SBT2050,2,9,,5,54028,2.81454,0,2368.7,2768.969,24.9,
1447,1,SBT2050,2,9,,5,54099,2.81887,0,2368.7,2768.969,24.9,
1447,1,SBT2050,2,9,,5,54170,2.82294,0,2368.7,2768.969,24.9,
1447,1,SBT2050,2,9,,5,54241,2.82646,0,2368.7,2768.969,24.9,
1447,1,SBT2050,2,9,,5,54312,2.83023,0,2368.7,2768.969,25,
1447,1,SBT2050,2,9,,5,54383,2.83347,0,2368.7,2768.969,25,
1447,1,SBT2050,2,9,,5,54454,2.83663,0,2368.7,2768.969,25,
1447,1,SBT2050,2,9,,5,54525,2.83968,0,2368.7,2768.969,25,
1447,1,SBT2050,2,9,,5,54579.99,2.84193,-9.9E-05,2368.7,2768.969,,