File: ORRG/Test1498.csv
Request Year:,2018,,,,,,,,,,,,
Test:,1498,,,,,,,,,,,,
Test Description:,,,,,,,,,,,,,
TestRegime Name:,Aging_Performance,,,,,,,,,,,,
TestRegime Suffix:,SHP_LC,,,,,,,,,,,,
TestRegime CellSize:,18650,,,,,,,,,,,,
TestRegime Version:,1,,,,,,,,,,,,
Number Of Cells:,1,,,,,,,,,,,,
LotID:,,,,,,,,,,,,,
Lot Description:,,,,,,,,,,,,,
Date Made:,1/21/2003 12:00 AM,,,,,,,,,,,,
Origin:,Other,,,,,,,,,,,,
Requestor:,Admin,,,,,,,,,,,,
Product ID:,Default product,,,,,,,,,,,,
Storage Temp:,R.T./AMB,,,,,,,,,,,,
Storage Delay:,0 days,,,,,,,,,,,,
Test Temp:,R.T./AMB,,,,,,,,,,,,
Start Time:,4/13/2018 9:39 AM,,,,,,,,,,,,
End Time:,4/13/2018 6:49 PM,,,,,,,,,,,,
Operator Instructions:,,,,,,,,,,,,,
Test,Cell,Rack,Shelf,Position,Cell ID,Step,Total Time (Seconds),Voltage (V),Current (A),Charge Capacity (mAh),Discharge Capacity (mAh),TC1 (Â°C),
1498,1,SBT2050,2,3,,0,1,3.36022,0,0,0,25,
1498,1,SBT2050,2,3,,0,44,3.36023,0,0,0,24.9,
1498,1,SBT2050,2,3,,0,87,3.36015,0,0,0,24.8,
1498,1,SBT2050,2,3,,0,130,3.3603,0,0,0,24.8,
1498,1,SBT2050,2,3,,0,173,3.35999,0,0,0,24.8,
1498,1,SBT2050,2,3,,0,216,3.359832,0,0,0,24.8,
1498,1,SBT2050,2,3,,0,259,3.36008,0,0,0,24.8,
1498,1,SBT2050,2,3,,1,302,3.02483,-2.9358,0,1.63,24.8,
1498,1,SBT2050,2,3,,1,345,2.49963,-2.1804,0,34.646,26.2,
1498,1,SBT2050,2,3,,1,388,2.49979,-1.6985,0,57.242,27.6,
1498,1,SBT2050,2,3,,1,431,2.49986,-1.4725,0,76.094,28.4,
1498,1,SBT2050,2,3,,1,474,2.4998,-1.3042,0,92.634,29,
1498,1,SBT2050,2,3,,1,517,2.49979,-1.1628,0,107.354,29.3,
1498,1,SBT2050,2,3,,1,560,2.499717,-1.0348,0,120.465,29.5,
1498,1,SBT2050,2,3,,1,603,2.49999,-0.9249,0,132.151,29.5,
1498,1,SBT2050,2,3,,1,646,2.49998,-0.8305,0,142.618,29.4,
1498,1,SBT2050,2,3,,1,689,2.49985,-0.7492,0,152.039,29.4,
1498,1,SBT2050,2,3,,1,732,2.4998,-0.6772,0,160.546,29.2,
1498,1,SBT2050,2,3,,1,775,2.4998,-0.6133,0,168.245,29,
1498,1,SBT2050,2,3,,1,818,2.49994,-0.5571,0,175.23,28.8,
1498,1,SBT2050,2,3,,1,861,2.50003,-0.5086,0,181.586,28.6,
1498,1,SBT2050,2,3,,1,904,2.49985,-0.46424,0,187.394,28.4,
1498,1,SBT2050,2,3,,1,947,2.49976,-0.42798,0,192.718,28.2,
1498,1,SBT2050,2,3,,1,990,2.49996,-0.39643,0,197.638,28,
1498,1,SBT2050,2,3,,1,1033,2.499884,-0.36884,0,202.205,27.9,
1498,1,SBT2050,2,3,,1,1076,2.500051,-0.3445,0,206.462,27.8,
1498,1,SBT2050,2,3,,1,1119,2.49996,-0.32287,0,210.446,27.6,
1498,1,SBT2050,2,3,,1,1162,2.49999,-0.30352,0,214.183,27.4,
1498,1,SBT2050,2,3,,1,1205,2.499896,-0.28586,0,217.701,27.3,
1498,1,SBT2050,2,3,,1,1248,2.50006,-0.2706,0,221.022,27.1,
1498,1,SBT2050,2,3,,1,1291,2.499872,-0.25672,0,224.17,27,
1498,1,SBT2050,2,3,,1,1334,2.49991,-0.24406,0,227.159,26.8,
1498,1,SBT2050,2,3,,1,1377,2.49992,-0.23224,0,230.002,26.7,
1498,1,SBT2050,2,3,,1,1420,2.5,-0.22123,0,232.71,26.5,
1498,1,SBT2050,2,3,,1,1463,2.49981,-0.21112,0,235.292,26.5,
1498,1,SBT2050,2,3,,1,1506,2.49981,-0.20212,0,237.759,26.3,
1498,1,SBT2050,2,3,,1,1549,2.499884,-0.19363,0,240.122,26.2,
1498,1,SBT2050,2,3,,1,1592,2.49982,-0.18597,0,242.389,26.2,
1498,1,SBT2050,2,3,,1,1635,2.499884,-0.17831,0,244.565,26.1,
1498,1,SBT2050,2,3,,1,1678,2.499872,-0.17127,0,246.654,26,
1498,1,SBT2050,2,3,,1,1721,2.49975,-0.1648,0,248.663,26,
1498,1,SBT2050,2,3,,1,1764,2.4998,-0.15882,0,250.597,26,
1498,1,SBT2050,2,3,,1,1807,2.499884,-0.15319,0,252.46,26,
1498,1,SBT2050,2,3,,1,1850,2.49997,-0.14813,0,254.259,26,
1498,1,SBT2050,2,3,,1,1893,2.50012,-0.14311,0,255.996,25.9,
1498,1,SBT2050,2,3,,1,1936,2.49997,-0.13822,0,257.675,25.9,
1498,1,SBT2050,2,3,,1,1979,2.499741,-0.13334,0,259.297,25.9,
1498,1,SBT2050,2,3,,1,2022,2.49993,-0.12905,0,260.865,25.9,
1498,1,SBT2050,2,3,,1,2065,2.5,-0.12495,0,262.382,25.9,
1498,1,SBT2050,2,3,,1,2108,2.49985,-0.12083,0,263.85,25.8,
1498,1,SBT2050,2,3,,1,2151,2.49991,-0.11711,0,265.272,25.8,
1498,1,SBT2050,2,3,,1,2194,2.50012,-0.1138,0,266.65,25.8,
1498,1,SBT2050,2,3,,1,2237,2.49984,-0.10995,0,267.984,25.8,
1498,1,SBT2050,2,3,,1,2280,2.500051,-0.10646,0,269.276,25.7,
1498,1,SBT2050,2,3,,1,2323,2.499872,-0.10314,0,270.527,25.7,
1498,1,SBT2050,2,3,,1,2366,2.49999,-0.09983,0,271.739,25.7,
1498,1,SBT2050,2,3,,1,2409,2.49991,-0.09679,0,272.913,25.7,
1498,1,SBT2050,2,3,,1,2452,2.50002,-0.09398,0,274.052,25.7,
1498,1,SBT2050,2,3,,1,2495,2.50006,-0.09079,0,275.155,25.6,
1498,1,SBT2050,2,3,,1,2538,2.49986,-0.08785,0,276.223,25.6,
1498,1,SBT2050,2,3,,1,2581,2.49993,-0.08506,0,277.258,25.6,
1498,1,SBT2050,2,3,,1,2624,2.50002,-0.08233,0,278.259,25.5,
1498,1,SBT2050,2,3,,1,2667,2.499729,-0.07984,0,279.229,25.5,
1498,1,SBT2050,2,3,,1,2710,2.50024,-0.07766,0,280.169,25.5,
1498,1,SBT2050,2,3,,1,2753,2.49996,-0.07516,0,281.081,25.5,
1498,1,SBT2050,2,3,,1,2796,2.5,-0.07281,0,281.964,25.5,
1498,1,SBT2050,2,3,,1,2839,2.50007,-0.0703,0,282.819,25.5,
1498,1,SBT2050,2,3,,1,2882,2.49994,-0.06803,0,283.646,25.4,
1498,1,SBT2050,2,3,,1,2925,2.50006,-0.06586,0,284.445,25.4,
1498,1,SBT2050,2,3,,1,2968,2.49996,-0.06374,0,285.22,25.5,
1498,1,SBT2050,2,3,,1,3011,2.4998,-0.06155,0,285.969,25.4,
1498,1,SBT2050,2,3,,1,3054,2.5001,-0.05975,0,286.694,25.4,
1498,1,SBT2050,2,3,,1,3097,2.49985,-0.05779,0,287.395,25.4,
1498,1,SBT2050,2,3,,1,3140,2.49986,-0.05549,0,288.072,25.4,
1498,1,SBT2050,2,3,,1,3183,2.50015,-0.05382,0,288.725,25.4,
1498,1,SBT2050,2,3,,1,3226,2.49986,-0.05181,0,289.356,25.4,
1498,1,SBT2050,2,3,,1,3269,2.50003,-0.04995,0,289.964,25.4,
1498,1,SBT2050,2,3,,1,3312,2.5,-0.04834,0,290.551,25.4,
1498,1,SBT2050,2,3,,1,3355,2.499872,-0.046321,0,291.117,25.3,
1498,1,SBT2050,2,3,,1,3398,2.5001,-0.044713,0,291.66,25.3,
1498,1,SBT2050,2,3,,1,3441,2.49997,-0.04289,0,292.183,25.3,
1498,1,SBT2050,2,3,,1,3484,2.49993,-0.041259,0,292.685,25.3,
1498,1,SBT2050,2,3,,1,3527,2.499884,-0.039545,0,293.168,25.3,
1498,1,SBT2050,2,3,,1,3570,2.50002,-0.037914,0,293.631,25.3,
1498,1,SBT2050,2,3,,1,3613,2.49992,-0.03618,0,294.073,25.3,
1498,1,SBT2050,2,3,,1,3656,2.499872,-0.034541,0,294.496,25.3,
1498,1,SBT2050,2,3,,1,3699,2.49996,-0.032974,0,294.899,25.3,
1498,1,SBT2050,2,3,,1,3742,2.50002,-0.031613,0,295.284,25.3,
1498,1,SBT2050,2,3,,1,3785,2.500051,-0.030141,0,295.651,25.3,
1498,1,SBT2050,2,3,,1,3828,2.50016,-0.028547,0,296,25.3,
1498,1,SBT2050,2,3,,1,3871,2.49979,-0.026913,0,296.331,25.2,
1498,1,SBT2050,2,3,,1,3914,2.49992,-0.025443,0,296.644,25.2,
1498,1,SBT2050,2,3,,1,3957,2.5,-0.024043,0,296.94,25.2,
1498,1,SBT2050,2,3,,1,4000,2.50009,-0.022733,0,297.219,25.2,
1498,1,SBT2050,2,3,,1,4043,2.500039,-0.021371,0,297.481,25.2,
1498,1,SBT2050,2,3,,1,4086,2.49996,-0.020114,0,297.729,25.2,
1498,1,SBT2050,2,3,,1,4129,2.500039,-0.018843,0,297.961,25.2,
1498,1,SBT2050,2,3,,1,4172,2.500051,-0.017762,0,298.18,25.2,
1498,1,SBT2050,2,3,,1,4215,2.50006,-0.016738,0,298.386,25.2,
1498,1,SBT2050,2,3,,1,4258,2.5001,-0.015751,0,298.581,25.2,
1498,1,SBT2050,2,3,,1,4301,2.500051,-0.015163,0,298.766,25.2,
1498,1,SBT2050,2,3,,1,4344,2.50009,-0.014323,0,298.941,25.2,
1498,1,SBT2050,2,3,,1,4387,2.50012,-0.013702,0,299.107,25.2,
1498,1,SBT2050,2,3,,1,4430,2.50018,-0.013123,0,299.266,25.2,
1498,1,SBT2050,2,3,,1,4473,2.49986,-0.012265,0,299.418,25.2,
1498,1,SBT2050,2,3,,1,4516,2.50006,-0.011905,0,299.563,25.1,
1498,1,SBT2050,2,3,,1,4559,2.49994,-0.011311,0,299.702,25.1,
1498,1,SBT2050,2,3,,1,4602,2.49991,-0.011085,0,299.835,25.2,
1498,1,SBT2050,2,3,,1,4645,2.50009,-0.010562,0,299.963,25.2,
1498,1,SBT2050,2,3,,2,4687,3.08956,2.9359,3.658,300.071,25.2,
1498,1,SBT2050,2,3,,2,4730,3.427508,2.9363,38.726,300.071,25.4,
1498,1,SBT2050,2,3,,2,4773,3.55984,2.9358,73.795,300.071,25.9,
1498,1,SBT2050,2,3,,2,4816,3.62178,2.9358,108.863,300.071,26.3,
1498,1,SBT2050,2,3,,2,4859,3.63856,2.9361,143.931,300.071,26.9,
1498,1,SBT2050,2,3,,2,4902,3.6495,2.936,178.999,300.071,27.5,
1498,1,SBT2050,2,3,,2,4945,3.6611,2.936,214.068,300.071,28,
1498,1,SBT2050,2,3,,2,4988,3.67239,2.936,249.136,300.071,28.4,
1498,1,SBT2050,2,3,,2,5031,3.683474,2.9362,284.204,300.071,28.7,
1498,1,SBT2050,2,3,,2,5074,3.693592,2.9361,319.272,300.071,29.1,
1498,1,SBT2050,2,3,,2,5117,3.70252,2.9359,354.341,300.071,29.3,
1498,1,SBT2050,2,3,,2,5160,3.70966,2.9362,389.409,300.071,29.5,
1498,1,SBT2050,2,3,,2,5203,3.71613,2.9357,424.477,300.071,29.7,
1498,1,SBT2050,2,3,,2,5246,3.72205,2.936,459.545,300.071,29.7,
1498,1,SBT2050,2,3,,2,5289,3.72765,2.9359,494.614,300.071,29.9,
1498,1,SBT2050,2,3,,2,5332,3.73384,2.9358,529.682,300.071,29.9,
1498,1,SBT2050,2,3,,2,5375,3.740254,2.9357,564.751,300.071,29.9,
1498,1,SBT2050,2,3,,2,5418,3.74722,2.9359,599.819,300.071,30,
1498,1,SBT2050,2,3,,2,5461,3.7541,2.9362,634.887,300.071,30,
1498,1,SBT2050,2,3,,2,5504,3.7613,2.9365,669.955,300.071,30,
1498,1,SBT2050,2,3,,2,5547,3.76876,2.9365,705.023,300.071,30,
1498,1,SBT2050,2,3,,2,5590,3.77607,2.9364,740.092,300.071,30,
1498,1,SBT2050,2,3,,2,5633,3.7839,2.9359,775.16,300.071,30,
1498,1,SBT2050,2,3,,2,5676,3.79177,2.9354,810.228,300.071,30,
1498,1,SBT2050,2,3,,2,5719,3.79969,2.9359,845.296,300.071,29.9,
1498,1,SBT2050,2,3,,2,5762,3.80818,2.9359,880.364,300.071,29.9,
1498,1,SBT2050,2,3,,2,5805,3.816846,2.9358,915.433,300.071,30,
1498,1,SBT2050,2,3,,2,5848,3.82563,2.936,950.501,300.071,30,
1498,1,SBT2050,2,3,,2,5891,3.83504,2.936,985.569,300.071,30,
1498,1,SBT2050,2,3,,2,5934,3.84422,2.9355,1020.637,300.071,30,
1498,1,SBT2050,2,3,,2,5977,3.85433,2.9363,1055.706,300.071,30,
1498,1,SBT2050,2,3,,2,6020,3.86442,2.9362,1090.774,300.071,30,
1498,1,SBT2050,2,3,,2,6063,3.87513,2.9362,1125.842,300.071,30,
1498,1,SBT2050,2,3,,2,6106,3.88586,2.9357,1160.91,300.071,30.1,
1498,1,SBT2050,2,3,,2,6149,3.89688,2.9359,1195.979,300.071,30.1,
1498,1,SBT2050,2,3,,2,6192,3.90855,2.936,1231.047,300.071,30.1,
1498,1,SBT2050,2,3,,2,6235,3.91976,2.9361,1266.116,300.071,30.2,
1498,1,SBT2050,2,3,,2,6278,3.93133,2.9358,1301.184,300.071,30.2,
1498,1,SBT2050,2,3,,2,6321,3.943342,2.9358,1336.252,300.071,30.2,
1498,1,SBT2050,2,3,,2,6364,3.95545,2.9359,1371.32,300.071,30.3,
1498,1,SBT2050,2,3,,2,6407,3.96754,2.9357,1406.388,300.071,30.3,
1498,1,SBT2050,2,3,,2,6450,3.97957,2.9359,1441.457,300.071,30.4,
1498,1,SBT2050,2,3,,2,6493,3.99202,2.9356,1476.525,300.071,30.5,
1498,1,SBT2050,2,3,,2,6536,4.00473,2.9359,1511.593,300.071,30.5,
1498,1,SBT2050,2,3,,2,6579,4.01706,2.9363,1546.662,300.071,30.5,
1498,1,SBT2050,2,3,,2,6622,4.02971,2.9356,1581.73,300.071,30.5,
1498,1,SBT2050,2,3,,2,6665,4.04223,2.9359,1616.798,300.071,30.5,
1498,1,SBT2050,2,3,,2,6708,4.0549,2.936,1651.867,300.071,30.6,
1498,1,SBT2050,2,3,,2,6751,4.0671,2.9362,1686.935,300.071,30.7,
1498,1,SBT2050,2,3,,2,6794,4.07926,2.9363,1722.003,300.071,30.7,
1498,1,SBT2050,2,3,,2,6837,4.09208,2.936,1757.071,300.071,30.8,
1498,1,SBT2050,2,3,,2,6880,4.10434,2.9362,1792.14,300.071,30.8,
1498,1,SBT2050,2,3,,2,6923,4.11689,2.9362,1827.208,300.071,30.8,
1498,1,SBT2050,2,3,,2,6966,4.12938,2.9356,1862.276,300.071,30.8,
1498,1,SBT2050,2,3,,2,7009,4.14153,2.9355,1897.344,300.071,30.9,
1498,1,SBT2050,2,3,,2,7052,4.15012,2.8496,1932.225,300.071,30.9,
1498,1,SBT2050,2,3,,2,7095,4.14982,2.669,1965.139,300.071,30.8,
1498,1,SBT2050,2,3,,2,7138,4.14994,2.5077,1996.047,300.071,30.8,
1498,1,SBT2050,2,3,,2,7181,4.15019,2.3531,2025.075,300.071,30.7,
1498,1,SBT2050,2,3,,2,7224,4.150002,2.2102,2052.326,300.071,30.5,
1498,1,SBT2050,2,3,,2,7267,4.15016,2.0727,2077.901,300.071,30.3,
1498,1,SBT2050,2,3,,2,7310,4.15005,1.9474,2101.913,300.071,30.1,
1498,1,SBT2050,2,3,,2,7353,4.15006,1.8292,2124.455,300.071,29.8,
1498,1,SBT2050,2,3,,2,7396,4.15011,1.7182,2145.626,300.071,29.6,
1498,1,SBT2050,2,3,,2,7439,4.1501,1.6134,2165.514,300.071,29.3,
1498,1,SBT2050,2,3,,2,7482,4.14992,1.522,2184.216,300.071,29.1,
1498,1,SBT2050,2,3,,2,7525,4.14987,1.4324,2201.827,300.071,28.9,
1498,1,SBT2050,2,3,,2,7568,4.15015,1.3494,2218.434,300.071,28.7,
1498,1,SBT2050,2,3,,2,7611,4.15013,1.277,2234.128,300.071,28.5,
1498,1,SBT2050,2,3,,2,7654,4.14992,1.2086,2248.969,300.071,28.3,
1498,1,SBT2050,2,3,,2,7697,4.15015,1.145,2263.018,300.071,28.1,
1498,1,SBT2050,2,3,,2,7740,4.14997,1.0877,2276.341,300.071,27.9,
1498,1,SBT2050,2,3,,2,7783,4.15012,1.033,2289.006,300.071,27.7,
1498,1,SBT2050,2,3,,2,7826,4.15011,0.9844,2301.057,300.071,27.6,
1498,1,SBT2050,2,3,,2,7869,4.150002,0.9377,2312.528,300.071,27.5,
1498,1,SBT2050,2,3,,2,7912,4.15022,0.8939,2323.464,300.071,27.3,
1498,1,SBT2050,2,3,,2,7955,4.14993,0.8537,2333.902,300.071,27.2,
1498,1,SBT2050,2,3,,2,7998,4.14988,0.8169,2343.882,300.071,27,
1498,1,SBT2050,2,3,,2,8041,4.14998,0.783,2353.437,300.071,26.9,
1498,1,SBT2050,2,3,,2,8084,4.15009,0.7501,2362.586,300.071,26.8,
1498,1,SBT2050,2,3,,2,8127,4.15009,0.7186,2371.363,300.071,26.7,
1498,1,SBT2050,2,3,,2,8170,4.150002,0.6916,2379.781,300.071,26.6,
1498,1,SBT2050,2,3,,2,8213,4.15005,0.6641,2387.885,300.071,26.6,
1498,1,SBT2050,2,3,,2,8256,4.15017,0.6386,2395.66,300.071,26.5,
1498,1,SBT2050,2,3,,2,8299,4.150038,0.6151,2403.141,300.071,26.5,
1498,1,SBT2050,2,3,,2,8342,4.150002,0.5924,2410.35,300.071,26.4,
1498,1,SBT2050,2,3,,2,8385,4.15016,0.5713,2417.298,300.071,26.3,
1498,1,SBT2050,2,3,,2,8428,4.14993,0.5511,2423.999,300.071,26.3,
1498,1,SBT2050,2,3,,2,8471,4.14982,0.5326,2430.464,300.071,26.2,
1498,1,SBT2050,2,3,,2,8514,4.150348,0.5127,2436.703,300.071,26.1,
1498,1,SBT2050,2,3,,2,8557,4.15022,0.4958,2442.732,300.071,26.1,
1498,1,SBT2050,2,3,,2,8600,4.14993,0.4802,2448.568,300.071,26,
1498,1,SBT2050,2,3,,2,8643,4.14993,0.4655,2454.214,300.071,26,
1498,1,SBT2050,2,3,,2,8686,4.15018,0.45013,2459.679,300.071,25.9,
1498,1,SBT2050,2,3,,2,8729,4.15026,0.43639,2464.985,300.071,25.9,
1498,1,SBT2050,2,3,,2,8772,4.14993,0.42432,2470.131,300.071,25.9,
1498,1,SBT2050,2,3,,2,8815,4.15022,0.41168,2475.126,300.071,25.8,
1498,1,SBT2050,2,3,,2,8858,4.15024,0.39847,2479.975,300.071,25.8,
1498,1,SBT2050,2,3,,2,8901,4.15012,0.38788,2484.684,300.071,25.8,
1498,1,SBT2050,2,3,,2,8944,4.15016,0.37938,2489.265,300.071,25.8,
1498,1,SBT2050,2,3,,2,8987,4.15022,0.36872,2493.733,300.071,25.7,
1498,1,SBT2050,2,3,,2,9030,4.15009,0.3583,2498.071,300.071,25.7,
1498,1,SBT2050,2,3,,2,9073,4.14985,0.34877,2502.295,300.071,25.7,
1498,1,SBT2050,2,3,,2,9116,4.15016,0.34026,2506.413,300.071,25.7,
1498,1,SBT2050,2,3,,2,9159,4.14998,0.33204,2510.43,300.071,25.7,
1498,1,SBT2050,2,3,,2,9202,4.150038,0.32424,2514.347,300.071,25.6,
1498,1,SBT2050,2,3,,2,9245,4.15009,0.3161,2518.172,300.071,25.6,
1498,1,SBT2050,2,3,,2,9288,4.14992,0.30865,2521.909,300.071,25.6,
1498,1,SBT2050,2,3,,2,9331,4.14992,0.30266,2525.559,300.071,25.6,
1498,1,SBT2050,2,3,,2,9374,4.15042,0.29479,2529.126,300.071,25.6,
1498,1,SBT2050,2,3,,2,9417,4.15009,0.28887,2532.611,300.071,25.6,
1498,1,SBT2050,2,3,,2,9460,4.15015,0.28262,2536.022,300.071,25.6,
1498,1,SBT2050,2,3,,2,9503,4.15012,0.2761,2539.359,300.071,25.6,
1498,1,SBT2050,2,3,,2,9546,4.15016,0.26982,2542.62,300.071,25.5,
1498,1,SBT2050,2,3,,2,9589,4.150002,0.26458,2545.809,300.071,25.5,
1498,1,SBT2050,2,3,,2,9632,4.150002,0.25779,2548.93,300.071,25.5,
1498,1,SBT2050,2,3,,2,9675,4.150038,0.25225,2551.974,300.071,25.5,
1498,1,SBT2050,2,3,,2,9718,4.14999,0.24688,2554.955,300.071,25.4,
1498,1,SBT2050,2,3,,2,9761,4.15011,0.24191,2557.879,300.071,25.5,
1498,1,SBT2050,2,3,,2,9804,4.15009,0.23751,2560.739,300.071,25.5,
1498,1,SBT2050,2,3,,2,9847,4.150038,0.23248,2563.544,300.071,25.5,
1498,1,SBT2050,2,3,,2,9890,4.15015,0.22757,2566.292,300.071,25.4,
1498,1,SBT2050,2,3,,2,9933,4.1501,0.22241,2568.979,300.071,25.4,
1498,1,SBT2050,2,3,,2,9976,4.15016,0.21856,2571.616,300.071,25.4,
1498,1,SBT2050,2,3,,2,10019,4.150014,0.21381,2574.2,300.071,25.4,
1498,1,SBT2050,2,3,,2,10062,4.150324,0.21101,2576.734,300.071,25.4,
1498,1,SBT2050,2,3,,2,10105,4.14993,0.20597,2579.218,300.071,25.4,
1498,1,SBT2050,2,3,,2,10148,4.14988,0.20289,2581.659,300.071,25.4,
1498,1,SBT2050,2,3,,2,10191,4.15006,0.19791,2584.051,300.071,25.4,
1498,1,SBT2050,2,3,,2,10234,4.14988,0.19453,2586.395,300.071,25.4,
1498,1,SBT2050,2,3,,2,10277,4.14994,0.19083,2588.701,300.071,25.4,
1498,1,SBT2050,2,3,,2,10320,4.14999,0.1869,2590.954,300.071,25.3,
1498,1,SBT2050,2,3,,2,10363,4.14999,0.1839,2593.172,300.071,25.3,
1498,1,SBT2050,2,3,,2,10406,4.15013,0.18083,2595.35,300.071,25.3,
1498,1,SBT2050,2,3,,2,10449,4.14988,0.17772,2597.493,300.071,25.3,
1498,1,SBT2050,2,3,,2,10492,4.14985,0.17442,2599.595,300.071,25.3,
1498,1,SBT2050,2,3,,2,10535,4.14991,0.17141,2601.661,300.071,25.3,
1498,1,SBT2050,2,3,,2,10578,4.150002,0.16858,2603.695,300.071,25.3,
1498,1,SBT2050,2,3,,2,10621,4.15015,0.16582,2605.691,300.071,25.4,
1498,1,SBT2050,2,3,,2,10664,4.14999,0.16292,2607.653,300.071,25.4,
1498,1,SBT2050,2,3,,2,10707,4.15007,0.16043,2609.581,300.071,25.4,
1498,1,SBT2050,2,3,,2,10750,4.15018,0.15816,2611.48,300.071,25.4,
1498,1,SBT2050,2,3,,2,10793,4.14991,0.15546,2613.352,300.071,25.5,
1498,1,SBT2050,2,3,,2,10836,4.14986,0.15304,2615.191,300.071,25.4,
1498,1,SBT2050,2,3,,2,10879,4.14998,0.15022,2617.005,300.071,25.5,
1498,1,SBT2050,2,3,,2,10922,4.150038,0.14786,2618.787,300.071,25.5,
1498,1,SBT2050,2,3,,2,10965,4.150026,0.14602,2620.539,300.071,25.5,
1498,1,SBT2050,2,3,,2,11008,4.14987,0.14353,2622.266,300.071,25.5,
1498,1,SBT2050,2,3,,2,11051,4.15006,0.14151,2623.968,300.071,25.5,
1498,1,SBT2050,2,3,,2,11094,4.15016,0.13883,2625.649,300.071,25.5,
1498,1,SBT2050,2,3,,2,11137,4.150038,0.13727,2627.299,300.071,25.6,
1498,1,SBT2050,2,3,,2,11180,4.15029,0.13461,2628.923,300.071,25.5,
1498,1,SBT2050,2,3,,2,11223,4.15005,0.13311,2630.523,300.071,25.6,
1498,1,SBT2050,2,3,,2,11266,4.14975,0.13112,2632.101,300.071,25.6,
1498,1,SBT2050,2,3,,2,11309,4.15007,0.1297,2633.655,300.071,25.6,
1498,1,SBT2050,2,3,,2,11352,4.14976,0.12806,2635.19,300.071,25.6,
1498,1,SBT2050,2,3,,2,11395,4.1502,0.12578,2636.707,300.071,25.6,
1498,1,SBT2050,2,3,,2,11438,4.14993,0.12399,2638.198,300.071,25.6,
1498,1,SBT2050,2,3,,2,11481,4.15015,0.12193,2639.668,300.071,25.6,
1498,1,SBT2050,2,3,,2,11524,4.14982,0.12022,2641.116,300.071,25.6,
1498,1,SBT2050,2,3,,2,11567,4.1501,0.11893,2642.544,300.071,25.6,
1498,1,SBT2050,2,3,,2,11610,4.14998,0.11706,2643.952,300.071,25.6,
1498,1,SBT2050,2,3,,2,11653,4.1501,0.11606,2645.341,300.071,25.7,
1498,1,SBT2050,2,3,,2,11696,4.15025,0.11383,2646.716,300.071,25.6,
1498,1,SBT2050,2,3,,2,11739,4.150026,0.11225,2648.068,300.071,25.6,
1498,1,SBT2050,2,3,,2,11782,4.15012,0.11052,2649.398,300.071,25.6,
1498,1,SBT2050,2,3,,2,11825,4.15015,0.1091,2650.709,300.071,25.6,
1498,1,SBT2050,2,3,,2,11868,4.14987,0.10798,2652.007,300.071,25.6,
1498,1,SBT2050,2,3,,2,11911,4.14991,0.10609,2653.281,300.071,25.7,
1498,1,SBT2050,2,3,,2,11954,4.15015,0.10435,2654.538,300.071,25.7,
1498,1,SBT2050,2,3,,2,11997,4.15006,0.10312,2655.778,300.071,25.7,
1498,1,SBT2050,2,3,,2,12040,4.14993,0.10162,2656.999,300.071,25.6,
1498,1,SBT2050,2,3,,2,12083,4.1502,0.10038,2658.208,300.071,25.6,
1498,1,SBT2050,2,3,,2,12126,4.14997,0.09906,2659.4,300.071,25.7,
1498,1,SBT2050,2,3,,2,12169,4.14997,0.09719,2660.573,300.071,25.7,
1498,1,SBT2050,2,3,,2,12212,4.15009,0.09639,2661.732,300.071,25.7,
1498,1,SBT2050,2,3,,2,12255,4.15012,0.09513,2662.878,300.071,25.7,
1498,1,SBT2050,2,3,,2,12298,4.1502,0.09379,2664.008,300.071,25.7,
1498,1,SBT2050,2,3,,2,12341,4.15015,0.09238,2665.119,300.071,25.7,
1498,1,SBT2050,2,3,,2,12384,4.14987,0.09029,2666.211,300.071,25.7,
1498,1,SBT2050,2,3,,2,12427,4.14998,0.08848,2667.277,300.071,25.6,
1498,1,SBT2050,2,3,,2,12470,4.15024,0.08604,2668.32,300.071,25.5,
1498,1,SBT2050,2,3,,2,12513,4.14989,0.08469,2669.344,300.071,25.4,
1498,1,SBT2050,2,3,,2,12556,4.149692,0.08339,2670.346,300.071,25.2,
1498,1,SBT2050,2,3,,2,12599,4.15011,0.08248,2671.338,300.071,25.1,
1498,1,SBT2050,2,3,,2,12642,4.150038,0.08006,2672.306,300.071,25,
1498,1,SBT2050,2,3,,2,12685,4.150002,0.07943,2673.258,300.071,25,
1498,1,SBT2050,2,3,,2,12728,4.14988,0.07836,2674.199,300.071,24.9,
1498,1,SBT2050,2,3,,2,12771,4.15018,0.07729,2675.131,300.071,24.9,
1498,1,SBT2050,2,3,,2,12814,4.15007,0.07621,2676.051,300.071,24.9,
1498,1,SBT2050,2,3,,2,12857,4.150002,0.07554,2676.959,300.071,24.9,
1498,1,SBT2050,2,3,,2,12900,4.14998,0.07445,2677.853,300.071,25,
1498,1,SBT2050,2,3,,2,12943,4.14994,0.07315,2678.731,300.071,25,
1498,1,SBT2050,2,3,,2,12986,4.14991,0.07201,2679.599,300.071,25,
1498,1,SBT2050,2,3,,2,13029,4.1501,0.0711,2680.455,300.071,25,
1498,1,SBT2050,2,3,,2,13072,4.14991,0.07033,2681.302,300.071,25,
1498,1,SBT2050,2,3,,2,13115,4.14994,0.06923,2682.135,300.071,25,
1498,1,SBT2050,2,3,,2,13158,4.14991,0.06841,2682.955,300.071,25,
1498,1,SBT2050,2,3,,2,13201,4.15007,0.06797,2683.766,300.071,25,
1498,1,SBT2050,2,3,,2,13244,4.150026,0.06675,2684.569,300.071,25,
1498,1,SBT2050,2,3,,2,13287,4.14997,0.06591,2685.362,300.071,25,
1498,1,SBT2050,2,3,,2,13330,4.15013,0.06497,2686.141,300.071,25,
1498,1,SBT2050,2,3,,2,13373,4.14995,0.06432,2686.911,300.071,25.1,
1498,1,SBT2050,2,3,,2,13416,4.15009,0.06395,2687.672,300.071,25.1,
1498,1,SBT2050,2,3,,2,13459,4.150038,0.06224,2688.422,300.071,25.1,
1498,1,SBT2050,2,3,,2,13502,4.14998,0.06166,2689.162,300.071,25.1,
1498,1,SBT2050,2,3,,2,13545,4.150026,0.06069,2689.892,300.071,25.1,
1498,1,SBT2050,2,3,,2,13588,4.150002,0.06027,2690.611,300.071,25.1,
1498,1,SBT2050,2,3,,2,13631,4.150038,0.05963,2691.325,300.071,25.1,
1498,1,SBT2050,2,3,,2,13674,4.150002,0.05878,2692.031,300.071,25.1,
1498,1,SBT2050,2,3,,2,13717,4.15009,0.05836,2692.729,300.071,25.2,
1498,1,SBT2050,2,3,,2,13760,4.150014,0.05736,2693.419,300.071,25.2,
1498,1,SBT2050,2,3,,2,13803,4.14998,0.05685,2694.103,300.071,25.2,
1498,1,SBT2050,2,3,,2,13846,4.14981,0.05625,2694.781,300.071,25.2,
1498,1,SBT2050,2,3,,2,13889,4.14988,0.05629,2695.449,300.071,25.2,
1498,1,SBT2050,2,3,,2,13932,4.14975,0.05582,2696.115,300.071,25.3,
1498,1,SBT2050,2,3,,2,13975,4.14992,0.05472,2696.77,300.071,25.3,
1498,1,SBT2050,2,3,,2,14018,4.15019,0.05394,2697.42,300.071,25.3,
1498,1,SBT2050,2,3,,2,14061,4.15007,0.0539,2698.063,300.071,25.3,
1498,1,SBT2050,2,3,,2,14104,4.14987,0.05335,2698.702,300.071,25.4,
1498,1,SBT2050,2,3,,2,14147,4.150014,0.05252,2699.33,300.071,25.4,
1498,1,SBT2050,2,3,,2,14190,4.14997,0.05167,2699.953,300.071,25.4,
1498,1,SBT2050,2,3,,2,14233,4.14985,0.05199,2700.571,300.071,25.4,
1498,1,SBT2050,2,3,,2,14276,4.14988,0.05094,2701.185,300.071,25.4,
1498,1,SBT2050,2,3,,2,14319,4.149716,0.0505,2701.79,300.071,25.4,
1498,1,SBT2050,2,3,,2,14362,4.14995,0.04963,2702.389,300.071,25.5,
1498,1,SBT2050,2,3,,2,14405,4.150026,0.04938,2702.979,300.071,25.5,
1498,1,SBT2050,2,3,,2,14448,4.14992,0.04862,2703.567,300.071,25.5,
1498,1,SBT2050,2,3,,2,14491,4.15018,0.04756,2704.141,300.071,25.4,
1498,1,SBT2050,2,3,,2,14534,4.14991,0.046789,2704.704,300.071,25.4,
1498,1,SBT2050,2,3,,2,14577,4.15009,0.046076,2705.261,300.071,25.3,
1498,1,SBT2050,2,3,,2,14620,4.14985,0.045229,2705.807,300.071,25.2,
1498,1,SBT2050,2,3,,2,14663,4.14992,0.043896,2706.342,300.071,25.2,
1498,1,SBT2050,2,3,,2,14706,4.15009,0.04423,2706.868,300.071,25.1,
1498,1,SBT2050,2,3,,2,14749,4.14982,0.043117,2707.388,300.071,25.1,
1498,1,SBT2050,2,3,,2,14792,4.14988,0.043173,2707.904,300.071,25.1,
1498,1,SBT2050,2,3,,2,14835,4.15029,0.041821,2708.412,300.071,25.1,
1498,1,SBT2050,2,3,,2,14878,4.14998,0.041692,2708.912,300.071,25.1,
1498,1,SBT2050,2,3,,2,14921,4.1502,0.041198,2709.409,300.071,25.1,
1498,1,SBT2050,2,3,,2,14964,4.150014,0.04129,2709.905,300.071,25.1,
1498,1,SBT2050,2,3,,2,15007,4.14988,0.040702,2710.393,300.071,25.1,
1498,1,SBT2050,2,3,,2,15050,4.14987,0.040589,2710.878,300.071,25.1,
1498,1,SBT2050,2,3,,2,15093,4.15019,0.039228,2711.355,300.071,25.1,
1498,1,SBT2050,2,3,,2,15136,4.14992,0.039021,2711.826,300.071,25.1,
1498,1,SBT2050,2,3,,2,15179,4.150038,0.038876,2712.291,300.071,25.1,
1498,1,SBT2050,2,3,,2,15222,4.14998,0.038486,2712.752,300.071,25.1,
1498,1,SBT2050,2,3,,2,15265,4.150038,0.037992,2713.21,300.071,25.1,
1498,1,SBT2050,2,3,,2,15308,4.14997,0.037421,2713.66,300.071,25.1,
1498,1,SBT2050,2,3,,2,15351,4.15031,0.037295,2714.104,300.071,25.1,
1498,1,SBT2050,2,3,,2,15394,4.14985,0.036321,2714.541,300.071,25.1,
1498,1,SBT2050,2,3,,2,15437,4.15012,0.03588,2714.973,300.071,25.1,
1498,1,SBT2050,2,3,,2,15480,4.14998,0.03568,2715.401,300.071,25.1,
1498,1,SBT2050,2,3,,2,15523,4.150026,0.035411,2715.826,300.071,25.1,
1498,1,SBT2050,2,3,,2,15566,4.150002,0.034969,2716.247,300.071,25.1,
1498,1,SBT2050,2,3,,2,15609,4.15007,0.034663,2716.662,300.071,25.1,
1498,1,SBT2050,2,3,,2,15652,4.15017,0.034681,2717.076,300.071,25.1,
1498,1,SBT2050,2,3,,2,15695,4.14967,0.034126,2717.487,300.071,25.1,
1498,1,SBT2050,2,3,,2,15738,4.14995,0.033406,2717.89,300.071,25.1,
1498,1,SBT2050,2,3,,2,15781,4.14995,0.032217,2718.282,300.071,25.1,
1498,1,SBT2050,2,3,,2,15824,4.15006,0.03243,2718.668,300.071,25.1,
1498,1,SBT2050,2,3,,2,15867,4.150026,0.033015,2719.056,300.071,25.1,
1498,1,SBT2050,2,3,,2,15910,4.14994,0.032201,2719.443,300.071,25.1,
1498,1,SBT2050,2,3,,2,15953,4.1501,0.03191,2719.83,300.071,25.1,
1498,1,SBT2050,2,3,,2,15996,4.14993,0.031463,2720.209,300.071,25.1,
1498,1,SBT2050,2,3,,2,16039,4.15007,0.031519,2720.587,300.071,25.1,
1498,1,SBT2050,2,3,,2,16082,4.14992,0.030887,2720.959,300.071,25.1,
1498,1,SBT2050,2,3,,2,16125,4.14993,0.030469,2721.324,300.071,25.1,
1498,1,SBT2050,2,3,,2,16168,4.14984,0.029857,2721.684,300.071,25.1,
1498,1,SBT2050,2,3,,2,16211,4.15028,0.029908,2722.043,300.071,25.1,
1498,1,SBT2050,2,3,,2,16254,4.14958,0.029983,2722.4,300.071,25.1,
1498,1,SBT2050,2,3,,2,16297,4.1503,0.028779,2722.752,300.071,25.1,
1498,1,SBT2050,2,3,,2,16340,4.15007,0.029252,2723.098,300.071,25.1,
1498,1,SBT2050,2,3,,2,16383,4.14988,0.028999,2723.447,300.071,25.1,
1498,1,SBT2050,2,3,,2,16426,4.15006,0.028341,2723.786,300.071,25.1,
1498,1,SBT2050,2,3,,2,16469,4.15019,0.02834,2724.127,300.071,25.1,
1498,1,SBT2050,2,3,,2,16512,4.14987,0.027918,2724.465,300.071,25.1,
1498,1,SBT2050,2,3,,2,16555,4.150002,0.027217,2724.791,300.071,25.1,
1498,1,SBT2050,2,3,,2,16598,4.150026,0.027359,2725.116,300.071,25.1,
1498,1,SBT2050,2,3,,2,16641,4.15016,0.026812,2725.441,300.071,25.1,
1498,1,SBT2050,2,3,,2,16684,4.150038,0.02665,2725.761,300.071,25.1,
1498,1,SBT2050,2,3,,2,16727,4.15017,0.025642,2726.075,300.071,25.1,
1498,1,SBT2050,2,3,,2,16770,4.14989,0.026013,2726.384,300.071,25.1,
1498,1,SBT2050,2,3,,2,16813,4.15007,0.025589,2726.693,300.071,25.1,
1498,1,SBT2050,2,3,,2,16856,4.15005,0.025128,2726.999,300.071,25.1,
1498,1,SBT2050,2,3,,2,16899,4.14987,0.025334,2727.303,300.071,25.1,
1498,1,SBT2050,2,3,,2,16942,4.15005,0.025228,2727.607,300.071,25.1,
1498,1,SBT2050,2,3,,2,16985,4.14992,0.024857,2727.906,300.071,25.1,
1498,1,SBT2050,2,3,,2,17028,4.14981,0.025205,2728.201,300.071,25.1,
1498,1,SBT2050,2,3,,2,17071,4.14995,0.024637,2728.498,300.071,25.1,
1498,1,SBT2050,2,3,,2,17114,4.14994,0.023954,2728.79,300.071,25.1,
1498,1,SBT2050,2,3,,2,17157,4.150038,0.023904,2729.077,300.071,25.1,
1498,1,SBT2050,2,3,,2,17200,4.15011,0.023628,2729.361,300.071,25.1,
1498,1,SBT2050,2,3,,2,17243,4.150026,0.023314,2729.638,300.071,25.1,
1498,1,SBT2050,2,3,,2,17286,4.1498,0.023317,2729.916,300.071,25.1,
1498,1,SBT2050,2,3,,2,17329,4.150038,0.022832,2730.194,300.071,25.1,
1498,1,SBT2050,2,3,,2,17372,4.150002,0.022818,2730.469,300.071,25.1,
1498,1,SBT2050,2,3,,2,17415,4.1501,0.022668,2730.742,300.071,25.1,
1498,1,SBT2050,2,3,,2,17458,4.15023,0.022171,2731.011,300.071,25.1,
1498,1,SBT2050,2,3,,2,17501,4.150038,0.022408,2731.276,300.071,25.1,
1498,1,SBT2050,2,3,,2,17544,4.150026,0.022318,2731.541,300.071,25.1,
1498,1,SBT2050,2,3,,2,17587,4.150038,0.021336,2731.804,300.071,25.1,
1498,1,SBT2050,2,3,,2,17630,4.150002,0.021905,2732.063,300.071,25.1,
1498,1,SBT2050,2,3,,2,17673,4.15012,0.021489,2732.322,300.071,25.1,
1498,1,SBT2050,2,3,,2,17716,4.14991,0.021203,2732.576,300.071,25.1,
1498,1,SBT2050,2,3,,2,17759,4.15009,0.021182,2732.828,300.071,25.1,
1498,1,SBT2050,2,3,,2,17802,4.150038,0.020822,2733.08,300.071,25.1,
1498,1,SBT2050,2,3,,2,17845,4.15007,0.020788,2733.326,300.071,25.1,
1498,1,SBT2050,2,3,,2,17888,4.15005,0.020381,2733.571,300.071,25.1,
1498,1,SBT2050,2,3,,2,17931,4.14989,0.020057,2733.811,300.071,25.1,
1498,1,SBT2050,2,3,,2,17974,4.14999,0.019639,2734.049,300.071,25.1,
1498,1,SBT2050,2,3,,2,18017,4.15019,0.019769,2734.286,300.071,25.1,
1498,1,SBT2050,2,3,,2,18060,4.14988,0.019707,2734.521,300.071,25.2,
1498,1,SBT2050,2,3,,2,18103,4.1501,0.019548,2734.754,300.071,25.1,
1498,1,SBT2050,2,3,,2,18146,4.15006,0.019049,2734.986,300.071,25.1,
1498,1,SBT2050,2,3,,2,18189,4.150026,0.019584,2735.22,300.071,25.2,
1498,1,SBT2050,2,3,,2,18232,4.15018,0.018428,2735.448,300.071,25.1,
1498,1,SBT2050,2,3,,2,18275,4.15024,0.018296,2735.672,300.071,25.1,
1498,1,SBT2050,2,3,,2,18318,4.15007,0.018591,2735.894,300.071,25.1,
1498,1,SBT2050,2,3,,2,18361,4.14995,0.018672,2736.117,300.071,25.1,
1498,1,SBT2050,2,3,,2,18404,4.14982,0.018387,2736.338,300.071,25.1,
1498,1,SBT2050,2,3,,2,18447,4.14981,0.018778,2736.559,300.071,25.1,
1498,1,SBT2050,2,3,,2,18490,4.15012,0.017644,2736.778,300.071,25.1,
1498,1,SBT2050,2,3,,2,18533,4.15013,0.017741,2736.989,300.071,25.1,
1498,1,SBT2050,2,3,,2,18576,4.15018,0.01737,2737.203,300.071,25.1,
1498,1,SBT2050,2,3,,2,18619,4.15019,0.017502,2737.41,300.071,25.1,
1498,1,SBT2050,2,3,,2,18662,4.14989,0.017344,2737.621,300.071,25.1,
1498,1,SBT2050,2,3,,2,18705,4.150038,0.016667,2737.827,300.071,25.1,
1498,1,SBT2050,2,3,,2,18748,4.15017,0.017079,2738.032,300.071,25.2,
1498,1,SBT2050,2,3,,2,18791,4.14995,0.016996,2738.236,300.071,25.1,
1498,1,SBT2050,2,3,,2,18834,4.15015,0.017053,2738.443,300.071,25.2,
1498,1,SBT2050,2,3,,2,18877,4.1498,0.017002,2738.647,300.071,25.2,
1498,1,SBT2050,2,3,,2,18920,4.150038,0.016615,2738.849,300.071,25.1,
1498,1,SBT2050,2,3,,2,18963,4.15013,0.016492,2739.045,300.071,25.1,
1498,1,SBT2050,2,3,,2,19006,4.14999,0.016309,2739.241,300.071,25.1,
1498,1,SBT2050,2,3,,2,19049,4.14991,0.016194,2739.435,300.071,25.1,
1498,1,SBT2050,2,3,,2,19092,4.150026,0.015583,2739.626,300.071,25.1,
1498,1,SBT2050,2,3,,2,19135,4.14999,0.01613,2739.816,300.071,25.2,
1498,1,SBT2050,2,3,,2,19178,4.14998,0.015971,2740.009,300.071,25.2,
1498,1,SBT2050,2,3,,2,19221,4.15006,0.016059,2740.201,300.071,25.1,
1498,1,SBT2050,2,3,,2,19264,4.15016,0.014953,2740.39,300.071,25.1,
1498,1,SBT2050,2,3,,2,19307,4.15009,0.01531,2740.573,300.071,25.1,
1498,1,SBT2050,2,3,,2,19350,4.15006,0.015054,2740.756,300.071,25.1,
1498,1,SBT2050,2,3,,2,19393,4.150014,0.014857,2740.935,300.071,25.1,
1498,1,SBT2050,2,3,,2,19436,4.14974,0.014906,2741.112,300.071,25.1,
1498,1,SBT2050,2,3,,2,19479,4.14989,0.014809,2741.29,300.071,25.2,
1498,1,SBT2050,2,3,,2,19522,4.14995,0.01485,2741.466,300.071,25.1,
1498,1,SBT2050,2,3,,2,19565,4.14995,0.014566,2741.64,300.071,25.1,
1498,1,SBT2050,2,3,,2,19608,4.14999,0.014519,2741.814,300.071,25.1,
1498,1,SBT2050,2,3,,2,19651,4.14993,0.014428,2741.987,300.071,25.1,
1498,1,SBT2050,2,3,,2,19694,4.14994,0.01408,2742.158,300.071,25.1,
1498,1,SBT2050,2,3,,2,19737,4.150026,0.013999,2742.326,300.071,25.1,
1498,1,SBT2050,2,3,,2,19780,4.150038,0.013716,2742.493,300.071,25.1,
1498,1,SBT2050,2,3,,2,19823,4.14987,0.013689,2742.659,300.071,25.1,
1498,1,SBT2050,2,3,,2,19866,4.150026,0.013873,2742.822,300.071,25.1,
1498,1,SBT2050,2,3,,2,19909,4.15005,0.013384,2742.985,300.071,25.1,
1498,1,SBT2050,2,3,,2,19952,4.15007,0.013054,2743.145,300.071,25.1,
1498,1,SBT2050,2,3,,2,19995,4.14997,0.013464,2743.303,300.071,25.1,
1498,1,SBT2050,2,3,,2,20038,4.14998,0.013534,2743.464,300.071,25.1,
1498,1,SBT2050,2,3,,2,20081,4.14999,0.01332,2743.623,300.071,25.1,
1498,1,SBT2050,2,3,,2,20124,4.15018,0.013217,2743.784,300.071,25.1,
1498,1,SBT2050,2,3,,2,20167,4.15019,0.012549,2743.94,300.071,25.1,
1498,1,SBT2050,2,3,,2,20210,4.15009,0.013041,2744.094,300.071,25.1,
1498,1,SBT2050,2,3,,2,20253,4.14999,0.013043,2744.248,300.071,25.1,
1498,1,SBT2050,2,3,,2,20296,4.14998,0.012485,2744.398,300.071,25.2,
1498,1,SBT2050,2,3,,2,20339,4.150002,0.012466,2744.547,300.071,25.1,
1498,1,SBT2050,2,3,,2,20382,4.14992,0.012628,2744.694,300.071,25.1,
1498,1,SBT2050,2,3,,2,20425,4.150026,0.011999,2744.84,300.071,25.1,
1498,1,SBT2050,2,3,,2,20468,4.14991,0.012215,2744.984,300.071,25.1,
1498,1,SBT2050,2,3,,2,20511,4.150002,0.012325,2745.128,300.071,25.1,
1498,1,SBT2050,2,3,,2,20554,4.150026,0.012308,2745.275,300.071,25.2,
1498,1,SBT2050,2,3,,2,20597,4.150038,0.012115,2745.422,300.071,25.2,
1498,1,SBT2050,2,3,,2,20640,4.14975,0.011897,2745.566,300.071,25.2,
1498,1,SBT2050,2,3,,2,20683,4.14992,0.011859,2745.707,300.071,25.2,
1498,1,SBT2050,2,3,,2,20726,4.15016,0.011397,2745.848,300.071,25.1,
1498,1,SBT2050,2,3,,2,20769,4.15022,0.012115,2745.986,300.071,25.1,
1498,1,SBT2050,2,3,,2,20812,4.15016,0.011714,2746.127,300.071,25.1,
1498,1,SBT2050,2,3,,2,20855,4.14981,0.011497,2746.267,300.071,25.1,
1498,1,SBT2050,2,3,,2,20898,4.15019,0.012044,2746.405,300.071,25.1,
1498,1,SBT2050,2,3,,2,20941,4.14995,0.011333,2746.543,300.071,25.1,
1498,1,SBT2050,2,3,,2,20984,4.14963,0.011367,2746.675,300.071,25.1,
1498,1,SBT2050,2,3,,2,21027,4.15007,0.011085,2746.809,300.071,25.1,
1498,1,SBT2050,2,3,,2,21070,4.14997,0.010779,2746.94,300.071,25.1,
1498,1,SBT2050,2,3,,2,21113,4.1501,0.010529,2747.067,300.071,25.1,
1498,1,SBT2050,2,3,,2,21156,4.14987,0.010953,2747.198,300.071,25.1,
1498,1,SBT2050,2,3,,2,21199,4.150026,0.010627,2747.327,300.071,25.1,
1498,1,SBT2050,2,3,,2,21242,4.150002,0.010738,2747.455,300.071,25.2,
1498,1,SBT2050,2,3,,2,21285,4.15011,0.010676,2747.582,300.071,25.1,
1498,1,SBT2050,2,3,,2,21328,4.14992,0.010162,2747.706,300.071,25.1,
1498,1,SBT2050,2,3,,3,21370,4.14817,0,2747.72,300.071,25.1,
1498,1,SBT2050,2,3,,3,21413,4.14763,0,2747.72,300.071,25.2,
1498,1,SBT2050,2,3,,3,21456,4.147384,0,2747.72,300.071,25.1,
1498,1,SBT2050,2,3,,3,21499,4.147198,0,2747.72,300.071,25.1,
1498,1,SBT2050,2,3,,3,21542,4.14674,0,2747.72,300.071,25.1,
1498,1,SBT2050,2,3,,3,21585,4.14664,0,2747.72,300.071,25.1,
1498,1,SBT2050,2,3,,3,21628,4.14623,0,2747.72,300.071,25.1,
1498,1,SBT2050,2,3,,3,21671,4.14648,0,2747.72,300.071,25.1,
1498,1,SBT2050,2,3,,3,21714,4.146104,0,2747.72,300.071,25.1,
1498,1,SBT2050,2,3,,3,21757,4.14614,0,2747.72,300.071,25.1,
1498,1,SBT2050,2,3,,3,21800,4.14598,0,2747.72,300.071,25.1,
1498,1,SBT2050,2,3,,3,21843,4.14596,0,2747.72,300.071,25.1,
1498,1,SBT2050,2,3,,3,21886,4.1457,0,2747.72,300.071,25.1,
1498,1,SBT2050,2,3,,3,21929,4.14575,0,2747.72,300.071,25.1,
1498,1,SBT2050,2,3,,3,21972,4.14573,0,2747.72,300.071,25.1,
1498,1,SBT2050,2,3,,3,22015,4.145386,0,2747.72,300.071,25.1,
1498,1,SBT2050,2,3,,3,22058,4.145548,0,2747.72,300.071,25.2,
1498,1,SBT2050,2,3,,3,22101,4.14555,0,2747.72,300.071,25.1,
1498,1,SBT2050,2,3,,3,22144,4.14535,0,2747.72,300.071,25.2,
1498,1,SBT2050,2,3,,3,22187,4.14539,0,2747.72,300.071,25.1,
1498,1,SBT2050,2,3,,3,22230,4.14541,0,2747.72,300.071,25.1,
1498,1,SBT2050,2,3,,3,22273,4.14524,0,2747.72,300.071,25.1,
1498,1,SBT2050,2,3,,3,22316,4.14536,0,2747.72,300.071,25.1,
1498,1,SBT2050,2,3,,3,22359,4.14504,0,2747.72,300.071,25.1,
1498,1,SBT2050,2,3,,3,22402,4.14496,0,2747.72,300.071,25.1,
1498,1,SBT2050,2,3,,3,22445,4.14484,0,2747.72,300.071,25.1,
1498,1,SBT2050,2,3,,3,22488,4.14489,0,2747.72,300.071,25.1,
1498,1,SBT2050,2,3,,3,22531,4.1451,0,2747.72,300.071,25.1,
1498,1,SBT2050,2,3,,3,22574,4.14463,0,2747.72,300.071,25.1,
1498,1,SBT2050,2,3,,3,22617,4.144562,0,2747.72,300.071,25.1,
1498,1,SBT2050,2,3,,3,22660,4.14458,0,2747.72,300.071,25.1,
1498,1,SBT2050,2,3,,3,22703,4.14459,0,2747.72,300.071,25.1,
1498,1,SBT2050,2,3,,3,22746,4.14432,0,2747.72,300.071,25.1,
1498,1,SBT2050,2,3,,3,22789,4.14439,0,2747.72,300.071,25.1,
1498,1,SBT2050,2,3,,3,22832,4.14446,0,2747.72,300.071,25.1,
1498,1,SBT2050,2,3,,3,22875,4.14443,0,2747.72,300.071,25.1,
1498,1,SBT2050,2,3,,3,22918,4.14485,0,2747.72,300.071,25.1,
1498,1,SBT2050,2,3,,3,22961,4.144332,0,2747.72,300.071,25.1,
1498,1,SBT2050,2,3,,3,23004,4.14439,0,2747.72,300.071,25.1,
1498,1,SBT2050,2,3,,3,23047,4.14426,0,2747.72,300.071,25.1,
1498,1,SBT2050,2,3,,3,23090,4.1442,0,2747.72,300.071,25.1,
1498,1,SBT2050,2,3,,3,23132.735,4.14424,-0.0001,2747.72,300.071,,
1498,1,SBT2050,2,3,,4,23175,3.81829,-2.9358,2747.72,334.539,25.6,
1498,1,SBT2050,2,3,,4,23218,3.79227,-2.9356,2747.72,369.607,26.2,
1498,1,SBT2050,2,3,,4,23261,3.78097,-2.9356,2747.72,404.675,26.8,
1498,1,SBT2050,2,3,,4,23304,3.77397,-2.9359,2747.72,439.743,27.4,
1498,1,SBT2050,2,3,,4,23347,3.76832,-2.9363,2747.72,474.811,27.8,
1498,1,SBT2050,2,3,,4,23390,3.76329,-2.9356,2747.72,509.879,28.2,
1498,1,SBT2050,2,3,,4,23433,3.757344,-2.9355,2747.72,544.948,28.5,
1498,1,SBT2050,2,3,,4,23476,3.7511,-2.9358,2747.72,580.016,28.7,
1498,1,SBT2050,2,3,,4,23519,3.74387,-2.9358,2747.72,615.084,28.9,
1498,1,SBT2050,2,3,,4,23562,3.735898,-2.936,2747.72,650.152,29,
1498,1,SBT2050,2,3,,4,23605,3.72701,-2.9358,2747.72,685.22,29.2,
1498,1,SBT2050,2,3,,4,23648,3.71771,-2.9364,2747.72,720.288,29.2,
1498,1,SBT2050,2,3,,4,23691,3.70809,-2.936,2747.72,755.357,29.3,
1498,1,SBT2050,2,3,,4,23734,3.697998,-2.9362,2747.72,790.425,29.3,
1498,1,SBT2050,2,3,,4,23777,3.6872,-2.9361,2747.72,825.493,29.3,
1498,1,SBT2050,2,3,,4,23820,3.67624,-2.9359,2747.72,860.561,29.3,
1498,1,SBT2050,2,3,,4,23863,3.66529,-2.9363,2747.72,895.629,29.3,
1498,1,SBT2050,2,3,,4,23906,3.6538,-2.9356,2747.72,930.697,29.3,
1498,1,SBT2050,2,3,,4,23949,3.64233,-2.9356,2747.72,965.766,29.4,
1498,1,SBT2050,2,3,,4,23992,3.63047,-2.936,2747.72,1000.834,29.4,
1498,1,SBT2050,2,3,,4,24035,3.618782,-2.9365,2747.72,1035.902,29.3,
1498,1,SBT2050,2,3,,4,24078,3.60662,-2.9362,2747.72,1070.971,29.4,
1498,1,SBT2050,2,3,,4,24121,3.5944,-2.9356,2747.72,1106.039,29.4,
1498,1,SBT2050,2,3,,4,24164,3.58224,-2.9356,2747.72,1141.107,29.4,
1498,1,SBT2050,2,3,,4,24207,3.56941,-2.9363,2747.72,1176.175,29.4,
1498,1,SBT2050,2,3,,4,24250,3.55751,-2.9361,2747.72,1211.243,29.4,
1498,1,SBT2050,2,3,,4,24293,3.544326,-2.9359,2747.72,1246.311,29.4,
1498,1,SBT2050,2,3,,4,24336,3.53142,-2.9356,2747.72,1281.38,29.5,
1498,1,SBT2050,2,3,,4,24379,3.51861,-2.9356,2747.72,1316.448,29.5,
1498,1,SBT2050,2,3,,4,24422,3.50591,-2.9359,2747.72,1351.516,29.5,
1498,1,SBT2050,2,3,,4,24465,3.49305,-2.936,2747.72,1386.584,29.5,
1498,1,SBT2050,2,3,,4,24508,3.48082,-2.9362,2747.72,1421.652,29.5,
1498,1,SBT2050,2,3,,4,24551,3.46811,-2.936,2747.72,1456.72,29.6,
1498,1,SBT2050,2,3,,4,24594,3.45552,-2.9358,2747.72,1491.789,29.5,
1498,1,SBT2050,2,3,,4,24637,3.44333,-2.9365,2747.72,1526.857,29.6,
1498,1,SBT2050,2,3,,4,24680,3.43146,-2.9365,2747.72,1561.925,29.6,
1498,1,SBT2050,2,3,,4,24723,3.41939,-2.9361,2747.72,1596.994,29.6,
1498,1,SBT2050,2,3,,4,24766,3.40738,-2.9357,2747.72,1632.062,29.7,
1498,1,SBT2050,2,3,,4,24809,3.3959,-2.9357,2747.72,1667.131,29.7,
1498,1,SBT2050,2,3,,4,24852,3.38394,-2.9363,2747.72,1702.199,29.7,
1498,1,SBT2050,2,3,,4,24895,3.372204,-2.9361,2747.72,1737.267,29.7,
1498,1,SBT2050,2,3,,4,24938,3.360644,-2.9359,2747.72,1772.335,29.7,
1498,1,SBT2050,2,3,,4,24981,3.34898,-2.9357,2747.72,1807.404,29.8,
1498,1,SBT2050,2,3,,4,25024,3.33668,-2.936,2747.72,1842.472,29.9,
1498,1,SBT2050,2,3,,4,25067,3.3246,-2.9358,2747.72,1877.54,29.9,
1498,1,SBT2050,2,3,,4,25110,3.31176,-2.9359,2747.72,1912.608,30,
1498,1,SBT2050,2,3,,4,25153,3.29931,-2.9357,2747.72,1947.677,30.1,
1498,1,SBT2050,2,3,,4,25196,3.2862,-2.9358,2747.72,1982.745,30.1,
1498,1,SBT2050,2,3,,4,25239,3.27218,-2.9359,2747.72,2017.813,30.2,
1498,1,SBT2050,2,3,,4,25282,3.25778,-2.9358,2747.72,2052.881,30.2,
1498,1,SBT2050,2,3,,4,25325,3.2426,-2.9359,2747.72,2087.95,30.3,
1498,1,SBT2050,2,3,,4,25368,3.227,-2.9357,2747.72,2123.018,30.4,
1498,1,SBT2050,2,3,,4,25411,3.20993,-2.9359,2747.72,2158.086,30.5,
1498,1,SBT2050,2,3,,4,25454,3.192234,-2.9366,2747.72,2193.154,30.6,
1498,1,SBT2050,2,3,,4,25497,3.17292,-2.9358,2747.72,2228.222,30.8,
1498,1,SBT2050,2,3,,4,25540,3.15268,-2.9361,2747.72,2263.291,31,
1498,1,SBT2050,2,3,,4,25583,3.13052,-2.9358,2747.72,2298.359,31,
1498,1,SBT2050,2,3,,4,25626,3.10673,-2.936,2747.72,2333.428,31.2,
1498,1,SBT2050,2,3,,4,25669,3.08094,-2.9362,2747.72,2368.496,31.4,
1498,1,SBT2050,2,3,,4,25712,3.05316,-2.9358,2747.72,2403.564,31.6,
1498,1,SBT2050,2,3,,4,25755,3.02279,-2.9359,2747.72,2438.632,31.8,
1498,1,SBT2050,2,3,,4,25798,2.98948,-2.936,2747.72,2473.701,32.1,
1498,1,SBT2050,2,3,,4,25841,2.95222,-2.9356,2747.72,2508.769,32.4,
1498,1,SBT2050,2,3,,4,25884,2.91183,-2.9356,2747.72,2543.837,32.8,
1498,1,SBT2050,2,3,,4,25927,2.86865,-2.9358,2747.72,2578.905,33.1,
1498,1,SBT2050,2,3,,4,25970,2.81867,-2.9359,2747.72,2613.973,33.5,
1498,1,SBT2050,2,3,,4,26013,2.75717,-2.9361,2747.72,2649.041,33.9,
1498,1,SBT2050,2,3,,4,26056,2.67741,-2.9356,2747.72,2684.11,34.4,
1498,1,SBT2050,2,3,,4,26099,2.5676,-2.9358,2747.72,2719.178,35.1,
1498,1,SBT2050,2,3,,4,26142,2.49983,-2.5531,2747.72,2752.796,35.9,
1498,1,SBT2050,2,3,,4,26185,2.499677,-2.1671,2747.72,2780.837,36.2,
1498,1,SBT2050,2,3,,4,26228,2.4999,-1.869,2747.72,2804.889,36.4,
1498,1,SBT2050,2,3,,4,26271,2.49974,-1.6104,2747.72,2825.634,36.1,
1498,1,SBT2050,2,3,,4,26314,2.49974,-1.3886,2747.72,2843.508,35.8,
1498,1,SBT2050,2,3,,4,26357,2.4998,-1.1989,2747.72,2858.927,35.3,
1498,1,SBT2050,2,3,,4,26400,2.499677,-1.0381,2747.72,2872.259,34.7,
1498,1,SBT2050,2,3,,4,26443,2.499689,-0.9005,2747.72,2883.813,34.1,
1498,1,SBT2050,2,3,,4,26486,2.49988,-0.7835,2747.72,2893.858,33.5,
1498,1,SBT2050,2,3,,4,26529,2.49992,-0.6853,2747.72,2902.616,32.8,
1498,1,SBT2050,2,3,,4,26572,2.50005,-0.606,2747.72,2910.306,32.2,
1498,1,SBT2050,2,3,,4,26615,2.49981,-0.5431,2747.72,2917.155,31.5,
1498,1,SBT2050,2,3,,4,26658,2.49993,-0.4934,2747.72,2923.331,31,
1498,1,SBT2050,2,3,,4,26701,2.49999,-0.45086,2747.72,2928.958,30.5,
1498,1,SBT2050,2,3,,4,26744,2.49972,-0.4164,2747.72,2934.13,30,
1498,1,SBT2050,2,3,,4,26787,2.499856,-0.38713,2747.72,2938.925,29.6,
1498,1,SBT2050,2,3,,4,26830,2.49996,-0.36242,2747.72,2943.396,29.2,
1498,1,SBT2050,2,3,,4,26873,2.499856,-0.34058,2747.72,2947.591,28.9,
1498,1,SBT2050,2,3,,4,26916,2.49998,-0.32215,2747.72,2951.548,28.6,
1498,1,SBT2050,2,3,,4,26959,2.500011,-0.30569,2747.72,2955.294,28.3,
1498,1,SBT2050,2,3,,4,27002,2.49992,-0.29075,2747.72,2958.853,28.1,
1498,1,SBT2050,2,3,,4,27045,2.49978,-0.27746,2747.72,2962.245,27.9,
1498,1,SBT2050,2,3,,4,27088,2.49976,-0.26562,2747.72,2965.486,27.7,
1498,1,SBT2050,2,3,,4,27131,2.49993,-0.25485,2747.72,2968.592,27.5,
1498,1,SBT2050,2,3,,4,27174,2.4999,-0.24476,2747.72,2971.574,27.4,
1498,1,SBT2050,2,3,,4,27217,2.49994,-0.23547,2747.72,2974.441,27.2,
1498,1,SBT2050,2,3,,4,27260,2.49993,-0.2269,2747.72,2977.201,27.1,
1498,1,SBT2050,2,3,,4,27303,2.4998,-0.21866,2747.72,2979.862,27,
1498,1,SBT2050,2,3,,4,27346,2.500011,-0.21124,2747.72,2982.428,26.9,
1498,1,SBT2050,2,3,,4,27389,2.50008,-0.20392,2747.72,2984.907,26.8,
1498,1,SBT2050,2,3,,4,27432,2.499999,-0.19717,2747.72,2987.302,26.7,
1498,1,SBT2050,2,3,,4,27475,2.49998,-0.19064,2747.72,2989.617,26.6,
1498,1,SBT2050,2,3,,4,27518,2.499999,-0.18424,2747.72,2991.855,26.6,
1498,1,SBT2050,2,3,,4,27561,2.49994,-0.17801,2747.72,2994.019,26.5,
1498,1,SBT2050,2,3,,4,27604,2.499856,-0.17229,2747.72,2996.113,26.5,
1498,1,SBT2050,2,3,,4,27647,2.49982,-0.16651,2747.72,2998.137,26.4,
1498,1,SBT2050,2,3,,4,27690,2.49977,-0.16102,2747.72,3000.093,26.3,
1498,1,SBT2050,2,3,,4,27733,2.49996,-0.15562,2747.72,3001.983,26.2,
1498,1,SBT2050,2,3,,4,27776,2.49995,-0.15012,2747.72,3003.808,26.2,
1498,1,SBT2050,2,3,,4,27819,2.49978,-0.14487,2747.72,3005.57,26.2,
1498,1,SBT2050,2,3,,4,27862,2.500023,-0.1398,2747.72,3007.27,26.1,
1498,1,SBT2050,2,3,,4,27905,2.50003,-0.1349,2747.72,3008.91,26.1,
1498,1,SBT2050,2,3,,4,27948,2.499856,-0.12965,2747.72,3010.49,26.1,
1498,1,SBT2050,2,3,,4,27991,2.50009,-0.12503,2747.72,3012.011,26,
1498,1,SBT2050,2,3,,4,28034,2.499999,-0.1203,2747.72,3013.474,26,
1498,1,SBT2050,2,3,,4,28077,2.50003,-0.11537,2747.72,3014.88,25.9,
1498,1,SBT2050,2,3,,4,28120,2.49988,-0.11077,2747.72,3016.231,25.9,
1498,1,SBT2050,2,3,,4,28163,2.49998,-0.10625,2747.72,3017.528,25.9,
1498,1,SBT2050,2,3,,4,28206,2.49983,-0.10193,2747.72,3018.773,25.9,
1498,1,SBT2050,2,3,,4,28249,2.49994,-0.09765,2747.72,3019.965,25.8,
1498,1,SBT2050,2,3,,4,28292,2.49995,-0.09351,2747.72,3021.107,25.8,
1498,1,SBT2050,2,3,,4,28335,2.49989,-0.08931,2747.72,3022.2,25.8,
1498,1,SBT2050,2,3,,4,28378,2.49992,-0.08556,2747.72,3023.245,25.7,
1498,1,SBT2050,2,3,,4,28421,2.49989,-0.08169,2747.72,3024.243,25.7,
1498,1,SBT2050,2,3,,4,28464,2.50009,-0.07784,2747.72,3025.196,25.7,
1498,1,SBT2050,2,3,,4,28507,2.49996,-0.07416,2747.72,3026.105,25.7,
1498,1,SBT2050,2,3,,4,28550,2.49992,-0.07077,2747.72,3026.971,25.6,
1498,1,SBT2050,2,3,,4,28593,2.50013,-0.06754,2747.72,3027.796,25.6,
1498,1,SBT2050,2,3,,4,28636,2.500011,-0.06425,2747.72,3028.582,25.6,
1498,1,SBT2050,2,3,,4,28679,2.500023,-0.06129,2747.72,3029.331,25.6,
1498,1,SBT2050,2,3,,4,28722,2.50012,-0.05849,2747.72,3030.044,25.6,
1498,1,SBT2050,2,3,,4,28765,2.499844,-0.05541,2747.72,3030.725,25.6,
1498,1,SBT2050,2,3,,4,28808,2.49996,-0.05304,2747.72,3031.374,25.6,
1498,1,SBT2050,2,3,,4,28851,2.49998,-0.0508,2747.72,3031.995,25.6,
1498,1,SBT2050,2,3,,4,28894,2.50009,-0.04881,2747.72,3032.59,25.5,
1498,1,SBT2050,2,3,,4,28937,2.49998,-0.046583,2747.72,3033.16,25.5,
1498,1,SBT2050,2,3,,4,28980,2.500011,-0.045017,2747.72,3033.708,25.5,
1498,1,SBT2050,2,3,,4,29023,2.49978,-0.043282,2747.72,3034.236,25.5,
1498,1,SBT2050,2,3,,4,29066,2.50008,-0.041712,2747.72,3034.744,25.5,
1498,1,SBT2050,2,3,,4,29109,2.50005,-0.040308,2747.72,3035.235,25.5,
1498,1,SBT2050,2,3,,4,29152,2.50005,-0.039129,2747.72,3035.708,25.4,
1498,1,SBT2050,2,3,,4,29195,2.500011,-0.037723,2747.72,3036.166,25.4,
1498,1,SBT2050,2,3,,4,29238,2.49999,-0.036498,2747.72,3036.609,25.4,
1498,1,SBT2050,2,3,,4,29281,2.49992,-0.035248,2747.72,3037.038,25.4,
1498,1,SBT2050,2,3,,4,29324,2.49978,-0.034135,2747.72,3037.453,25.4,
1498,1,SBT2050,2,3,,4,29367,2.50009,-0.033275,2747.72,3037.856,25.4,
1498,1,SBT2050,2,3,,4,29410,2.500023,-0.032236,2747.72,3038.247,25.4,
1498,1,SBT2050,2,3,,4,29453,2.49999,-0.031341,2747.72,3038.627,25.4,
1498,1,SBT2050,2,3,,4,29496,2.49995,-0.030281,2747.72,3038.995,25.3,
1498,1,SBT2050,2,3,,4,29539,2.49996,-0.029519,2747.72,3039.352,25.4,
1498,1,SBT2050,2,3,,4,29582,2.4999,-0.028626,2747.72,3039.699,25.4,
1498,1,SBT2050,2,3,,4,29625,2.50021,-0.027915,2747.72,3040.036,25.3,
1498,1,SBT2050,2,3,,4,29668,2.49995,-0.027055,2747.72,3040.364,25.4,
1498,1,SBT2050,2,3,,4,29711,2.49999,-0.026333,2747.72,3040.682,25.4,
1498,1,SBT2050,2,3,,4,29754,2.50014,-0.025633,2747.72,3040.99,25.3,
1498,1,SBT2050,2,3,,4,29797,2.49995,-0.024795,2747.72,3041.29,25.3,
1498,1,SBT2050,2,3,,4,29840,2.50007,-0.024098,2747.72,3041.582,25.3,
1498,1,SBT2050,2,3,,4,29883,2.50011,-0.023399,2747.72,3041.865,25.3,
1498,1,SBT2050,2,3,,4,29926,2.4999,-0.022852,2747.72,3042.14,25.3,
1498,1,SBT2050,2,3,,4,29969,2.49994,-0.022005,2747.72,3042.407,25.3,
1498,1,SBT2050,2,3,,4,30012,2.50003,-0.021392,2747.72,3042.667,25.3,
1498,1,SBT2050,2,3,,4,30055,2.5002,-0.020819,2747.72,3042.92,25.3,
1498,1,SBT2050,2,3,,4,30098,2.50011,-0.020292,2747.72,3043.166,25.3,
1498,1,SBT2050,2,3,,4,30141,2.500166,-0.019824,2747.72,3043.406,25.3,
1498,1,SBT2050,2,3,,4,30184,2.50003,-0.019352,2747.72,3043.639,25.2,
1498,1,SBT2050,2,3,,4,30227,2.50006,-0.018992,2747.72,3043.866,25.2,
1498,1,SBT2050,2,3,,4,30270,2.49994,-0.018301,2747.72,3044.087,25.2,
1498,1,SBT2050,2,3,,4,30313,2.499844,-0.017734,2747.72,3044.303,25.3,
1498,1,SBT2050,2,3,,4,30356,2.4998,-0.017258,2747.72,3044.513,25.2,
1498,1,SBT2050,2,3,,4,30399,2.49989,-0.016806,2747.72,3044.718,25.2,
1498,1,SBT2050,2,3,,4,30442,2.499856,-0.016492,2747.72,3044.918,25.2,
1498,1,SBT2050,2,3,,4,30485,2.50011,-0.016092,2747.72,3045.113,25.2,
1498,1,SBT2050,2,3,,4,30528,2.49989,-0.015529,2747.72,3045.303,25.2,
1498,1,SBT2050,2,3,,4,30571,2.49994,-0.01523,2747.72,3045.487,25.2,
1498,1,SBT2050,2,3,,4,30614,2.50003,-0.014798,2747.72,3045.667,25.2,
1498,1,SBT2050,2,3,,4,30657,2.49994,-0.014486,2747.72,3045.843,25.2,
1498,1,SBT2050,2,3,,4,30700,2.49992,-0.014221,2747.72,3046.013,25.2,
1498,1,SBT2050,2,3,,4,30743,2.49998,-0.013649,2747.72,3046.179,25.2,
1498,1,SBT2050,2,3,,4,30786,2.49993,-0.013229,2747.72,3046.34,25.3,
1498,1,SBT2050,2,3,,4,30829,2.49998,-0.013019,2747.72,3046.497,25.2,
1498,1,SBT2050,2,3,,4,30872,2.50005,-0.012541,2747.72,3046.65,25.2,
1498,1,SBT2050,2,3,,4,30915,2.500023,-0.012199,2747.72,3046.797,25.2,
1498,1,SBT2050,2,3,,4,30958,2.50007,-0.011818,2747.72,3046.941,25.2,
1498,1,SBT2050,2,3,,4,31001,2.49993,-0.011617,2747.72,3047.08,25.2,
1498,1,SBT2050,2,3,,4,31044,2.500011,-0.011083,2747.72,3047.215,25.2,
1498,1,SBT2050,2,3,,4,31087,2.499999,-0.010839,2747.72,3047.347,25.2,
1498,1,SBT2050,2,3,,4,31130,2.50013,-0.010648,2747.72,3047.475,25.2,
1498,1,SBT2050,2,3,,4,31173,2.50011,-0.010359,2747.72,3047.599,25.2,
1498,1,SBT2050,2,3,,5,31215,2.51775,0,2747.72,3047.661,25.2,
1498,1,SBT2050,2,3,,5,31258,2.54212,0,2747.72,3047.661,25.2,
1498,1,SBT2050,2,3,,5,31301,2.56283,0,2747.72,3047.661,25.2,
1498,1,SBT2050,2,3,,5,31344,2.58106,0,2747.72,3047.661,25.2,
1498,1,SBT2050,2,3,,5,31387,2.59755,0,2747.72,3047.661,25.2,
1498,1,SBT2050,2,3,,5,31430,2.61281,0,2747.72,3047.661,25.2,
1498,1,SBT2050,2,3,,5,31473,2.62614,0,2747.72,3047.661,25.2,
1498,1,SBT2050,2,3,,5,31516,2.638158,0,2747.72,3047.661,25.2,
1498,1,SBT2050,2,3,,5,31559,2.64888,0,2747.72,3047.661,25.2,
1498,1,SBT2050,2,3,,5,31602,2.658926,0,2747.72,3047.661,25.2,
1498,1,SBT2050,2,3,,5,31645,2.66787,0,2747.72,3047.661,25.2,
1498,1,SBT2050,2,3,,5,31688,2.676199,0,2747.72,3047.661,25.2,
1498,1,SBT2050,2,3,,5,31731,2.68351,0,2747.72,3047.661,25.2,
1498,1,SBT2050,2,3,,5,31774,2.69041,0,2747.72,3047.661,25.2,
1498,1,SBT2050,2,3,,5,31817,2.69683,0,2747.72,3047.661,25.2,
1498,1,SBT2050,2,3,,5,31860,2.70264,0,2747.72,3047.661,25.2,
1498,1,SBT2050,2,3,,5,31903,2.708187,0,2747.72,3047.661,25.2,
1498,1,SBT2050,2,3,,5,31946,2.713307,0,2747.72,3047.661,25.2,
1498,1,SBT2050,2,3,,5,31989,2.718111,0,2747.72,3047.661,25.2,
1498,1,SBT2050,2,3,,5,32032,2.7223,0,2747.72,3047.661,25.1,
1498,1,SBT2050,2,3,,5,32075,2.72657,0,2747.72,3047.661,25.1,
1498,1,SBT2050,2,3,,5,32118,2.73044,0,2747.72,3047.661,25.1,
1498,1,SBT2050,2,3,,5,32161,2.73419,0,2747.72,3047.661,25.1,
1498,1,SBT2050,2,3,,5,32204,2.73768,0,2747.72,3047.661,25.1,
1498,1,SBT2050,2,3,,5,32247,2.74117,0,2747.72,3047.661,25.1,
1498,1,SBT2050,2,3,,5,32290,2.74416,0,2747.72,3047.661,25,
1498,1,SBT2050,2,3,,5,32333,2.74721,0,2747.72,3047.661,25,
1498,1,SBT2050,2,3,,5,32376,2.749828,0,2747.72,3047.661,25,
1498,1,SBT2050,2,3,,5,32419,2.752383,0,2747.72,3047.661,25,
1498,1,SBT2050,2,3,,5,32462,2.75521,0,2747.72,3047.661,24.9,
1498,1,SBT2050,2,3,,5,32505,2.75748,0,2747.72,3047.661,24.9,
1498,1,SBT2050,2,3,,5,32548,2.75997,0,2747.72,3047.661,24.9,
1498,1,SBT2050,2,3,,5,32591,2.76215,0,2747.72,3047.661,24.8,
1498,1,SBT2050,2,3,,5,32634,2.7643,0,2747.72,3047.661,24.8,
1498,1,SBT2050,2,3,,5,32677,2.76601,0,2747.72,3047.661,24.8,
1498,1,SBT2050,2,3,,5,32720,2.76809,0,2747.72,3047.661,24.8,
1498,1,SBT2050,2,3,,5,32763,2.77013,0,2747.72,3047.661,24.8,
1498,1,SBT2050,2,3,,5,32806,2.77225,0,2747.72,3047.661,24.8,
1498,1,SBT2050,2,3,,5,32849,2.77346,0,2747.72,3047.661,24.8,
1498,1,SBT2050,2,3,,5,32892,2.77528,0,2747.72,3047.661,24.8,
1498,1,SBT2050,2,3,,5,32935,2.77677,0,2747.72,3047.661,24.8,
1498,1,SBT2050,2,3,,5,32978,2.77853,0,2747.72,3047.661,24.8,
1498,1,SBT2050,2,3,,5,32994.627,2.779466,-0.0001,2747.72,3047.661,,