File: ORRG/Test1553.csv
Request Year:,2018,,,,,,,,,,,,
Test:,1553,,,,,,,,,,,,
Test Description:,,,,,,,,,,,,,
TestRegime Name:,Dchg_1C,,,,,,,,,,,,
TestRegime Suffix:,SHP_LC,,,,,,,,,,,,
TestRegime CellSize:,18650,,,,,,,,,,,,
TestRegime Version:,1,,,,,,,,,,,,
Number Of Cells:,1,,,,,,,,,,,,
LotID:,,,,,,,,,,,,,
Lot Description:,,,,,,,,,,,,,
Date Made:,1/21/2003 12:00 AM,,,,,,,,,,,,
Origin:,Other,,,,,,,,,,,,
Requestor:,Admin,,,,,,,,,,,,
Product ID:,Default product,,,,,,,,,,,,
Storage Temp:,R.T./AMB,,,,,,,,,,,,
Storage Delay:,0 days,,,,,,,,,,,,
Test Temp:,R.T./AMB,,,,,,,,,,,,
Start Time:,4/25/2018 11:00 AM,,,,,,,,,,,,
End Time:,4/25/2018 11:51 AM,,,,,,,,,,,,
Operator Instructions:,,,,,,,,,,,,,
Test,Cell,Rack,Shelf,Position,Cell ID,Step,Total Time (Seconds),Voltage (V),Current (A),Charge Capacity (mAh),Discharge Capacity (mAh),TC1 (Â°C),
1553,1,SBT2050,2,3,,0,1,4.18255,0,0,0,25.9,
1553,1,SBT2050,2,3,,0,5,4.18198,0,0,0,25.9,
1553,1,SBT2050,2,3,,0,9,4.1817,0,0,0,25.9,
1553,1,SBT2050,2,3,,0,13,4.181448,0,0,0,25.9,
1553,1,SBT2050,2,3,,0,17,4.18103,0,0,0,25.9,
1553,1,SBT2050,2,3,,0,21,4.1809,0,0,0,25.9,
1553,1,SBT2050,2,3,,0,25,4.18064,0,0,0,25.9,
1553,1,SBT2050,2,3,,0,29,4.17994,0,0,0,25.8,
1553,1,SBT2050,2,3,,0,33,4.18005,0,0,0,25.8,
1553,1,SBT2050,2,3,,0,37,4.17955,0,0,0,25.8,
1553,1,SBT2050,2,3,,0,41,4.17902,0,0,0,25.8,
1553,1,SBT2050,2,3,,0,45,4.17901,0,0,0,25.8,
1553,1,SBT2050,2,3,,0,49,4.178606,0,0,0,25.8,
1553,1,SBT2050,2,3,,0,53,4.178426,0,0,0,25.8,
1553,1,SBT2050,2,3,,0,57,4.17811,0,0,0,25.8,
1553,1,SBT2050,2,3,,1,61,3.95175,-2.7,0,0.749,25.8,
1553,1,SBT2050,2,3,,1,65,3.92434,-2.6999,0,3.749,25.8,
1553,1,SBT2050,2,3,,1,69,3.91009,-2.6999,0,6.749,25.8,
1553,1,SBT2050,2,3,,1,73,3.89905,-2.6999,0,9.749,25.8,
1553,1,SBT2050,2,3,,1,77,3.88975,-2.7001,0,12.748,25.9,
1553,1,SBT2050,2,3,,1,81,3.88204,-2.6996,0,15.748,25.9,
1553,1,SBT2050,2,3,,1,85,3.87504,-2.7003,0,18.748,26,
1553,1,SBT2050,2,3,,1,89,3.86888,-2.6998,0,21.748,26,
1553,1,SBT2050,2,3,,1,93,3.86343,-2.6996,0,24.748,26,
1553,1,SBT2050,2,3,,1,97,3.85832,-2.6998,0,27.748,26.1,
1553,1,SBT2050,2,3,,1,101,3.85397,-2.6996,0,30.748,26.2,
1553,1,SBT2050,2,3,,1,105,3.84979,-2.6999,0,33.748,26.2,
1553,1,SBT2050,2,3,,1,109,3.84593,-2.7001,0,36.748,26.2,
1553,1,SBT2050,2,3,,1,113,3.84206,-2.7001,0,39.748,26.3,
1553,1,SBT2050,2,3,,1,117,3.83868,-2.6999,0,42.748,26.4,
1553,1,SBT2050,2,3,,1,121,3.83536,-2.6996,0,45.748,26.5,
1553,1,SBT2050,2,3,,1,125,3.83233,-2.6999,0,48.748,26.5,
1553,1,SBT2050,2,3,,1,129,3.82931,-2.6999,0,51.748,26.6,
1553,1,SBT2050,2,3,,1,133,3.82629,-2.7001,0,54.747,26.6,
1553,1,SBT2050,2,3,,1,137,3.824208,-2.6998,0,57.747,26.6,
1553,1,SBT2050,2,3,,1,141,3.82139,-2.7002,0,60.747,26.7,
1553,1,SBT2050,2,3,,1,145,3.8188,-2.7001,0,63.747,26.8,
1553,1,SBT2050,2,3,,1,149,3.81652,-2.6999,0,66.747,26.8,
1553,1,SBT2050,2,3,,1,153,3.81412,-2.6998,0,69.747,26.9,
1553,1,SBT2050,2,3,,1,157,3.811778,-2.6996,0,72.747,26.9,
1553,1,SBT2050,2,3,,1,161,3.80953,-2.6998,0,75.747,27,
1553,1,SBT2050,2,3,,1,165,3.80729,-2.6999,0,78.747,27,
1553,1,SBT2050,2,3,,1,169,3.8052,-2.7001,0,81.747,27.1,
1553,1,SBT2050,2,3,,1,173,3.80321,-2.7001,0,84.747,27.1,
1553,1,SBT2050,2,3,,1,177,3.80103,-2.7002,0,87.747,27.1,
1553,1,SBT2050,2,3,,1,181,3.799076,-2.7002,0,90.747,27.2,
1553,1,SBT2050,2,3,,1,185,3.79697,-2.7001,0,93.747,27.2,
1553,1,SBT2050,2,3,,1,189,3.79541,-2.6999,0,96.747,27.3,
1553,1,SBT2050,2,3,,1,193,3.79341,-2.6999,0,99.747,27.3,
1553,1,SBT2050,2,3,,1,197,3.79129,-2.7001,0,102.747,27.3,
1553,1,SBT2050,2,3,,1,201,3.78967,-2.7002,0,105.746,27.4,
1553,1,SBT2050,2,3,,1,205,3.78793,-2.7002,0,108.746,27.4,
1553,1,SBT2050,2,3,,1,209,3.78615,-2.7001,0,111.746,27.5,
1553,1,SBT2050,2,3,,1,213,3.78441,-2.6998,0,114.746,27.5,
1553,1,SBT2050,2,3,,1,217,3.78275,-2.7,0,117.746,27.6,
1553,1,SBT2050,2,3,,1,221,3.78125,-2.7001,0,120.746,27.6,
1553,1,SBT2050,2,3,,1,225,3.77949,-2.7,0,123.746,27.6,
1553,1,SBT2050,2,3,,1,229,3.77784,-2.7002,0,126.746,27.7,
1553,1,SBT2050,2,3,,1,233,3.77623,-2.6994,0,129.746,27.7,
1553,1,SBT2050,2,3,,1,237,3.77509,-2.6997,0,132.746,27.7,
1553,1,SBT2050,2,3,,1,241,3.77365,-2.6997,0,135.746,27.8,
1553,1,SBT2050,2,3,,1,245,3.77192,-2.6996,0,138.746,27.8,
1553,1,SBT2050,2,3,,1,249,3.77041,-2.7,0,141.746,27.8,
1553,1,SBT2050,2,3,,1,253,3.76912,-2.6999,0,144.746,27.8,
1553,1,SBT2050,2,3,,1,257,3.767654,-2.6994,0,147.746,27.9,
1553,1,SBT2050,2,3,,1,261,3.76645,-2.6999,0,150.746,27.9,
1553,1,SBT2050,2,3,,1,265,3.76517,-2.6999,0,153.745,27.9,
1553,1,SBT2050,2,3,,1,269,3.76382,-2.6999,0,156.745,27.9,
1553,1,SBT2050,2,3,,1,273,3.76272,-2.7,0,159.745,27.9,
1553,1,SBT2050,2,3,,1,277,3.76142,-2.7002,0,162.745,28,
1553,1,SBT2050,2,3,,1,281,3.760184,-2.6997,0,165.745,28,
1553,1,SBT2050,2,3,,1,285,3.75879,-2.7,0,168.745,28,
1553,1,SBT2050,2,3,,1,289,3.757606,-2.6999,0,171.745,28,
1553,1,SBT2050,2,3,,1,293,3.75639,-2.6996,0,174.745,28.1,
1553,1,SBT2050,2,3,,1,297,3.755358,-2.7,0,177.745,28.1,
1553,1,SBT2050,2,3,,1,301,3.75413,-2.6999,0,180.745,28.1,
1553,1,SBT2050,2,3,,1,305,3.75313,-2.6995,0,183.745,28.2,
1553,1,SBT2050,2,3,,1,309,3.75174,-2.6995,0,186.745,28.2,
1553,1,SBT2050,2,3,,1,313,3.75095,-2.7001,0,189.745,28.2,
1553,1,SBT2050,2,3,,1,317,3.749784,-2.6999,0,192.745,28.2,
1553,1,SBT2050,2,3,,1,321,3.74852,-2.7001,0,195.745,28.3,
1553,1,SBT2050,2,3,,1,325,3.74737,-2.6996,0,198.745,28.3,
1553,1,SBT2050,2,3,,1,329,3.74636,-2.7001,0,201.744,28.3,
1553,1,SBT2050,2,3,,1,333,3.7454,-2.7002,0,204.744,28.3,
1553,1,SBT2050,2,3,,1,337,3.74427,-2.7001,0,207.744,28.3,
1553,1,SBT2050,2,3,,1,341,3.743076,-2.6999,0,210.744,28.4,
1553,1,SBT2050,2,3,,1,345,3.74222,-2.6996,0,213.744,28.4,
1553,1,SBT2050,2,3,,1,349,3.740964,-2.7001,0,216.744,28.4,
1553,1,SBT2050,2,3,,1,353,3.74008,-2.7003,0,219.744,28.4,
1553,1,SBT2050,2,3,,1,357,3.73894,-2.7002,0,222.744,28.4,
1553,1,SBT2050,2,3,,1,361,3.73774,-2.7002,0,225.744,28.4,
1553,1,SBT2050,2,3,,1,365,3.73693,-2.7,0,228.744,28.4,
1553,1,SBT2050,2,3,,1,369,3.735614,-2.7002,0,231.744,28.5,
1553,1,SBT2050,2,3,,1,373,3.73462,-2.7,0,234.744,28.5,
1553,1,SBT2050,2,3,,1,377,3.73368,-2.7,0,237.744,28.5,
1553,1,SBT2050,2,3,,1,381,3.73256,-2.7,0,240.744,28.5,
1553,1,SBT2050,2,3,,1,385,3.73143,-2.7,0,243.744,28.5,
1553,1,SBT2050,2,3,,1,389,3.73048,-2.7002,0,246.743,28.5,
1553,1,SBT2050,2,3,,1,393,3.72951,-2.6996,0,249.743,28.5,
1553,1,SBT2050,2,3,,1,397,3.72863,-2.7003,0,252.743,28.5,
1553,1,SBT2050,2,3,,1,401,3.72737,-2.6997,0,255.743,28.6,
1553,1,SBT2050,2,3,,1,405,3.72653,-2.7,0,258.743,28.6,
1553,1,SBT2050,2,3,,1,409,3.72511,-2.7002,0,261.743,28.6,
1553,1,SBT2050,2,3,,1,413,3.72419,-2.7,0,264.743,28.6,
1553,1,SBT2050,2,3,,1,417,3.72302,-2.6999,0,267.743,28.6,
1553,1,SBT2050,2,3,,1,421,3.72203,-2.7002,0,270.743,28.6,
1553,1,SBT2050,2,3,,1,425,3.72111,-2.6997,0,273.743,28.6,
1553,1,SBT2050,2,3,,1,429,3.72021,-2.6997,0,276.743,28.6,
1553,1,SBT2050,2,3,,1,433,3.71887,-2.7,0,279.743,28.6,
1553,1,SBT2050,2,3,,1,437,3.71823,-2.7002,0,282.743,28.6,
1553,1,SBT2050,2,3,,1,441,3.7169,-2.7,0,285.743,28.6,
1553,1,SBT2050,2,3,,1,445,3.71607,-2.6999,0,288.743,28.7,
1553,1,SBT2050,2,3,,1,449,3.715,-2.6997,0,291.743,28.7,
1553,1,SBT2050,2,3,,1,453,3.713854,-2.7002,0,294.743,28.7,
1553,1,SBT2050,2,3,,1,457,3.71297,-2.6997,0,297.743,28.7,
1553,1,SBT2050,2,3,,1,461,3.71189,-2.7,0,300.743,28.7,
1553,1,SBT2050,2,3,,1,465,3.71073,-2.7002,0,303.743,28.7,
1553,1,SBT2050,2,3,,1,469,3.70974,-2.6999,0,306.742,28.7,
1553,1,SBT2050,2,3,,1,473,3.70886,-2.6997,0,309.742,28.7,
1553,1,SBT2050,2,3,,1,477,3.70805,-2.6994,0,312.742,28.7,
1553,1,SBT2050,2,3,,1,481,3.70669,-2.7,0,315.742,28.7,
1553,1,SBT2050,2,3,,1,485,3.70564,-2.6997,0,318.742,28.7,
1553,1,SBT2050,2,3,,1,489,3.70456,-2.7,0,321.742,28.8,
1553,1,SBT2050,2,3,,1,493,3.70349,-2.7002,0,324.742,28.8,
1553,1,SBT2050,2,3,,1,497,3.70247,-2.7,0,327.742,28.8,
1553,1,SBT2050,2,3,,1,501,3.70129,-2.7,0,330.742,28.8,
1553,1,SBT2050,2,3,,1,505,3.700332,-2.7002,0,333.742,28.8,
1553,1,SBT2050,2,3,,1,509,3.699264,-2.6999,0,336.742,28.8,
1553,1,SBT2050,2,3,,1,513,3.69816,-2.6999,0,339.742,28.8,
1553,1,SBT2050,2,3,,1,517,3.697408,-2.7002,0,342.742,28.8,
1553,1,SBT2050,2,3,,1,521,3.69615,-2.6999,0,345.742,28.8,
1553,1,SBT2050,2,3,,1,525,3.69502,-2.6999,0,348.742,28.8,
1553,1,SBT2050,2,3,,1,529,3.69427,-2.7,0,351.742,28.8,
1553,1,SBT2050,2,3,,1,533,3.69315,-2.7,0,354.742,28.8,
1553,1,SBT2050,2,3,,1,537,3.69219,-2.7,0,357.742,28.9,
1553,1,SBT2050,2,3,,1,541,3.69102,-2.6997,0,360.742,28.9,
1553,1,SBT2050,2,3,,1,545,3.69022,-2.7003,0,363.741,28.9,
1553,1,SBT2050,2,3,,1,549,3.68899,-2.7,0,366.741,28.9,
1553,1,SBT2050,2,3,,1,553,3.6882,-2.6997,0,369.741,28.9,
1553,1,SBT2050,2,3,,1,557,3.68713,-2.7001,0,372.741,28.9,
1553,1,SBT2050,2,3,,1,561,3.686096,-2.6996,0,375.741,28.9,
1553,1,SBT2050,2,3,,1,565,3.68503,-2.6999,0,378.741,28.9,
1553,1,SBT2050,2,3,,1,569,3.68412,-2.7001,0,381.741,28.9,
1553,1,SBT2050,2,3,,1,573,3.68294,-2.7001,0,384.741,28.9,
1553,1,SBT2050,2,3,,1,577,3.68193,-2.6998,0,387.741,28.9,
1553,1,SBT2050,2,3,,1,581,3.68088,-2.7001,0,390.741,28.9,
1553,1,SBT2050,2,3,,1,585,3.68002,-2.7,0,393.741,28.9,
1553,1,SBT2050,2,3,,1,589,3.67874,-2.7,0,396.741,28.9,
1553,1,SBT2050,2,3,,1,593,3.67781,-2.7003,0,399.741,28.9,
1553,1,SBT2050,2,3,,1,597,3.6766,-2.7002,0,402.741,28.9,
1553,1,SBT2050,2,3,,1,601,3.67599,-2.7003,0,405.741,28.9,
1553,1,SBT2050,2,3,,1,605,3.67471,-2.7003,0,408.741,29,
1553,1,SBT2050,2,3,,1,609,3.67362,-2.7,0,411.74,29,
1553,1,SBT2050,2,3,,1,613,3.67277,-2.6996,0,414.74,29,
1553,1,SBT2050,2,3,,1,617,3.67164,-2.6999,0,417.74,29,
1553,1,SBT2050,2,3,,1,621,3.67067,-2.6999,0,420.74,29,
1553,1,SBT2050,2,3,,1,625,3.669886,-2.6997,0,423.74,29,
1553,1,SBT2050,2,3,,1,629,3.66844,-2.7,0,426.74,29,
1553,1,SBT2050,2,3,,1,633,3.66757,-2.6999,0,429.74,29,
1553,1,SBT2050,2,3,,1,637,3.66647,-2.6999,0,432.74,29,
1553,1,SBT2050,2,3,,1,641,3.66535,-2.7,0,435.74,28.9,
1553,1,SBT2050,2,3,,1,645,3.664288,-2.6999,0,438.74,29,
1553,1,SBT2050,2,3,,1,649,3.66351,-2.7005,0,441.74,29,
1553,1,SBT2050,2,3,,1,653,3.66224,-2.6996,0,444.74,29,
1553,1,SBT2050,2,3,,1,657,3.66111,-2.7002,0,447.74,29,
1553,1,SBT2050,2,3,,1,661,3.65979,-2.6997,0,450.74,29,
1553,1,SBT2050,2,3,,1,665,3.6591,-2.7,0,453.74,29,
1553,1,SBT2050,2,3,,1,669,3.658206,-2.6997,0,456.74,29,
1553,1,SBT2050,2,3,,1,673,3.65703,-2.6997,0,459.739,29,
1553,1,SBT2050,2,3,,1,677,3.65601,-2.7,0,462.739,29,
1553,1,SBT2050,2,3,,1,681,3.65477,-2.6997,0,465.739,29,
1553,1,SBT2050,2,3,,1,685,3.65378,-2.7002,0,468.739,29,
1553,1,SBT2050,2,3,,1,689,3.6527,-2.7,0,471.739,29,
1553,1,SBT2050,2,3,,1,693,3.651604,-2.7002,0,474.739,29,
1553,1,SBT2050,2,3,,1,697,3.65061,-2.6999,0,477.739,29,
1553,1,SBT2050,2,3,,1,701,3.64949,-2.7001,0,480.739,29,
1553,1,SBT2050,2,3,,1,705,3.64836,-2.7,0,483.739,29,
1553,1,SBT2050,2,3,,1,709,3.64757,-2.7001,0,486.739,29,
1553,1,SBT2050,2,3,,1,713,3.64629,-2.6999,0,489.739,29,
1553,1,SBT2050,2,3,,1,717,3.64536,-2.6996,0,492.739,29,
1553,1,SBT2050,2,3,,1,721,3.6443,-2.6999,0,495.739,29,
1553,1,SBT2050,2,3,,1,725,3.643206,-2.6999,0,498.739,29,
1553,1,SBT2050,2,3,,1,729,3.64245,-2.7005,0,501.739,29,
1553,1,SBT2050,2,3,,1,733,3.64101,-2.7,0,504.739,29,
1553,1,SBT2050,2,3,,1,737,3.63988,-2.7,0,507.739,29,
1553,1,SBT2050,2,3,,1,741,3.638994,-2.6999,0,510.738,29,
1553,1,SBT2050,2,3,,1,745,3.63792,-2.7,0,513.738,29,
1553,1,SBT2050,2,3,,1,749,3.63686,-2.6999,0,516.738,29,
1553,1,SBT2050,2,3,,1,753,3.635468,-2.7002,0,519.738,29,
1553,1,SBT2050,2,3,,1,757,3.63472,-2.6996,0,522.738,29,
1553,1,SBT2050,2,3,,1,761,3.6335,-2.6999,0,525.738,29,
1553,1,SBT2050,2,3,,1,765,3.63245,-2.6999,0,528.738,29,
1553,1,SBT2050,2,3,,1,769,3.63145,-2.7003,0,531.738,29,
1553,1,SBT2050,2,3,,1,773,3.630398,-2.6999,0,534.738,29,
1553,1,SBT2050,2,3,,1,777,3.62925,-2.7,0,537.738,28.9,
1553,1,SBT2050,2,3,,1,781,3.62838,-2.6998,0,540.738,29,
1553,1,SBT2050,2,3,,1,785,3.62741,-2.6998,0,543.738,29,
1553,1,SBT2050,2,3,,1,789,3.62624,-2.7,0,546.738,29,
1553,1,SBT2050,2,3,,1,793,3.62503,-2.7,0,549.738,29,
1553,1,SBT2050,2,3,,1,797,3.62388,-2.6998,0,552.738,29,
1553,1,SBT2050,2,3,,1,801,3.62279,-2.6997,0,555.738,29,
1553,1,SBT2050,2,3,,1,805,3.62179,-2.6999,0,558.737,29,
1553,1,SBT2050,2,3,,1,809,3.62095,-2.6999,0,561.737,29,
1553,1,SBT2050,2,3,,1,813,3.61998,-2.6996,0,564.737,29,
1553,1,SBT2050,2,3,,1,817,3.61879,-2.7,0,567.737,29,
1553,1,SBT2050,2,3,,1,821,3.61794,-2.6999,0,570.737,29,
1553,1,SBT2050,2,3,,1,825,3.61681,-2.7,0,573.737,29,
1553,1,SBT2050,2,3,,1,829,3.61543,-2.6999,0,576.737,29,
1553,1,SBT2050,2,3,,1,833,3.614714,-2.7,0,579.737,29,
1553,1,SBT2050,2,3,,1,837,3.61341,-2.6999,0,582.737,29,
1553,1,SBT2050,2,3,,1,841,3.61251,-2.6999,0,585.737,29,
1553,1,SBT2050,2,3,,1,845,3.611402,-2.6999,0,588.737,29,
1553,1,SBT2050,2,3,,1,849,3.61049,-2.6995,0,591.737,29,
1553,1,SBT2050,2,3,,1,853,3.60922,-2.6996,0,594.737,29,
1553,1,SBT2050,2,3,,1,857,3.60827,-2.6999,0,597.737,29,
1553,1,SBT2050,2,3,,1,861,3.60697,-2.6997,0,600.737,29,
1553,1,SBT2050,2,3,,1,865,3.60586,-2.7002,0,603.737,29,
1553,1,SBT2050,2,3,,1,869,3.60466,-2.6999,0,606.736,29,
1553,1,SBT2050,2,3,,1,873,3.6037,-2.6999,0,609.736,29,
1553,1,SBT2050,2,3,,1,877,3.60247,-2.6999,0,612.736,29,
1553,1,SBT2050,2,3,,1,881,3.60148,-2.7,0,615.736,29,
1553,1,SBT2050,2,3,,1,885,3.600492,-2.6997,0,618.736,29,
1553,1,SBT2050,2,3,,1,889,3.5997,-2.6999,0,621.736,29,
1553,1,SBT2050,2,3,,1,893,3.59847,-2.7003,0,624.736,29,
1553,1,SBT2050,2,3,,1,897,3.59713,-2.6999,0,627.736,29,
1553,1,SBT2050,2,3,,1,901,3.59623,-2.7,0,630.736,29,
1553,1,SBT2050,2,3,,1,905,3.59525,-2.6999,0,633.736,29,
1553,1,SBT2050,2,3,,1,909,3.59421,-2.6999,0,636.736,29.1,
1553,1,SBT2050,2,3,,1,913,3.59338,-2.7,0,639.736,29,
1553,1,SBT2050,2,3,,1,917,3.59202,-2.7,0,642.736,29.1,
1553,1,SBT2050,2,3,,1,921,3.59118,-2.6998,0,645.736,29,
1553,1,SBT2050,2,3,,1,925,3.58985,-2.6999,0,648.736,29,
1553,1,SBT2050,2,3,,1,929,3.5889,-2.7001,0,651.735,29,
1553,1,SBT2050,2,3,,1,933,3.58775,-2.7001,0,654.735,29,
1553,1,SBT2050,2,3,,1,937,3.58655,-2.6999,0,657.735,29,
1553,1,SBT2050,2,3,,1,941,3.585688,-2.6998,0,660.735,29,
1553,1,SBT2050,2,3,,1,945,3.584374,-2.6999,0,663.735,29,
1553,1,SBT2050,2,3,,1,949,3.582988,-2.6999,0,666.735,29,
1553,1,SBT2050,2,3,,1,953,3.58223,-2.7001,0,669.735,29,
1553,1,SBT2050,2,3,,1,957,3.58097,-2.6999,0,672.735,29,
1553,1,SBT2050,2,3,,1,961,3.57985,-2.7001,0,675.735,29,
1553,1,SBT2050,2,3,,1,965,3.578886,-2.7002,0,678.735,29,
1553,1,SBT2050,2,3,,1,969,3.57765,-2.7002,0,681.735,29,
1553,1,SBT2050,2,3,,1,973,3.576576,-2.6999,0,684.735,29,
1553,1,SBT2050,2,3,,1,977,3.57547,-2.6999,0,687.735,29,
1553,1,SBT2050,2,3,,1,981,3.574348,-2.7,0,690.735,29,
1553,1,SBT2050,2,3,,1,985,3.573444,-2.7,0,693.735,29,
1553,1,SBT2050,2,3,,1,989,3.5723,-2.7001,0,696.735,29.1,
1553,1,SBT2050,2,3,,1,993,3.57124,-2.7004,0,699.734,29,
1553,1,SBT2050,2,3,,1,997,3.57007,-2.7003,0,702.734,29.1,
1553,1,SBT2050,2,3,,1,1001,3.56888,-2.7003,0,705.734,29,
1553,1,SBT2050,2,3,,1,1005,3.568,-2.6997,0,708.734,29,
1553,1,SBT2050,2,3,,1,1009,3.566802,-2.7003,0,711.734,29.1,
1553,1,SBT2050,2,3,,1,1013,3.56564,-2.7001,0,714.734,29.1,
1553,1,SBT2050,2,3,,1,1017,3.564578,-2.6997,0,717.734,29.1,
1553,1,SBT2050,2,3,,1,1021,3.56333,-2.6999,0,720.734,29.1,
1553,1,SBT2050,2,3,,1,1025,3.56218,-2.7,0,723.734,29.1,
1553,1,SBT2050,2,3,,1,1029,3.56124,-2.7002,0,726.734,29.1,
1553,1,SBT2050,2,3,,1,1033,3.55999,-2.7002,0,729.734,29.1,
1553,1,SBT2050,2,3,,1,1037,3.558946,-2.6996,0,732.734,29.1,
1553,1,SBT2050,2,3,,1,1041,3.557886,-2.7003,0,735.734,29.1,
1553,1,SBT2050,2,3,,1,1045,3.55702,-2.6999,0,738.734,29.1,
1553,1,SBT2050,2,3,,1,1049,3.55571,-2.7004,0,741.734,29.1,
1553,1,SBT2050,2,3,,1,1053,3.55451,-2.6998,0,744.734,29.1,
1553,1,SBT2050,2,3,,1,1057,3.55333,-2.6999,0,747.734,29.1,
1553,1,SBT2050,2,3,,1,1061,3.55237,-2.6996,0,750.734,29.1,
1553,1,SBT2050,2,3,,1,1065,3.551048,-2.7,0,753.734,29.1,
1553,1,SBT2050,2,3,,1,1069,3.54999,-2.6999,0,756.734,29.1,
1553,1,SBT2050,2,3,,1,1073,3.54898,-2.6997,0,759.733,29.1,
1553,1,SBT2050,2,3,,1,1077,3.54808,-2.6999,0,762.733,29.1,
1553,1,SBT2050,2,3,,1,1081,3.54686,-2.7,0,765.733,29.1,
1553,1,SBT2050,2,3,,1,1085,3.545936,-2.6997,0,768.733,29.1,
1553,1,SBT2050,2,3,,1,1089,3.54469,-2.7,0,771.733,29.1,
1553,1,SBT2050,2,3,,1,1093,3.54358,-2.7,0,774.733,29.1,
1553,1,SBT2050,2,3,,1,1097,3.542638,-2.6999,0,777.733,29.1,
1553,1,SBT2050,2,3,,1,1101,3.541412,-2.7,0,780.733,29.1,
1553,1,SBT2050,2,3,,1,1105,3.54035,-2.7,0,783.733,29.1,
1553,1,SBT2050,2,3,,1,1109,3.53915,-2.6998,0,786.733,29.1,
1553,1,SBT2050,2,3,,1,1113,3.5383,-2.7,0,789.733,29.1,
1553,1,SBT2050,2,3,,1,1117,3.53704,-2.7,0,792.733,29.1,
1553,1,SBT2050,2,3,,1,1121,3.53597,-2.6998,0,795.733,29.1,
1553,1,SBT2050,2,3,,1,1125,3.5347,-2.7,0,798.733,29.1,
1553,1,SBT2050,2,3,,1,1129,3.53346,-2.6997,0,801.733,29.1,
1553,1,SBT2050,2,3,,1,1133,3.5327,-2.6997,0,804.733,29.1,
1553,1,SBT2050,2,3,,1,1137,3.53163,-2.6998,0,807.733,29.1,
1553,1,SBT2050,2,3,,1,1141,3.530378,-2.7003,0,810.733,29.1,
1553,1,SBT2050,2,3,,1,1145,3.52943,-2.6998,0,813.733,29.1,
1553,1,SBT2050,2,3,,1,1149,3.52799,-2.6998,0,816.733,29.1,
1553,1,SBT2050,2,3,,1,1153,3.52702,-2.7002,0,819.732,29.1,
1553,1,SBT2050,2,3,,1,1157,3.52593,-2.6998,0,822.732,29.1,
1553,1,SBT2050,2,3,,1,1161,3.524852,-2.7001,0,825.732,29.1,
1553,1,SBT2050,2,3,,1,1165,3.52364,-2.7,0,828.732,29.1,
1553,1,SBT2050,2,3,,1,1169,3.522402,-2.6995,0,831.732,29.1,
1553,1,SBT2050,2,3,,1,1173,3.52147,-2.6998,0,834.732,29.1,
1553,1,SBT2050,2,3,,1,1177,3.52019,-2.7001,0,837.732,29.1,
1553,1,SBT2050,2,3,,1,1181,3.519016,-2.6996,0,840.732,29.1,
1553,1,SBT2050,2,3,,1,1185,3.51795,-2.6997,0,843.732,29.1,
1553,1,SBT2050,2,3,,1,1189,3.51684,-2.7002,0,846.732,29.1,
1553,1,SBT2050,2,3,,1,1193,3.5156,-2.6997,0,849.732,29.1,
1553,1,SBT2050,2,3,,1,1197,3.51445,-2.7003,0,852.732,29.1,
1553,1,SBT2050,2,3,,1,1201,3.513516,-2.6999,0,855.732,29.1,
1553,1,SBT2050,2,3,,1,1205,3.512338,-2.6999,0,858.732,29.1,
1553,1,SBT2050,2,3,,1,1209,3.51106,-2.6999,0,861.732,29.1,
1553,1,SBT2050,2,3,,1,1213,3.51007,-2.7,0,864.732,29.1,
1553,1,SBT2050,2,3,,1,1217,3.50883,-2.7,0,867.732,29.1,
1553,1,SBT2050,2,3,,1,1221,3.507568,-2.7002,0,870.732,29.1,
1553,1,SBT2050,2,3,,1,1225,3.50681,-2.7003,0,873.732,29.1,
1553,1,SBT2050,2,3,,1,1229,3.50551,-2.6997,0,876.732,29.1,
1553,1,SBT2050,2,3,,1,1233,3.50447,-2.6997,0,879.732,29.1,
1553,1,SBT2050,2,3,,1,1237,3.50348,-2.7,0,882.731,29.1,
1553,1,SBT2050,2,3,,1,1241,3.50212,-2.6999,0,885.731,29.1,
1553,1,SBT2050,2,3,,1,1245,3.50093,-2.7002,0,888.731,29.1,
1553,1,SBT2050,2,3,,1,1249,3.500126,-2.6999,0,891.731,29.1,
1553,1,SBT2050,2,3,,1,1253,3.498956,-2.7,0,894.731,29.1,
1553,1,SBT2050,2,3,,1,1257,3.497702,-2.6997,0,897.731,29.1,
1553,1,SBT2050,2,3,,1,1261,3.49668,-2.6996,0,900.731,29.1,
1553,1,SBT2050,2,3,,1,1265,3.49555,-2.7,0,903.731,29.1,
1553,1,SBT2050,2,3,,1,1269,3.49455,-2.6997,0,906.731,29.1,
1553,1,SBT2050,2,3,,1,1273,3.493474,-2.7002,0,909.731,29.1,
1553,1,SBT2050,2,3,,1,1277,3.49206,-2.6997,0,912.731,29.1,
1553,1,SBT2050,2,3,,1,1281,3.49114,-2.6996,0,915.731,29.2,
1553,1,SBT2050,2,3,,1,1285,3.490018,-2.6999,0,918.731,29.2,
1553,1,SBT2050,2,3,,1,1289,3.48895,-2.6999,0,921.731,29.1,
1553,1,SBT2050,2,3,,1,1293,3.48771,-2.6996,0,924.731,29.1,
1553,1,SBT2050,2,3,,1,1297,3.48647,-2.7,0,927.73,29.1,
1553,1,SBT2050,2,3,,1,1301,3.48539,-2.7,0,930.73,29.1,
1553,1,SBT2050,2,3,,1,1305,3.48445,-2.6999,0,933.73,29.1,
1553,1,SBT2050,2,3,,1,1309,3.48326,-2.6996,0,936.73,29.1,
1553,1,SBT2050,2,3,,1,1313,3.48207,-2.6999,0,939.73,29.1,
1553,1,SBT2050,2,3,,1,1317,3.481136,-2.7001,0,942.73,29.1,
1553,1,SBT2050,2,3,,1,1321,3.47959,-2.6997,0,945.73,29.1,
1553,1,SBT2050,2,3,,1,1325,3.47876,-2.6998,0,948.73,29.2,
1553,1,SBT2050,2,3,,1,1329,3.47765,-2.6998,0,951.73,29.1,
1553,1,SBT2050,2,3,,1,1333,3.476498,-2.6999,0,954.73,29.1,
1553,1,SBT2050,2,3,,1,1337,3.47549,-2.7001,0,957.73,29.2,
1553,1,SBT2050,2,3,,1,1341,3.47437,-2.6998,0,960.73,29.2,
1553,1,SBT2050,2,3,,1,1345,3.47312,-2.6996,0,963.73,29.2,
1553,1,SBT2050,2,3,,1,1349,3.47199,-2.6999,0,966.73,29.2,
1553,1,SBT2050,2,3,,1,1353,3.4709,-2.7005,0,969.73,29.2,
1553,1,SBT2050,2,3,,1,1357,3.46984,-2.6995,0,972.729,29.2,
1553,1,SBT2050,2,3,,1,1361,3.46861,-2.6999,0,975.729,29.2,
1553,1,SBT2050,2,3,,1,1365,3.467466,-2.7001,0,978.729,29.2,
1553,1,SBT2050,2,3,,1,1369,3.46629,-2.7001,0,981.729,29.2,
1553,1,SBT2050,2,3,,1,1373,3.46548,-2.6999,0,984.729,29.2,
1553,1,SBT2050,2,3,,1,1377,3.46442,-2.7001,0,987.729,29.2,
1553,1,SBT2050,2,3,,1,1381,3.46335,-2.6995,0,990.729,29.2,
1553,1,SBT2050,2,3,,1,1385,3.4621,-2.6996,0,993.729,29.2,
1553,1,SBT2050,2,3,,1,1389,3.461098,-2.7001,0,996.729,29.2,
1553,1,SBT2050,2,3,,1,1393,3.459802,-2.7002,0,999.729,29.2,
1553,1,SBT2050,2,3,,1,1397,3.45906,-2.7001,0,1002.729,29.2,
1553,1,SBT2050,2,3,,1,1401,3.45788,-2.6998,0,1005.729,29.2,
1553,1,SBT2050,2,3,,1,1405,3.457048,-2.7001,0,1008.729,29.2,
1553,1,SBT2050,2,3,,1,1409,3.4558,-2.7,0,1011.729,29.2,
1553,1,SBT2050,2,3,,1,1413,3.45469,-2.7003,0,1014.729,29.2,
1553,1,SBT2050,2,3,,1,1417,3.453212,-2.6999,0,1017.728,29.2,
1553,1,SBT2050,2,3,,1,1421,3.45238,-2.7002,0,1020.728,29.2,
1553,1,SBT2050,2,3,,1,1425,3.45137,-2.7,0,1023.728,29.2,
1553,1,SBT2050,2,3,,1,1429,3.45021,-2.6999,0,1026.728,29.2,
1553,1,SBT2050,2,3,,1,1433,3.4493,-2.7001,0,1029.728,29.2,
1553,1,SBT2050,2,3,,1,1437,3.44824,-2.7002,0,1032.728,29.2,
1553,1,SBT2050,2,3,,1,1441,3.44729,-2.6998,0,1035.728,29.2,
1553,1,SBT2050,2,3,,1,1445,3.445972,-2.6998,0,1038.728,29.2,
1553,1,SBT2050,2,3,,1,1449,3.44498,-2.6999,0,1041.728,29.2,
1553,1,SBT2050,2,3,,1,1453,3.44412,-2.7004,0,1044.728,29.2,
1553,1,SBT2050,2,3,,1,1457,3.44275,-2.6997,0,1047.728,29.2,
1553,1,SBT2050,2,3,,1,1461,3.44153,-2.7,0,1050.728,29.2,
1553,1,SBT2050,2,3,,1,1465,3.44074,-2.6999,0,1053.728,29.2,
1553,1,SBT2050,2,3,,1,1469,3.43951,-2.7002,0,1056.728,29.2,
1553,1,SBT2050,2,3,,1,1473,3.43869,-2.6999,0,1059.728,29.2,
1553,1,SBT2050,2,3,,1,1477,3.43731,-2.6998,0,1062.728,29.2,
1553,1,SBT2050,2,3,,1,1481,3.43619,-2.7001,0,1065.727,29.2,
1553,1,SBT2050,2,3,,1,1485,3.43516,-2.6996,0,1068.727,29.2,
1553,1,SBT2050,2,3,,1,1489,3.434302,-2.7,0,1071.727,29.2,
1553,1,SBT2050,2,3,,1,1493,3.43272,-2.7,0,1074.727,29.2,
1553,1,SBT2050,2,3,,1,1497,3.431818,-2.7002,0,1077.727,29.2,
1553,1,SBT2050,2,3,,1,1501,3.43077,-2.7,0,1080.727,29.2,
1553,1,SBT2050,2,3,,1,1505,3.42964,-2.7003,0,1083.727,29.2,
1553,1,SBT2050,2,3,,1,1509,3.42861,-2.7,0,1086.727,29.2,
1553,1,SBT2050,2,3,,1,1513,3.42755,-2.6996,0,1089.727,29.2,
1553,1,SBT2050,2,3,,1,1517,3.42643,-2.6999,0,1092.727,29.2,
1553,1,SBT2050,2,3,,1,1521,3.425346,-2.6999,0,1095.727,29.2,
1553,1,SBT2050,2,3,,1,1525,3.42439,-2.7002,0,1098.727,29.2,
1553,1,SBT2050,2,3,,1,1529,3.42337,-2.6998,0,1101.727,29.2,
1553,1,SBT2050,2,3,,1,1533,3.42209,-2.7,0,1104.727,29.2,
1553,1,SBT2050,2,3,,1,1537,3.421002,-2.7003,0,1107.727,29.2,
1553,1,SBT2050,2,3,,1,1541,3.420132,-2.6998,0,1110.727,29.2,
1553,1,SBT2050,2,3,,1,1545,3.41898,-2.7,0,1113.727,29.2,
1553,1,SBT2050,2,3,,1,1549,3.41797,-2.7,0,1116.727,29.2,
1553,1,SBT2050,2,3,,1,1553,3.416848,-2.7,0,1119.726,29.2,
1553,1,SBT2050,2,3,,1,1557,3.415814,-2.6999,0,1122.726,29.2,
1553,1,SBT2050,2,3,,1,1561,3.4145,-2.7002,0,1125.726,29.2,
1553,1,SBT2050,2,3,,1,1565,3.41355,-2.6997,0,1128.726,29.2,
1553,1,SBT2050,2,3,,1,1569,3.412412,-2.7,0,1131.726,29.2,
1553,1,SBT2050,2,3,,1,1573,3.41131,-2.6998,0,1134.726,29.2,
1553,1,SBT2050,2,3,,1,1577,3.410104,-2.7003,0,1137.726,29.2,
1553,1,SBT2050,2,3,,1,1581,3.409162,-2.7002,0,1140.726,29.2,
1553,1,SBT2050,2,3,,1,1585,3.40818,-2.7005,0,1143.726,29.2,
1553,1,SBT2050,2,3,,1,1589,3.407012,-2.7002,0,1146.726,29.2,
1553,1,SBT2050,2,3,,1,1593,3.40601,-2.6996,0,1149.726,29.2,
1553,1,SBT2050,2,3,,1,1597,3.404722,-2.7,0,1152.726,29.2,
1553,1,SBT2050,2,3,,1,1601,3.40367,-2.7,0,1155.726,29.2,
1553,1,SBT2050,2,3,,1,1605,3.40271,-2.6997,0,1158.726,29.2,
1553,1,SBT2050,2,3,,1,1609,3.40161,-2.6999,0,1161.726,29.2,
1553,1,SBT2050,2,3,,1,1613,3.400528,-2.6999,0,1164.726,29.2,
1553,1,SBT2050,2,3,,1,1617,3.39962,-2.7002,0,1167.726,29.2,
1553,1,SBT2050,2,3,,1,1621,3.39845,-2.7005,0,1170.725,29.2,
1553,1,SBT2050,2,3,,1,1625,3.39741,-2.6997,0,1173.725,29.2,
1553,1,SBT2050,2,3,,1,1629,3.39636,-2.6997,0,1176.725,29.2,
1553,1,SBT2050,2,3,,1,1633,3.39517,-2.6997,0,1179.725,29.2,
1553,1,SBT2050,2,3,,1,1637,3.39411,-2.7003,0,1182.725,29.2,
1553,1,SBT2050,2,3,,1,1641,3.39306,-2.7002,0,1185.725,29.2,
1553,1,SBT2050,2,3,,1,1645,3.39184,-2.7,0,1188.725,29.2,
1553,1,SBT2050,2,3,,1,1649,3.39075,-2.6999,0,1191.725,29.3,
1553,1,SBT2050,2,3,,1,1653,3.3898,-2.7003,0,1194.725,29.2,
1553,1,SBT2050,2,3,,1,1657,3.38861,-2.6998,0,1197.725,29.2,
1553,1,SBT2050,2,3,,1,1661,3.38758,-2.6999,0,1200.725,29.2,
1553,1,SBT2050,2,3,,1,1665,3.38634,-2.6997,0,1203.725,29.3,
1553,1,SBT2050,2,3,,1,1669,3.3856,-2.6991,0,1206.725,29.3,
1553,1,SBT2050,2,3,,1,1673,3.38437,-2.6999,0,1209.725,29.3,
1553,1,SBT2050,2,3,,1,1677,3.38335,-2.6999,0,1212.725,29.2,
1553,1,SBT2050,2,3,,1,1681,3.38231,-2.7001,0,1215.725,29.3,
1553,1,SBT2050,2,3,,1,1685,3.38101,-2.6999,0,1218.724,29.3,
1553,1,SBT2050,2,3,,1,1689,3.38014,-2.6999,0,1221.724,29.3,
1553,1,SBT2050,2,3,,1,1693,3.37881,-2.6997,0,1224.724,29.3,
1553,1,SBT2050,2,3,,1,1697,3.37792,-2.7002,0,1227.724,29.2,
1553,1,SBT2050,2,3,,1,1701,3.37682,-2.6997,0,1230.724,29.2,
1553,1,SBT2050,2,3,,1,1705,3.37591,-2.7,0,1233.724,29.3,
1553,1,SBT2050,2,3,,1,1709,3.374842,-2.6996,0,1236.724,29.3,
1553,1,SBT2050,2,3,,1,1713,3.373594,-2.7002,0,1239.724,29.3,
1553,1,SBT2050,2,3,,1,1717,3.37275,-2.7,0,1242.724,29.3,
1553,1,SBT2050,2,3,,1,1721,3.37179,-2.6999,0,1245.724,29.3,
1553,1,SBT2050,2,3,,1,1725,3.37047,-2.7,0,1248.724,29.3,
1553,1,SBT2050,2,3,,1,1729,3.36952,-2.7,0,1251.724,29.3,
1553,1,SBT2050,2,3,,1,1733,3.36858,-2.6994,0,1254.724,29.3,
1553,1,SBT2050,2,3,,1,1737,3.36716,-2.6997,0,1257.724,29.3,
1553,1,SBT2050,2,3,,1,1741,3.36619,-2.6999,0,1260.724,29.3,
1553,1,SBT2050,2,3,,1,1745,3.36514,-2.6996,0,1263.724,29.3,
1553,1,SBT2050,2,3,,1,1749,3.364,-2.7001,0,1266.724,29.3,
1553,1,SBT2050,2,3,,1,1753,3.36299,-2.7,0,1269.724,29.3,
1553,1,SBT2050,2,3,,1,1757,3.36199,-2.7,0,1272.724,29.3,
1553,1,SBT2050,2,3,,1,1761,3.36084,-2.7,0,1275.724,29.3,
1553,1,SBT2050,2,3,,1,1765,3.35984,-2.6998,0,1278.724,29.3,
1553,1,SBT2050,2,3,,1,1769,3.35879,-2.7001,0,1281.723,29.3,
1553,1,SBT2050,2,3,,1,1773,3.357688,-2.6997,0,1284.723,29.3,
1553,1,SBT2050,2,3,,1,1777,3.35669,-2.7,0,1287.723,29.3,
1553,1,SBT2050,2,3,,1,1781,3.35544,-2.6999,0,1290.723,29.3,
1553,1,SBT2050,2,3,,1,1785,3.354259,-2.7,0,1293.723,29.3,
1553,1,SBT2050,2,3,,1,1789,3.35326,-2.6999,0,1296.723,29.3,
1553,1,SBT2050,2,3,,1,1793,3.35222,-2.7,0,1299.723,29.3,
1553,1,SBT2050,2,3,,1,1797,3.35123,-2.6999,0,1302.723,29.3,
1553,1,SBT2050,2,3,,1,1801,3.34977,-2.7003,0,1305.723,29.3,
1553,1,SBT2050,2,3,,1,1805,3.34891,-2.6997,0,1308.723,29.3,
1553,1,SBT2050,2,3,,1,1809,3.34761,-2.6999,0,1311.723,29.3,
1553,1,SBT2050,2,3,,1,1813,3.34664,-2.6999,0,1314.723,29.3,
1553,1,SBT2050,2,3,,1,1817,3.34566,-2.6999,0,1317.723,29.3,
1553,1,SBT2050,2,3,,1,1821,3.34435,-2.6999,0,1320.723,29.3,
1553,1,SBT2050,2,3,,1,1825,3.343188,-2.6994,0,1323.723,29.3,
1553,1,SBT2050,2,3,,1,1829,3.342019,-2.6997,0,1326.723,29.3,
1553,1,SBT2050,2,3,,1,1833,3.34102,-2.7,0,1329.723,29.3,
1553,1,SBT2050,2,3,,1,1837,3.33998,-2.7002,0,1332.723,29.4,
1553,1,SBT2050,2,3,,1,1841,3.33912,-2.6999,0,1335.723,29.3,
1553,1,SBT2050,2,3,,1,1845,3.33801,-2.7001,0,1338.723,29.4,
1553,1,SBT2050,2,3,,1,1849,3.3367,-2.7003,0,1341.722,29.4,
1553,1,SBT2050,2,3,,1,1853,3.33571,-2.7,0,1344.722,29.4,
1553,1,SBT2050,2,3,,1,1857,3.33438,-2.6997,0,1347.722,29.4,
1553,1,SBT2050,2,3,,1,1861,3.33305,-2.6999,0,1350.722,29.4,
1553,1,SBT2050,2,3,,1,1865,3.33227,-2.6999,0,1353.722,29.4,
1553,1,SBT2050,2,3,,1,1869,3.330945,-2.6997,0,1356.722,29.4,
1553,1,SBT2050,2,3,,1,1873,3.33002,-2.7,0,1359.722,29.4,
1553,1,SBT2050,2,3,,1,1877,3.32873,-2.6999,0,1362.722,29.3,
1553,1,SBT2050,2,3,,1,1881,3.3278,-2.7001,0,1365.722,29.3,
1553,1,SBT2050,2,3,,1,1885,3.32653,-2.6999,0,1368.722,29.4,
1553,1,SBT2050,2,3,,1,1889,3.325363,-2.6998,0,1371.722,29.4,
1553,1,SBT2050,2,3,,1,1893,3.32448,-2.7004,0,1374.722,29.4,
1553,1,SBT2050,2,3,,1,1897,3.32308,-2.6997,0,1377.722,29.4,
1553,1,SBT2050,2,3,,1,1901,3.3222,-2.6997,0,1380.722,29.4,
1553,1,SBT2050,2,3,,1,1905,3.32083,-2.7002,0,1383.722,29.4,
1553,1,SBT2050,2,3,,1,1909,3.31981,-2.6997,0,1386.722,29.4,
1553,1,SBT2050,2,3,,1,1913,3.31841,-2.6997,0,1389.722,29.4,
1553,1,SBT2050,2,3,,1,1917,3.31736,-2.7003,0,1392.722,29.4,
1553,1,SBT2050,2,3,,1,1921,3.31647,-2.6997,0,1395.722,29.4,
1553,1,SBT2050,2,3,,1,1925,3.31519,-2.6999,0,1398.721,29.4,
1553,1,SBT2050,2,3,,1,1929,3.31408,-2.6998,0,1401.721,29.4,
1553,1,SBT2050,2,3,,1,1933,3.31312,-2.6999,0,1404.721,29.4,
1553,1,SBT2050,2,3,,1,1937,3.31146,-2.7001,0,1407.721,29.4,
1553,1,SBT2050,2,3,,1,1941,3.31029,-2.6999,0,1410.721,29.4,
1553,1,SBT2050,2,3,,1,1945,3.3093,-2.6995,0,1413.721,29.4,
1553,1,SBT2050,2,3,,1,1949,3.30778,-2.6999,0,1416.721,29.5,
1553,1,SBT2050,2,3,,1,1953,3.30682,-2.7002,0,1419.721,29.5,
1553,1,SBT2050,2,3,,1,1957,3.30577,-2.6999,0,1422.721,29.5,
1553,1,SBT2050,2,3,,1,1961,3.30465,-2.7001,0,1425.721,29.5,
1553,1,SBT2050,2,3,,1,1965,3.30344,-2.7001,0,1428.721,29.5,
1553,1,SBT2050,2,3,,1,1969,3.30234,-2.6999,0,1431.721,29.5,
1553,1,SBT2050,2,3,,1,1973,3.30122,-2.6996,0,1434.721,29.5,
1553,1,SBT2050,2,3,,1,1977,3.299957,-2.6999,0,1437.721,29.5,
1553,1,SBT2050,2,3,,1,1981,3.29868,-2.6999,0,1440.721,29.5,
1553,1,SBT2050,2,3,,1,1985,3.29745,-2.6999,0,1443.72,29.5,
1553,1,SBT2050,2,3,,1,1989,3.29645,-2.7002,0,1446.72,29.5,
1553,1,SBT2050,2,3,,1,1993,3.29532,-2.7002,0,1449.72,29.5,
1553,1,SBT2050,2,3,,1,1997,3.29395,-2.7004,0,1452.72,29.5,
1553,1,SBT2050,2,3,,1,2001,3.29271,-2.6998,0,1455.72,29.5,
1553,1,SBT2050,2,3,,1,2005,3.29145,-2.6999,0,1458.72,29.5,
1553,1,SBT2050,2,3,,1,2009,3.290575,-2.7002,0,1461.72,29.6,
1553,1,SBT2050,2,3,,1,2013,3.28913,-2.7001,0,1464.72,29.5,
1553,1,SBT2050,2,3,,1,2017,3.28808,-2.7001,0,1467.72,29.6,
1553,1,SBT2050,2,3,,1,2021,3.286619,-2.7004,0,1470.72,29.6,
1553,1,SBT2050,2,3,,1,2025,3.28558,-2.6999,0,1473.72,29.6,
1553,1,SBT2050,2,3,,1,2029,3.2844,-2.6999,0,1476.72,29.6,
1553,1,SBT2050,2,3,,1,2033,3.28315,-2.6999,0,1479.72,29.6,
1553,1,SBT2050,2,3,,1,2037,3.28191,-2.6996,0,1482.72,29.6,
1553,1,SBT2050,2,3,,1,2041,3.2807,-2.6998,0,1485.719,29.6,
1553,1,SBT2050,2,3,,1,2045,3.27953,-2.6999,0,1488.719,29.6,
1553,1,SBT2050,2,3,,1,2049,3.2783,-2.6998,0,1491.719,29.6,
1553,1,SBT2050,2,3,,1,2053,3.27702,-2.7001,0,1494.719,29.6,
1553,1,SBT2050,2,3,,1,2057,3.27596,-2.6999,0,1497.719,29.6,
1553,1,SBT2050,2,3,,1,2061,3.2743,-2.6998,0,1500.719,29.6,
1553,1,SBT2050,2,3,,1,2065,3.27341,-2.7002,0,1503.719,29.6,
1553,1,SBT2050,2,3,,1,2069,3.27221,-2.7002,0,1506.719,29.6,
1553,1,SBT2050,2,3,,1,2073,3.27079,-2.7003,0,1509.719,29.6,
1553,1,SBT2050,2,3,,1,2077,3.26965,-2.6999,0,1512.719,29.6,
1553,1,SBT2050,2,3,,1,2081,3.268389,-2.6997,0,1515.719,29.6,
1553,1,SBT2050,2,3,,1,2085,3.2672,-2.7,0,1518.719,29.7,
1553,1,SBT2050,2,3,,1,2089,3.265918,-2.6996,0,1521.719,29.7,
1553,1,SBT2050,2,3,,1,2093,3.26446,-2.7,0,1524.719,29.7,
1553,1,SBT2050,2,3,,1,2097,3.26344,-2.7,0,1527.719,29.7,
1553,1,SBT2050,2,3,,1,2101,3.26183,-2.6999,0,1530.719,29.7,
1553,1,SBT2050,2,3,,1,2105,3.26067,-2.6999,0,1533.719,29.7,
1553,1,SBT2050,2,3,,1,2109,3.259347,-2.7003,0,1536.718,29.7,
1553,1,SBT2050,2,3,,1,2113,3.25847,-2.6996,0,1539.718,29.7,
1553,1,SBT2050,2,3,,1,2117,3.25689,-2.7006,0,1542.718,29.7,
1553,1,SBT2050,2,3,,1,2121,3.25565,-2.6999,0,1545.718,29.7,
1553,1,SBT2050,2,3,,1,2125,3.25443,-2.6998,0,1548.718,29.7,
1553,1,SBT2050,2,3,,1,2129,3.25304,-2.6998,0,1551.718,29.7,
1553,1,SBT2050,2,3,,1,2133,3.25173,-2.7005,0,1554.718,29.7,
1553,1,SBT2050,2,3,,1,2137,3.25017,-2.6998,0,1557.718,29.7,
1553,1,SBT2050,2,3,,1,2141,3.249155,-2.7001,0,1560.718,29.7,
1553,1,SBT2050,2,3,,1,2145,3.24771,-2.7002,0,1563.718,29.7,
1553,1,SBT2050,2,3,,1,2149,3.24644,-2.7002,0,1566.718,29.7,
1553,1,SBT2050,2,3,,1,2153,3.24521,-2.7002,0,1569.718,29.7,
1553,1,SBT2050,2,3,,1,2157,3.24379,-2.7001,0,1572.718,29.7,
1553,1,SBT2050,2,3,,1,2161,3.24236,-2.6998,0,1575.718,29.8,
1553,1,SBT2050,2,3,,1,2165,3.241315,-2.6996,0,1578.718,29.7,
1553,1,SBT2050,2,3,,1,2169,3.23976,-2.7001,0,1581.718,29.7,
1553,1,SBT2050,2,3,,1,2173,3.23828,-2.6998,0,1584.717,29.8,
1553,1,SBT2050,2,3,,1,2177,3.23695,-2.7001,0,1587.717,29.8,
1553,1,SBT2050,2,3,,1,2181,3.23564,-2.6996,0,1590.717,29.8,
1553,1,SBT2050,2,3,,1,2185,3.234153,-2.7001,0,1593.717,29.8,
1553,1,SBT2050,2,3,,1,2189,3.23279,-2.7001,0,1596.717,29.8,
1553,1,SBT2050,2,3,,1,2193,3.23137,-2.7002,0,1599.717,29.8,
1553,1,SBT2050,2,3,,1,2197,3.22982,-2.7002,0,1602.717,29.8,
1553,1,SBT2050,2,3,,1,2201,3.228843,-2.7002,0,1605.717,29.8,
1553,1,SBT2050,2,3,,1,2205,3.227407,-2.7005,0,1608.717,29.8,
1553,1,SBT2050,2,3,,1,2209,3.22597,-2.7,0,1611.717,29.8,
1553,1,SBT2050,2,3,,1,2213,3.22467,-2.6997,0,1614.717,29.8,
1553,1,SBT2050,2,3,,1,2217,3.22299,-2.7002,0,1617.717,29.8,
1553,1,SBT2050,2,3,,1,2221,3.22144,-2.6997,0,1620.717,29.8,
1553,1,SBT2050,2,3,,1,2225,3.22014,-2.6999,0,1623.717,29.9,
1553,1,SBT2050,2,3,,1,2229,3.21878,-2.6997,0,1626.717,29.9,
1553,1,SBT2050,2,3,,1,2233,3.21728,-2.6997,0,1629.717,29.9,
1553,1,SBT2050,2,3,,1,2237,3.21593,-2.6999,0,1632.716,29.9,
1553,1,SBT2050,2,3,,1,2241,3.21445,-2.6999,0,1635.716,29.9,
1553,1,SBT2050,2,3,,1,2245,3.213,-2.7,0,1638.716,29.9,
1553,1,SBT2050,2,3,,1,2249,3.2114,-2.7005,0,1641.716,30,
1553,1,SBT2050,2,3,,1,2253,3.210205,-2.6999,0,1644.716,30,
1553,1,SBT2050,2,3,,1,2257,3.20857,-2.6999,0,1647.716,29.9,
1553,1,SBT2050,2,3,,1,2261,3.20709,-2.6998,0,1650.716,30,
1553,1,SBT2050,2,3,,1,2265,3.20559,-2.6998,0,1653.716,30,
1553,1,SBT2050,2,3,,1,2269,3.20398,-2.7001,0,1656.716,30,
1553,1,SBT2050,2,3,,1,2273,3.2026,-2.6998,0,1659.716,30,
1553,1,SBT2050,2,3,,1,2277,3.20125,-2.6999,0,1662.716,30,
1553,1,SBT2050,2,3,,1,2281,3.19963,-2.6999,0,1665.716,30,
1553,1,SBT2050,2,3,,1,2285,3.19811,-2.6998,0,1668.716,30,
1553,1,SBT2050,2,3,,1,2289,3.19663,-2.6998,0,1671.716,30.1,
1553,1,SBT2050,2,3,,1,2293,3.195084,-2.7,0,1674.716,30.1,
1553,1,SBT2050,2,3,,1,2297,3.193612,-2.6999,0,1677.715,30.1,
1553,1,SBT2050,2,3,,1,2301,3.19204,-2.6995,0,1680.715,30.1,
1553,1,SBT2050,2,3,,1,2305,3.19033,-2.7003,0,1683.715,30.1,
1553,1,SBT2050,2,3,,1,2309,3.18897,-2.6998,0,1686.715,30.1,
1553,1,SBT2050,2,3,,1,2313,3.1873,-2.7003,0,1689.715,30.1,
1553,1,SBT2050,2,3,,1,2317,3.185652,-2.6998,0,1692.715,30.1,
1553,1,SBT2050,2,3,,1,2321,3.184035,-2.6998,0,1695.715,30.1,
1553,1,SBT2050,2,3,,1,2325,3.18233,-2.6999,0,1698.715,30.1,
1553,1,SBT2050,2,3,,1,2329,3.18079,-2.7001,0,1701.715,30.1,
1553,1,SBT2050,2,3,,1,2333,3.17922,-2.7002,0,1704.715,30.1,
1553,1,SBT2050,2,3,,1,2337,3.17758,-2.6996,0,1707.715,30.2,
1553,1,SBT2050,2,3,,1,2341,3.17583,-2.7001,0,1710.715,30.2,
1553,1,SBT2050,2,3,,1,2345,3.17421,-2.6999,0,1713.715,30.2,
1553,1,SBT2050,2,3,,1,2349,3.17267,-2.6998,0,1716.715,30.2,
1553,1,SBT2050,2,3,,1,2353,3.17079,-2.6997,0,1719.714,30.2,
1553,1,SBT2050,2,3,,1,2357,3.16928,-2.7,0,1722.714,30.2,
1553,1,SBT2050,2,3,,1,2361,3.16767,-2.7,0,1725.714,30.2,
1553,1,SBT2050,2,3,,1,2365,3.165797,-2.7002,0,1728.714,30.2,
1553,1,SBT2050,2,3,,1,2369,3.164284,-2.6993,0,1731.714,30.2,
1553,1,SBT2050,2,3,,1,2373,3.16228,-2.7002,0,1734.714,30.3,
1553,1,SBT2050,2,3,,1,2377,3.16075,-2.6999,0,1737.714,30.3,
1553,1,SBT2050,2,3,,1,2381,3.15884,-2.6999,0,1740.714,30.3,
1553,1,SBT2050,2,3,,1,2385,3.157448,-2.7002,0,1743.714,30.3,
1553,1,SBT2050,2,3,,1,2389,3.155591,-2.7,0,1746.714,30.3,
1553,1,SBT2050,2,3,,1,2393,3.15377,-2.6999,0,1749.714,30.3,
1553,1,SBT2050,2,3,,1,2397,3.151922,-2.7001,0,1752.714,30.3,
1553,1,SBT2050,2,3,,1,2401,3.14991,-2.7001,0,1755.714,30.3,
1553,1,SBT2050,2,3,,1,2405,3.14838,-2.7001,0,1758.714,30.3,
1553,1,SBT2050,2,3,,1,2409,3.14648,-2.6995,0,1761.714,30.3,
1553,1,SBT2050,2,3,,1,2413,3.14448,-2.6999,0,1764.714,30.3,
1553,1,SBT2050,2,3,,1,2417,3.142996,-2.7001,0,1767.713,30.3,
1553,1,SBT2050,2,3,,1,2421,3.14091,-2.7001,0,1770.713,30.4,
1553,1,SBT2050,2,3,,1,2425,3.13908,-2.7001,0,1773.713,30.4,
1553,1,SBT2050,2,3,,1,2429,3.137234,-2.7002,0,1776.713,30.4,
1553,1,SBT2050,2,3,,1,2433,3.135351,-2.6998,0,1779.713,30.4,
1553,1,SBT2050,2,3,,1,2437,3.13346,-2.7001,0,1782.713,30.4,
1553,1,SBT2050,2,3,,1,2441,3.13151,-2.6996,0,1785.713,30.4,
1553,1,SBT2050,2,3,,1,2445,3.12966,-2.6996,0,1788.713,30.4,
1553,1,SBT2050,2,3,,1,2449,3.12771,-2.7001,0,1791.713,30.4,
1553,1,SBT2050,2,3,,1,2453,3.12603,-2.6999,0,1794.713,30.4,
1553,1,SBT2050,2,3,,1,2457,3.12425,-2.6998,0,1797.713,30.5,
1553,1,SBT2050,2,3,,1,2461,3.12209,-2.7002,0,1800.713,30.5,
1553,1,SBT2050,2,3,,1,2465,3.11991,-2.6999,0,1803.713,30.5,
1553,1,SBT2050,2,3,,1,2469,3.11809,-2.6998,0,1806.713,30.5,
1553,1,SBT2050,2,3,,1,2473,3.11607,-2.6999,0,1809.712,30.5,
1553,1,SBT2050,2,3,,1,2477,3.11391,-2.7001,0,1812.712,30.5,
1553,1,SBT2050,2,3,,1,2481,3.11223,-2.7,0,1815.712,30.5,
1553,1,SBT2050,2,3,,1,2485,3.11012,-2.6996,0,1818.712,30.5,
1553,1,SBT2050,2,3,,1,2489,3.10795,-2.6998,0,1821.712,30.5,
1553,1,SBT2050,2,3,,1,2493,3.10595,-2.7002,0,1824.712,30.6,
1553,1,SBT2050,2,3,,1,2497,3.10381,-2.6998,0,1827.712,30.6,
1553,1,SBT2050,2,3,,1,2501,3.10204,-2.6999,0,1830.712,30.6,
1553,1,SBT2050,2,3,,1,2505,3.099844,-2.6999,0,1833.712,30.6,
1553,1,SBT2050,2,3,,1,2509,3.0978,-2.6999,0,1836.712,30.6,
1553,1,SBT2050,2,3,,1,2513,3.095598,-2.6998,0,1839.712,30.6,
1553,1,SBT2050,2,3,,1,2517,3.0933,-2.7004,0,1842.712,30.7,
1553,1,SBT2050,2,3,,1,2521,3.09132,-2.7002,0,1845.712,30.7,
1553,1,SBT2050,2,3,,1,2525,3.08921,-2.7,0,1848.712,30.7,
1553,1,SBT2050,2,3,,1,2529,3.08727,-2.6996,0,1851.711,30.7,
1553,1,SBT2050,2,3,,1,2533,3.08483,-2.7001,0,1854.711,30.7,
1553,1,SBT2050,2,3,,1,2537,3.08249,-2.7,0,1857.711,30.7,
1553,1,SBT2050,2,3,,1,2541,3.080512,-2.7001,0,1860.711,30.8,
1553,1,SBT2050,2,3,,1,2545,3.07816,-2.6998,0,1863.711,30.7,
1553,1,SBT2050,2,3,,1,2549,3.07585,-2.7003,0,1866.711,30.8,
1553,1,SBT2050,2,3,,1,2553,3.07346,-2.6999,0,1869.711,30.8,
1553,1,SBT2050,2,3,,1,2557,3.07134,-2.7001,0,1872.711,30.8,
1553,1,SBT2050,2,3,,1,2561,3.06895,-2.7,0,1875.711,30.8,
1553,1,SBT2050,2,3,,1,2565,3.06673,-2.7003,0,1878.711,30.8,
1553,1,SBT2050,2,3,,1,2569,3.064374,-2.6998,0,1881.711,30.8,
1553,1,SBT2050,2,3,,1,2573,3.06217,-2.6999,0,1884.711,30.9,
1553,1,SBT2050,2,3,,1,2577,3.05956,-2.6993,0,1887.711,30.9,
1553,1,SBT2050,2,3,,1,2581,3.05707,-2.6997,0,1890.711,30.9,
1553,1,SBT2050,2,3,,1,2585,3.05484,-2.6998,0,1893.711,30.9,
1553,1,SBT2050,2,3,,1,2589,3.05255,-2.7,0,1896.711,30.9,
1553,1,SBT2050,2,3,,1,2593,3.049983,-2.6996,0,1899.71,30.9,
1553,1,SBT2050,2,3,,1,2597,3.047528,-2.6999,0,1902.71,31,
1553,1,SBT2050,2,3,,1,2601,3.04517,-2.6999,0,1905.71,31,
1553,1,SBT2050,2,3,,1,2605,3.042674,-2.6999,0,1908.71,31,
1553,1,SBT2050,2,3,,1,2609,3.040195,-2.6996,0,1911.71,31,
1553,1,SBT2050,2,3,,1,2613,3.03743,-2.6992,0,1914.71,31,
1553,1,SBT2050,2,3,,1,2617,3.03491,-2.6998,0,1917.71,31,
1553,1,SBT2050,2,3,,1,2621,3.03236,-2.6999,0,1920.71,31.1,
1553,1,SBT2050,2,3,,1,2625,3.0299,-2.7001,0,1923.71,31.1,
1553,1,SBT2050,2,3,,1,2629,3.02712,-2.6999,0,1926.71,31.1,
1553,1,SBT2050,2,3,,1,2633,3.02469,-2.6999,0,1929.71,31.1,
1553,1,SBT2050,2,3,,1,2637,3.02202,-2.7001,0,1932.71,31.1,
1553,1,SBT2050,2,3,,1,2641,3.01912,-2.6999,0,1935.71,31.1,
1553,1,SBT2050,2,3,,1,2645,3.016357,-2.7,0,1938.71,31.2,
1553,1,SBT2050,2,3,,1,2649,3.0137,-2.6996,0,1941.71,31.2,
1553,1,SBT2050,2,3,,1,2653,3.01091,-2.7,0,1944.709,31.2,
1553,1,SBT2050,2,3,,1,2657,3.00825,-2.7001,0,1947.709,31.2,
1553,1,SBT2050,2,3,,1,2661,3.00561,-2.6999,0,1950.709,31.3,
1553,1,SBT2050,2,3,,1,2665,3.00275,-2.7001,0,1953.709,31.2,
1553,1,SBT2050,2,3,,1,2669,2.99979,-2.7001,0,1956.709,31.3,
1553,1,SBT2050,2,3,,1,2673,2.99705,-2.6998,0,1959.709,31.3,
1553,1,SBT2050,2,3,,1,2677,2.99408,-2.6996,0,1962.709,31.3,
1553,1,SBT2050,2,3,,1,2681,2.99116,-2.7002,0,1965.709,31.3,
1553,1,SBT2050,2,3,,1,2685,2.98852,-2.6998,0,1968.709,31.4,
1553,1,SBT2050,2,3,,1,2689,2.98521,-2.6996,0,1971.709,31.4,
1553,1,SBT2050,2,3,,1,2693,2.982282,-2.6999,0,1974.709,31.4,
1553,1,SBT2050,2,3,,1,2697,2.97931,-2.6996,0,1977.709,31.4,
1553,1,SBT2050,2,3,,1,2701,2.97631,-2.6998,0,1980.709,31.4,
1553,1,SBT2050,2,3,,1,2705,2.9729,-2.6999,0,1983.709,31.5,
1553,1,SBT2050,2,3,,1,2709,2.96997,-2.6996,0,1986.708,31.5,
1553,1,SBT2050,2,3,,1,2713,2.96688,-2.6996,0,1989.708,31.5,
1553,1,SBT2050,2,3,,1,2717,2.96384,-2.6999,0,1992.708,31.5,
1553,1,SBT2050,2,3,,1,2721,2.960442,-2.6996,0,1995.708,31.6,
1553,1,SBT2050,2,3,,1,2725,2.95735,-2.6999,0,1998.708,31.6,
1553,1,SBT2050,2,3,,1,2729,2.95399,-2.6999,0,2001.708,31.6,
1553,1,SBT2050,2,3,,1,2733,2.95063,-2.7002,0,2004.708,31.6,
1553,1,SBT2050,2,3,,1,2737,2.94724,-2.6999,0,2007.708,31.6,
1553,1,SBT2050,2,3,,1,2741,2.9439,-2.6995,0,2010.708,31.7,
1553,1,SBT2050,2,3,,1,2745,2.94035,-2.6999,0,2013.708,31.7,
1553,1,SBT2050,2,3,,1,2749,2.93665,-2.6996,0,2016.708,31.7,
1553,1,SBT2050,2,3,,1,2753,2.93319,-2.6999,0,2019.708,31.7,
1553,1,SBT2050,2,3,,1,2757,2.92969,-2.6999,0,2022.708,31.7,
1553,1,SBT2050,2,3,,1,2761,2.92605,-2.7001,0,2025.708,31.7,
1553,1,SBT2050,2,3,,1,2765,2.92222,-2.6998,0,2028.708,31.8,
1553,1,SBT2050,2,3,,1,2769,2.91866,-2.7002,0,2031.707,31.8,
1553,1,SBT2050,2,3,,1,2773,2.91479,-2.6999,0,2034.707,31.8,
1553,1,SBT2050,2,3,,1,2777,2.91082,-2.7002,0,2037.707,31.9,
1553,1,SBT2050,2,3,,1,2781,2.90701,-2.6999,0,2040.707,31.9,
1553,1,SBT2050,2,3,,1,2785,2.903046,-2.7005,0,2043.707,31.9,
1553,1,SBT2050,2,3,,1,2789,2.89894,-2.7005,0,2046.707,31.9,
1553,1,SBT2050,2,3,,1,2793,2.89493,-2.6996,0,2049.707,32,
1553,1,SBT2050,2,3,,1,2797,2.89104,-2.6996,0,2052.707,32,
1553,1,SBT2050,2,3,,1,2801,2.88671,-2.7,0,2055.707,32,
1553,1,SBT2050,2,3,,1,2805,2.88252,-2.6999,0,2058.707,32,
1553,1,SBT2050,2,3,,1,2809,2.87819,-2.7,0,2061.707,32,
1553,1,SBT2050,2,3,,1,2813,2.87365,-2.6999,0,2064.707,32.1,
1553,1,SBT2050,2,3,,1,2817,2.869351,-2.7003,0,2067.707,32.1,
1553,1,SBT2050,2,3,,1,2821,2.86483,-2.7,0,2070.707,32.1,
1553,1,SBT2050,2,3,,1,2825,2.86026,-2.7,0,2073.706,32.2,
1553,1,SBT2050,2,3,,1,2829,2.85575,-2.6999,0,2076.706,32.2,
1553,1,SBT2050,2,3,,1,2833,2.850936,-2.6996,0,2079.706,32.3,
1553,1,SBT2050,2,3,,1,2837,2.84623,-2.7003,0,2082.706,32.3,
1553,1,SBT2050,2,3,,1,2841,2.8414,-2.7002,0,2085.706,32.3,
1553,1,SBT2050,2,3,,1,2845,2.83628,-2.7002,0,2088.706,32.3,
1553,1,SBT2050,2,3,,1,2849,2.83124,-2.6999,0,2091.706,32.4,
1553,1,SBT2050,2,3,,1,2853,2.82614,-2.6998,0,2094.706,32.4,
1553,1,SBT2050,2,3,,1,2857,2.82055,-2.7001,0,2097.706,32.5,
1553,1,SBT2050,2,3,,1,2861,2.81535,-2.6999,0,2100.706,32.5,
1553,1,SBT2050,2,3,,1,2865,2.80977,-2.7002,0,2103.706,32.5,
1553,1,SBT2050,2,3,,1,2869,2.804322,-2.6999,0,2106.706,32.5,
1553,1,SBT2050,2,3,,1,2873,2.79865,-2.6999,0,2109.706,32.6,
1553,1,SBT2050,2,3,,1,2877,2.79294,-2.6995,0,2112.706,32.6,
1553,1,SBT2050,2,3,,1,2881,2.78712,-2.7001,0,2115.706,32.6,
1553,1,SBT2050,2,3,,1,2885,2.78106,-2.6999,0,2118.706,32.7,
1553,1,SBT2050,2,3,,1,2889,2.77512,-2.6997,0,2121.706,32.7,
1553,1,SBT2050,2,3,,1,2893,2.76891,-2.6999,0,2124.706,32.8,
1553,1,SBT2050,2,3,,1,2897,2.762547,-2.6999,0,2127.705,32.8,
1553,1,SBT2050,2,3,,1,2901,2.756213,-2.7003,0,2130.705,32.9,
1553,1,SBT2050,2,3,,1,2905,2.74984,-2.7003,0,2133.705,32.9,
1553,1,SBT2050,2,3,,1,2909,2.74323,-2.6999,0,2136.705,32.9,
1553,1,SBT2050,2,3,,1,2913,2.736492,-2.6998,0,2139.705,32.9,
1553,1,SBT2050,2,3,,1,2917,2.72963,-2.7002,0,2142.705,33,
1553,1,SBT2050,2,3,,1,2921,2.7226,-2.6999,0,2145.705,33,
1553,1,SBT2050,2,3,,1,2925,2.71569,-2.6998,0,2148.705,33.1,
1553,1,SBT2050,2,3,,1,2929,2.70843,-2.6995,0,2151.705,33.1,
1553,1,SBT2050,2,3,,1,2933,2.70095,-2.6996,0,2154.705,33.2,
1553,1,SBT2050,2,3,,1,2937,2.693423,-2.6998,0,2157.705,33.2,
1553,1,SBT2050,2,3,,1,2941,2.68565,-2.6999,0,2160.705,33.3,
1553,1,SBT2050,2,3,,1,2945,2.6777,-2.6999,0,2163.705,33.3,
1553,1,SBT2050,2,3,,1,2949,2.6695,-2.7001,0,2166.705,33.3,
1553,1,SBT2050,2,3,,1,2953,2.66137,-2.7001,0,2169.705,33.4,
1553,1,SBT2050,2,3,,1,2957,2.652863,-2.7001,0,2172.705,33.4,
1553,1,SBT2050,2,3,,1,2961,2.6439,-2.6999,0,2175.704,33.5,
1553,1,SBT2050,2,3,,1,2965,2.63476,-2.6999,0,2178.704,33.5,
1553,1,SBT2050,2,3,,1,2969,2.62535,-2.7001,0,2181.704,33.6,
1553,1,SBT2050,2,3,,1,2973,2.61597,-2.6999,0,2184.704,33.7,
1553,1,SBT2050,2,3,,1,2977,2.60597,-2.7004,0,2187.704,33.7,
1553,1,SBT2050,2,3,,1,2981,2.59589,-2.7001,0,2190.704,33.7,
1553,1,SBT2050,2,3,,1,2985,2.58509,-2.6998,0,2193.704,33.8,
1553,1,SBT2050,2,3,,1,2989,2.574307,-2.7001,0,2196.704,33.9,
1553,1,SBT2050,2,3,,1,2993,2.56301,-2.7001,0,2199.704,34,
1553,1,SBT2050,2,3,,1,2997,2.55137,-2.7002,0,2202.704,34,
1553,1,SBT2050,2,3,,1,3001,2.53936,-2.7004,0,2205.704,34.1,
1553,1,SBT2050,2,3,,1,3005,2.5263,-2.7001,0,2208.704,34.2,
1553,1,SBT2050,2,3,,1,3009,2.51305,-2.6999,0,2211.704,34.2,
1553,1,SBT2050,2,3,,1,3012.774,2.5,-2.6996,0,2214.535,,
1553,1,SBT2050,2,3,,2,3016,2.9641,0,0,2214.535,34.3,
1553,1,SBT2050,2,3,,2,3020,3.088158,0,0,2214.535,34.4,
1553,1,SBT2050,2,3,,2,3024,3.1396,0,0,2214.535,34.3,
1553,1,SBT2050,2,3,,2,3028,3.17017,0,0,2214.535,34.3,
1553,1,SBT2050,2,3,,2,3032,3.1917,0,0,2214.535,34.2,
1553,1,SBT2050,2,3,,2,3036,3.20826,0,0,2214.535,34.1,
1553,1,SBT2050,2,3,,2,3040,3.221701,0,0,2214.535,34,
1553,1,SBT2050,2,3,,2,3044,3.2328,0,0,2214.535,33.9,
1553,1,SBT2050,2,3,,2,3048,3.24267,0,0,2214.535,33.7,
1553,1,SBT2050,2,3,,2,3052,3.25118,0,0,2214.535,33.6,
1553,1,SBT2050,2,3,,2,3056,3.25875,0,0,2214.535,33.5,
1553,1,SBT2050,2,3,,2,3060,3.26524,0,0,2214.535,33.4,
1553,1,SBT2050,2,3,,2,3064,3.27168,0,0,2214.535,33.3,
1553,1,SBT2050,2,3,,2,3068,3.27748,0,0,2214.535,33.2,
1553,1,SBT2050,2,3,,2,3072,3.28239,0,0,2214.535,33.1,
1553,1,SBT2050,2,3,,2,3072.774,3.28296,-9.9E-05,0,2214.535,,