File: ORRG/Test1579.csv
Request Year:,2018,,,,,,,,,,,,
Test:,1579,,,,,,,,,,,,
Test Description:,,,,,,,,,,,,,
TestRegime Name:,Dchg_1C,,,,,,,,,,,,
TestRegime Suffix:,SHP_LC,,,,,,,,,,,,
TestRegime CellSize:,18650,,,,,,,,,,,,
TestRegime Version:,1,,,,,,,,,,,,
Number Of Cells:,1,,,,,,,,,,,,
LotID:,,,,,,,,,,,,,
Lot Description:,,,,,,,,,,,,,
Date Made:,1/21/2003 12:00 AM,,,,,,,,,,,,
Origin:,Other,,,,,,,,,,,,
Requestor:,Admin,,,,,,,,,,,,
Product ID:,Default product,,,,,,,,,,,,
Storage Temp:,R.T./AMB,,,,,,,,,,,,
Storage Delay:,0 days,,,,,,,,,,,,
Test Temp:,R.T./AMB,,,,,,,,,,,,
Start Time:,4/28/2018 12:12 AM,,,,,,,,,,,,
End Time:,4/28/2018 1:02 AM,,,,,,,,,,,,
Operator Instructions:,,,,,,,,,,,,,
Test,Cell,Rack,Shelf,Position,Cell ID,Step,Total Time (Seconds),Voltage (V),Current (A),Charge Capacity (mAh),Discharge Capacity (mAh),TC1 (Â°C),
1579,1,SBT2050,2,3,,0,1,4.17219,0,0,0,28.2,
1579,1,SBT2050,2,3,,0,5,4.17128,0,0,0,28.2,
1579,1,SBT2050,2,3,,0,9,4.170354,0,0,0,28.2,
1579,1,SBT2050,2,3,,0,13,4.16933,0,0,0,28.2,
1579,1,SBT2050,2,3,,0,17,4.16819,0,0,0,28.2,
1579,1,SBT2050,2,3,,0,21,4.16751,0,0,0,28.1,
1579,1,SBT2050,2,3,,0,25,4.1665,0,0,0,28.1,
1579,1,SBT2050,2,3,,0,29,4.16551,0,0,0,28.1,
1579,1,SBT2050,2,3,,0,33,4.16457,0,0,0,28.1,
1579,1,SBT2050,2,3,,0,37,4.16384,0,0,0,28.1,
1579,1,SBT2050,2,3,,0,41,4.16315,0,0,0,28.1,
1579,1,SBT2050,2,3,,0,45,4.1623,0,0,0,28.1,
1579,1,SBT2050,2,3,,0,49,4.16158,0,0,0,28.1,
1579,1,SBT2050,2,3,,0,53,4.16099,0,0,0,28.1,
1579,1,SBT2050,2,3,,0,57,4.16034,0,0,0,28.1,
1579,1,SBT2050,2,3,,1,61,3.9469,-2.6998,0,0.749,28.1,
1579,1,SBT2050,2,3,,1,65,3.921,-2.6998,0,3.749,28.1,
1579,1,SBT2050,2,3,,1,69,3.90735,-2.7001,0,6.749,28.1,
1579,1,SBT2050,2,3,,1,73,3.8968,-2.6998,0,9.749,28.1,
1579,1,SBT2050,2,3,,1,77,3.88783,-2.7,0,12.748,28.1,
1579,1,SBT2050,2,3,,1,81,3.88016,-2.7001,0,15.748,28.2,
1579,1,SBT2050,2,3,,1,85,3.87334,-2.7004,0,18.748,28.2,
1579,1,SBT2050,2,3,,1,89,3.86732,-2.7001,0,21.748,28.3,
1579,1,SBT2050,2,3,,1,93,3.862,-2.6998,0,24.748,28.3,
1579,1,SBT2050,2,3,,1,97,3.856784,-2.7001,0,27.748,28.4,
1579,1,SBT2050,2,3,,1,101,3.85233,-2.7,0,30.748,28.4,
1579,1,SBT2050,2,3,,1,105,3.84832,-2.6998,0,33.748,28.5,
1579,1,SBT2050,2,3,,1,109,3.84406,-2.6994,0,36.748,28.5,
1579,1,SBT2050,2,3,,1,113,3.84018,-2.7,0,39.748,28.5,
1579,1,SBT2050,2,3,,1,117,3.83651,-2.6996,0,42.748,28.5,
1579,1,SBT2050,2,3,,1,121,3.83315,-2.7002,0,45.748,28.6,
1579,1,SBT2050,2,3,,1,125,3.83021,-2.6997,0,48.748,28.6,
1579,1,SBT2050,2,3,,1,129,3.82655,-2.7,0,51.748,28.6,
1579,1,SBT2050,2,3,,1,133,3.8237,-2.6999,0,54.748,28.6,
1579,1,SBT2050,2,3,,1,137,3.82061,-2.7,0,57.747,28.7,
1579,1,SBT2050,2,3,,1,141,3.817976,-2.6997,0,60.747,28.7,
1579,1,SBT2050,2,3,,1,145,3.81528,-2.7001,0,63.747,28.7,
1579,1,SBT2050,2,3,,1,149,3.812692,-2.7,0,66.747,28.7,
1579,1,SBT2050,2,3,,1,153,3.81016,-2.7002,0,69.747,28.8,
1579,1,SBT2050,2,3,,1,157,3.807634,-2.6999,0,72.747,28.8,
1579,1,SBT2050,2,3,,1,161,3.8053,-2.7002,0,75.747,28.8,
1579,1,SBT2050,2,3,,1,165,3.80307,-2.7002,0,78.747,28.8,
1579,1,SBT2050,2,3,,1,169,3.80042,-2.7,0,81.747,28.8,
1579,1,SBT2050,2,3,,1,173,3.79875,-2.6997,0,84.747,28.9,
1579,1,SBT2050,2,3,,1,177,3.7966,-2.7,0,87.747,28.9,
1579,1,SBT2050,2,3,,1,181,3.79472,-2.7,0,90.747,28.9,
1579,1,SBT2050,2,3,,1,185,3.79294,-2.6997,0,93.747,28.9,
1579,1,SBT2050,2,3,,1,189,3.79085,-2.6997,0,96.747,28.9,
1579,1,SBT2050,2,3,,1,193,3.78906,-2.6999,0,99.747,29,
1579,1,SBT2050,2,3,,1,197,3.7874,-2.7002,0,102.747,29,
1579,1,SBT2050,2,3,,1,201,3.785332,-2.6996,0,105.747,28.9,
1579,1,SBT2050,2,3,,1,205,3.78396,-2.7005,0,108.746,28.9,
1579,1,SBT2050,2,3,,1,209,3.782004,-2.7002,0,111.746,29,
1579,1,SBT2050,2,3,,1,213,3.78051,-2.6999,0,114.746,29,
1579,1,SBT2050,2,3,,1,217,3.779,-2.6999,0,117.746,29,
1579,1,SBT2050,2,3,,1,221,3.77749,-2.6999,0,120.746,29,
1579,1,SBT2050,2,3,,1,225,3.77574,-2.6997,0,123.746,29.1,
1579,1,SBT2050,2,3,,1,229,3.774572,-2.6999,0,126.746,29.1,
1579,1,SBT2050,2,3,,1,233,3.77324,-2.7,0,129.746,29,
1579,1,SBT2050,2,3,,1,237,3.771768,-2.6996,0,132.746,29.1,
1579,1,SBT2050,2,3,,1,241,3.77033,-2.7,0,135.746,29.1,
1579,1,SBT2050,2,3,,1,245,3.76903,-2.6999,0,138.746,29.1,
1579,1,SBT2050,2,3,,1,249,3.76768,-2.6999,0,141.746,29.1,
1579,1,SBT2050,2,3,,1,253,3.76634,-2.6997,0,144.746,29.1,
1579,1,SBT2050,2,3,,1,257,3.76518,-2.7002,0,147.746,29.1,
1579,1,SBT2050,2,3,,1,261,3.76383,-2.6999,0,150.745,29.1,
1579,1,SBT2050,2,3,,1,265,3.762608,-2.7,0,153.745,29.1,
1579,1,SBT2050,2,3,,1,269,3.76133,-2.6997,0,156.745,29.2,
1579,1,SBT2050,2,3,,1,273,3.76022,-2.7,0,159.745,29.2,
1579,1,SBT2050,2,3,,1,277,3.75912,-2.7003,0,162.745,29.2,
1579,1,SBT2050,2,3,,1,281,3.75782,-2.7,0,165.745,29.2,
1579,1,SBT2050,2,3,,1,285,3.75652,-2.6997,0,168.745,29.2,
1579,1,SBT2050,2,3,,1,289,3.75517,-2.7001,0,171.745,29.2,
1579,1,SBT2050,2,3,,1,293,3.75429,-2.7001,0,174.745,29.2,
1579,1,SBT2050,2,3,,1,297,3.75307,-2.6997,0,177.745,29.2,
1579,1,SBT2050,2,3,,1,301,3.75177,-2.7001,0,180.745,29.2,
1579,1,SBT2050,2,3,,1,305,3.75057,-2.6999,0,183.745,29.2,
1579,1,SBT2050,2,3,,1,309,3.74945,-2.6996,0,186.745,29.2,
1579,1,SBT2050,2,3,,1,313,3.74853,-2.7004,0,189.745,29.2,
1579,1,SBT2050,2,3,,1,317,3.74734,-2.7002,0,192.745,29.2,
1579,1,SBT2050,2,3,,1,321,3.74621,-2.7002,0,195.745,29.2,
1579,1,SBT2050,2,3,,1,325,3.744898,-2.6999,0,198.745,29.2,
1579,1,SBT2050,2,3,,1,329,3.744082,-2.7002,0,201.745,29.3,
1579,1,SBT2050,2,3,,1,333,3.74281,-2.6996,0,204.745,29.3,
1579,1,SBT2050,2,3,,1,337,3.74146,-2.7,0,207.745,29.3,
1579,1,SBT2050,2,3,,1,341,3.740642,-2.7001,0,210.744,29.3,
1579,1,SBT2050,2,3,,1,345,3.73967,-2.6998,0,213.744,29.3,
1579,1,SBT2050,2,3,,1,349,3.73847,-2.6999,0,216.744,29.3,
1579,1,SBT2050,2,3,,1,353,3.73725,-2.6999,0,219.744,29.3,
1579,1,SBT2050,2,3,,1,357,3.73618,-2.7004,0,222.744,29.3,
1579,1,SBT2050,2,3,,1,361,3.73513,-2.6998,0,225.744,29.3,
1579,1,SBT2050,2,3,,1,365,3.73384,-2.6999,0,228.744,29.3,
1579,1,SBT2050,2,3,,1,369,3.73289,-2.6997,0,231.744,29.3,
1579,1,SBT2050,2,3,,1,373,3.73165,-2.6997,0,234.744,29.3,
1579,1,SBT2050,2,3,,1,377,3.73093,-2.7,0,237.744,29.3,
1579,1,SBT2050,2,3,,1,381,3.729636,-2.7001,0,240.744,29.3,
1579,1,SBT2050,2,3,,1,385,3.72858,-2.6995,0,243.744,29.3,
1579,1,SBT2050,2,3,,1,389,3.72765,-2.7004,0,246.744,29.3,
1579,1,SBT2050,2,3,,1,393,3.72647,-2.6999,0,249.744,29.3,
1579,1,SBT2050,2,3,,1,397,3.72536,-2.6995,0,252.744,29.4,
1579,1,SBT2050,2,3,,1,401,3.72407,-2.6999,0,255.744,29.4,
1579,1,SBT2050,2,3,,1,405,3.72329,-2.6999,0,258.744,29.3,
1579,1,SBT2050,2,3,,1,409,3.722012,-2.6995,0,261.744,29.4,
1579,1,SBT2050,2,3,,1,413,3.72106,-2.6998,0,264.744,29.4,
1579,1,SBT2050,2,3,,1,417,3.719698,-2.6998,0,267.744,29.4,
1579,1,SBT2050,2,3,,1,421,3.71899,-2.6998,0,270.743,29.4,
1579,1,SBT2050,2,3,,1,425,3.71792,-2.7002,0,273.743,29.4,
1579,1,SBT2050,2,3,,1,429,3.71688,-2.7001,0,276.743,29.4,
1579,1,SBT2050,2,3,,1,433,3.715544,-2.6999,0,279.743,29.4,
1579,1,SBT2050,2,3,,1,437,3.714738,-2.6999,0,282.743,29.3,
1579,1,SBT2050,2,3,,1,441,3.71326,-2.6999,0,285.743,29.4,
1579,1,SBT2050,2,3,,1,445,3.71235,-2.6998,0,288.743,29.4,
1579,1,SBT2050,2,3,,1,449,3.711164,-2.6999,0,291.743,29.4,
1579,1,SBT2050,2,3,,1,453,3.710102,-2.7001,0,294.743,29.4,
1579,1,SBT2050,2,3,,1,457,3.70912,-2.6998,0,297.743,29.4,
1579,1,SBT2050,2,3,,1,461,3.70822,-2.6997,0,300.743,29.4,
1579,1,SBT2050,2,3,,1,465,3.70693,-2.7,0,303.743,29.4,
1579,1,SBT2050,2,3,,1,469,3.70594,-2.6997,0,306.743,29.3,
1579,1,SBT2050,2,3,,1,473,3.704638,-2.6998,0,309.743,29.3,
1579,1,SBT2050,2,3,,1,477,3.703842,-2.6998,0,312.743,29.3,
1579,1,SBT2050,2,3,,1,481,3.70258,-2.6998,0,315.743,29.3,
1579,1,SBT2050,2,3,,1,485,3.70153,-2.7001,0,318.742,29.3,
1579,1,SBT2050,2,3,,1,489,3.70048,-2.6999,0,321.742,29.3,
1579,1,SBT2050,2,3,,1,493,3.69915,-2.6999,0,324.742,29.3,
1579,1,SBT2050,2,3,,1,497,3.69817,-2.7001,0,327.742,29.3,
1579,1,SBT2050,2,3,,1,501,3.69694,-2.7001,0,330.742,29.3,
1579,1,SBT2050,2,3,,1,505,3.69603,-2.7001,0,333.742,29.3,
1579,1,SBT2050,2,3,,1,509,3.69485,-2.7,0,336.742,29.3,
1579,1,SBT2050,2,3,,1,513,3.69373,-2.7,0,339.742,29.3,
1579,1,SBT2050,2,3,,1,517,3.69236,-2.7001,0,342.742,29.3,
1579,1,SBT2050,2,3,,1,521,3.69143,-2.7,0,345.742,29.3,
1579,1,SBT2050,2,3,,1,525,3.69008,-2.7003,0,348.742,29.3,
1579,1,SBT2050,2,3,,1,529,3.68929,-2.7002,0,351.742,29.3,
1579,1,SBT2050,2,3,,1,533,3.688236,-2.7,0,354.742,29.3,
1579,1,SBT2050,2,3,,1,537,3.68685,-2.7001,0,357.742,29.3,
1579,1,SBT2050,2,3,,1,541,3.68581,-2.7002,0,360.742,29.3,
1579,1,SBT2050,2,3,,1,545,3.684788,-2.7001,0,363.742,29.3,
1579,1,SBT2050,2,3,,1,549,3.68338,-2.6998,0,366.742,29.3,
1579,1,SBT2050,2,3,,1,553,3.68233,-2.7,0,369.742,29.3,
1579,1,SBT2050,2,3,,1,557,3.681156,-2.6997,0,372.741,29.3,
1579,1,SBT2050,2,3,,1,561,3.679926,-2.7,0,375.741,29.3,
1579,1,SBT2050,2,3,,1,565,3.67914,-2.6998,0,378.741,29.3,
1579,1,SBT2050,2,3,,1,569,3.67773,-2.7,0,381.741,29.3,
1579,1,SBT2050,2,3,,1,573,3.6767,-2.6995,0,384.741,29.3,
1579,1,SBT2050,2,3,,1,577,3.67552,-2.7001,0,387.741,29.3,
1579,1,SBT2050,2,3,,1,581,3.67453,-2.6992,0,390.741,29.3,
1579,1,SBT2050,2,3,,1,585,3.67331,-2.6998,0,393.741,29.3,
1579,1,SBT2050,2,3,,1,589,3.67221,-2.7001,0,396.741,29.3,
1579,1,SBT2050,2,3,,1,593,3.6711,-2.6997,0,399.741,29.3,
1579,1,SBT2050,2,3,,1,597,3.66995,-2.6999,0,402.741,29.3,
1579,1,SBT2050,2,3,,1,601,3.668988,-2.6999,0,405.741,29.2,
1579,1,SBT2050,2,3,,1,605,3.66806,-2.6999,0,408.741,29.2,
1579,1,SBT2050,2,3,,1,609,3.66687,-2.7001,0,411.741,29.2,
1579,1,SBT2050,2,3,,1,613,3.66572,-2.7001,0,414.741,29.2,
1579,1,SBT2050,2,3,,1,617,3.66464,-2.7,0,417.74,29.2,
1579,1,SBT2050,2,3,,1,621,3.66357,-2.6997,0,420.74,29.2,
1579,1,SBT2050,2,3,,1,625,3.66267,-2.7003,0,423.74,29.2,
1579,1,SBT2050,2,3,,1,629,3.66135,-2.6997,0,426.74,29.2,
1579,1,SBT2050,2,3,,1,633,3.66026,-2.6996,0,429.74,29.2,
1579,1,SBT2050,2,3,,1,637,3.65914,-2.6999,0,432.74,29.2,
1579,1,SBT2050,2,3,,1,641,3.6582,-2.6997,0,435.74,29.2,
1579,1,SBT2050,2,3,,1,645,3.65693,-2.6997,0,438.74,29.2,
1579,1,SBT2050,2,3,,1,649,3.65559,-2.6999,0,441.74,29.2,
1579,1,SBT2050,2,3,,1,653,3.65483,-2.7002,0,444.74,29.2,
1579,1,SBT2050,2,3,,1,657,3.65366,-2.7001,0,447.74,29.2,
1579,1,SBT2050,2,3,,1,661,3.6527,-2.6996,0,450.74,29.2,
1579,1,SBT2050,2,3,,1,665,3.65143,-2.7001,0,453.74,29.2,
1579,1,SBT2050,2,3,,1,669,3.65029,-2.7001,0,456.74,29.2,
1579,1,SBT2050,2,3,,1,673,3.64936,-2.7001,0,459.74,29.2,
1579,1,SBT2050,2,3,,1,677,3.648298,-2.6999,0,462.74,29.2,
1579,1,SBT2050,2,3,,1,681,3.647232,-2.7003,0,465.74,29.1,
1579,1,SBT2050,2,3,,1,685,3.64608,-2.6998,0,468.739,29.1,
1579,1,SBT2050,2,3,,1,689,3.64499,-2.7,0,471.739,29.1,
1579,1,SBT2050,2,3,,1,693,3.64382,-2.7,0,474.739,29.2,
1579,1,SBT2050,2,3,,1,697,3.642724,-2.6998,0,477.739,29.2,
1579,1,SBT2050,2,3,,1,701,3.6417,-2.7004,0,480.739,29.1,
1579,1,SBT2050,2,3,,1,705,3.640642,-2.6997,0,483.739,29.1,
1579,1,SBT2050,2,3,,1,709,3.6397,-2.6998,0,486.739,29.1,
1579,1,SBT2050,2,3,,1,713,3.63846,-2.6995,0,489.739,29.1,
1579,1,SBT2050,2,3,,1,717,3.63729,-2.7001,0,492.739,29.2,
1579,1,SBT2050,2,3,,1,721,3.63645,-2.7003,0,495.739,29.1,
1579,1,SBT2050,2,3,,1,725,3.6352,-2.6997,0,498.739,29.1,
1579,1,SBT2050,2,3,,1,729,3.634064,-2.7,0,501.739,29.1,
1579,1,SBT2050,2,3,,1,733,3.63278,-2.7,0,504.739,29.1,
1579,1,SBT2050,2,3,,1,737,3.63196,-2.7003,0,507.739,29.1,
1579,1,SBT2050,2,3,,1,741,3.63076,-2.6997,0,510.739,29.1,
1579,1,SBT2050,2,3,,1,745,3.6297,-2.6998,0,513.739,29.1,
1579,1,SBT2050,2,3,,1,749,3.62857,-2.7,0,516.738,29.1,
1579,1,SBT2050,2,3,,1,753,3.62722,-2.7,0,519.738,29.1,
1579,1,SBT2050,2,3,,1,757,3.626064,-2.6997,0,522.738,29.1,
1579,1,SBT2050,2,3,,1,761,3.62508,-2.7001,0,525.738,29.1,
1579,1,SBT2050,2,3,,1,765,3.62379,-2.6999,0,528.738,29.1,
1579,1,SBT2050,2,3,,1,769,3.622618,-2.6997,0,531.738,29.1,
1579,1,SBT2050,2,3,,1,773,3.621348,-2.7002,0,534.738,29.1,
1579,1,SBT2050,2,3,,1,777,3.62052,-2.6997,0,537.738,29.1,
1579,1,SBT2050,2,3,,1,781,3.61912,-2.6999,0,540.738,29.1,
1579,1,SBT2050,2,3,,1,785,3.61817,-2.6999,0,543.738,29.1,
1579,1,SBT2050,2,3,,1,789,3.61694,-2.7001,0,546.738,29,
1579,1,SBT2050,2,3,,1,793,3.616,-2.6997,0,549.738,29.1,
1579,1,SBT2050,2,3,,1,797,3.614664,-2.7002,0,552.738,29.1,
1579,1,SBT2050,2,3,,1,801,3.613514,-2.7003,0,555.738,29.1,
1579,1,SBT2050,2,3,,1,805,3.61237,-2.7,0,558.738,29,
1579,1,SBT2050,2,3,,1,809,3.61162,-2.6997,0,561.738,29,
1579,1,SBT2050,2,3,,1,813,3.6105,-2.7003,0,564.738,29,
1579,1,SBT2050,2,3,,1,817,3.60914,-2.7003,0,567.737,29,
1579,1,SBT2050,2,3,,1,821,3.60832,-2.6994,0,570.737,29,
1579,1,SBT2050,2,3,,1,825,3.60713,-2.7,0,573.737,29,
1579,1,SBT2050,2,3,,1,829,3.60589,-2.6999,0,576.737,29,
1579,1,SBT2050,2,3,,1,833,3.60486,-2.6997,0,579.737,29,
1579,1,SBT2050,2,3,,1,837,3.60386,-2.6994,0,582.737,29,
1579,1,SBT2050,2,3,,1,841,3.60279,-2.7005,0,585.737,29,
1579,1,SBT2050,2,3,,1,845,3.60177,-2.6999,0,588.737,29,
1579,1,SBT2050,2,3,,1,849,3.60051,-2.6997,0,591.737,29,
1579,1,SBT2050,2,3,,1,853,3.59933,-2.7001,0,594.737,29.1,
1579,1,SBT2050,2,3,,1,857,3.59828,-2.6994,0,597.737,29,
1579,1,SBT2050,2,3,,1,861,3.59689,-2.6994,0,600.737,29,
1579,1,SBT2050,2,3,,1,865,3.59617,-2.6999,0,603.737,29,
1579,1,SBT2050,2,3,,1,869,3.59498,-2.7002,0,606.737,29,
1579,1,SBT2050,2,3,,1,873,3.59377,-2.7001,0,609.737,29,
1579,1,SBT2050,2,3,,1,877,3.59282,-2.6998,0,612.737,29,
1579,1,SBT2050,2,3,,1,881,3.59148,-2.6999,0,615.736,29,
1579,1,SBT2050,2,3,,1,885,3.59032,-2.6996,0,618.736,29,
1579,1,SBT2050,2,3,,1,889,3.58955,-2.7001,0,621.736,29.1,
1579,1,SBT2050,2,3,,1,893,3.58849,-2.7,0,624.736,29,
1579,1,SBT2050,2,3,,1,897,3.587234,-2.6999,0,627.736,29,
1579,1,SBT2050,2,3,,1,901,3.58624,-2.6999,0,630.736,29,
1579,1,SBT2050,2,3,,1,905,3.58508,-2.7,0,633.736,29,
1579,1,SBT2050,2,3,,1,909,3.58375,-2.6996,0,636.736,29,
1579,1,SBT2050,2,3,,1,913,3.58257,-2.6996,0,639.736,29,
1579,1,SBT2050,2,3,,1,917,3.58147,-2.7002,0,642.736,29,
1579,1,SBT2050,2,3,,1,921,3.58033,-2.6999,0,645.736,29,
1579,1,SBT2050,2,3,,1,925,3.57907,-2.7,0,648.736,29,
1579,1,SBT2050,2,3,,1,929,3.57819,-2.6999,0,651.736,29,
1579,1,SBT2050,2,3,,1,933,3.57703,-2.7,0,654.736,29,
1579,1,SBT2050,2,3,,1,937,3.57602,-2.7,0,657.736,29,
1579,1,SBT2050,2,3,,1,941,3.57479,-2.7001,0,660.735,29.1,
1579,1,SBT2050,2,3,,1,945,3.573614,-2.6997,0,663.735,29,
1579,1,SBT2050,2,3,,1,949,3.572546,-2.7004,0,666.735,29,
1579,1,SBT2050,2,3,,1,953,3.57142,-2.7003,0,669.735,29,
1579,1,SBT2050,2,3,,1,957,3.570438,-2.6998,0,672.735,29,
1579,1,SBT2050,2,3,,1,961,3.56911,-2.6998,0,675.735,29,
1579,1,SBT2050,2,3,,1,965,3.56804,-2.6995,0,678.735,29,
1579,1,SBT2050,2,3,,1,969,3.56702,-2.7001,0,681.735,29,
1579,1,SBT2050,2,3,,1,973,3.56588,-2.7004,0,684.735,29,
1579,1,SBT2050,2,3,,1,977,3.56455,-2.6999,0,687.735,29,
1579,1,SBT2050,2,3,,1,981,3.56355,-2.7001,0,690.735,29,
1579,1,SBT2050,2,3,,1,985,3.56248,-2.6999,0,693.735,29,
1579,1,SBT2050,2,3,,1,989,3.5612,-2.6998,0,696.735,29,
1579,1,SBT2050,2,3,,1,993,3.560358,-2.6996,0,699.735,29,
1579,1,SBT2050,2,3,,1,997,3.55898,-2.6998,0,702.735,29,
1579,1,SBT2050,2,3,,1,1001,3.55785,-2.6997,0,705.735,29,
1579,1,SBT2050,2,3,,1,1005,3.557,-2.7002,0,708.735,29,
1579,1,SBT2050,2,3,,1,1009,3.55563,-2.7001,0,711.735,29,
1579,1,SBT2050,2,3,,1,1013,3.55457,-2.6997,0,714.735,29,
1579,1,SBT2050,2,3,,1,1017,3.553338,-2.7001,0,717.735,29,
1579,1,SBT2050,2,3,,1,1021,3.55219,-2.6999,0,720.734,29.1,
1579,1,SBT2050,2,3,,1,1025,3.551084,-2.6998,0,723.734,29.1,
1579,1,SBT2050,2,3,,1,1029,3.54983,-2.7001,0,726.734,29.1,
1579,1,SBT2050,2,3,,1,1033,3.54871,-2.7003,0,729.734,29.1,
1579,1,SBT2050,2,3,,1,1037,3.54751,-2.7,0,732.734,29,
1579,1,SBT2050,2,3,,1,1041,3.546618,-2.6997,0,735.734,29.1,
1579,1,SBT2050,2,3,,1,1045,3.54539,-2.7,0,738.734,29.1,
1579,1,SBT2050,2,3,,1,1049,3.54408,-2.6996,0,741.734,29.1,
1579,1,SBT2050,2,3,,1,1053,3.54319,-2.7,0,744.734,29.1,
1579,1,SBT2050,2,3,,1,1057,3.54217,-2.7,0,747.734,29.1,
1579,1,SBT2050,2,3,,1,1061,3.54099,-2.7,0,750.734,29.1,
1579,1,SBT2050,2,3,,1,1065,3.53978,-2.7,0,753.734,29.1,
1579,1,SBT2050,2,3,,1,1069,3.53874,-2.7,0,756.734,29.1,
1579,1,SBT2050,2,3,,1,1073,3.53755,-2.6999,0,759.734,29.1,
1579,1,SBT2050,2,3,,1,1077,3.536412,-2.7,0,762.734,29.1,
1579,1,SBT2050,2,3,,1,1081,3.53529,-2.6999,0,765.733,29.1,
1579,1,SBT2050,2,3,,1,1085,3.53419,-2.6999,0,768.733,29.1,
1579,1,SBT2050,2,3,,1,1089,3.53307,-2.7,0,771.733,29.1,
1579,1,SBT2050,2,3,,1,1093,3.53192,-2.6998,0,774.733,29.1,
1579,1,SBT2050,2,3,,1,1097,3.53097,-2.6998,0,777.733,29.1,
1579,1,SBT2050,2,3,,1,1101,3.53006,-2.6997,0,780.733,29.1,
1579,1,SBT2050,2,3,,1,1105,3.52866,-2.7001,0,783.733,29.1,
1579,1,SBT2050,2,3,,1,1109,3.5277,-2.6993,0,786.733,29.1,
1579,1,SBT2050,2,3,,1,1113,3.52632,-2.6997,0,789.733,29.1,
1579,1,SBT2050,2,3,,1,1117,3.52539,-2.7,0,792.733,29.1,
1579,1,SBT2050,2,3,,1,1121,3.52398,-2.7003,0,795.733,29.1,
1579,1,SBT2050,2,3,,1,1125,3.52277,-2.7004,0,798.733,29.1,
1579,1,SBT2050,2,3,,1,1129,3.52184,-2.7,0,801.733,29.1,
1579,1,SBT2050,2,3,,1,1133,3.520582,-2.7,0,804.733,29.1,
1579,1,SBT2050,2,3,,1,1137,3.519342,-2.7,0,807.733,29.1,
1579,1,SBT2050,2,3,,1,1141,3.5182,-2.6997,0,810.732,29.1,
1579,1,SBT2050,2,3,,1,1145,3.51709,-2.7,0,813.732,29.1,
1579,1,SBT2050,2,3,,1,1149,3.51586,-2.7,0,816.732,29.1,
1579,1,SBT2050,2,3,,1,1153,3.51457,-2.7,0,819.732,29.1,
1579,1,SBT2050,2,3,,1,1157,3.51369,-2.6997,0,822.732,29.1,
1579,1,SBT2050,2,3,,1,1161,3.51269,-2.7001,0,825.732,29.1,
1579,1,SBT2050,2,3,,1,1165,3.51136,-2.6997,0,828.732,29.1,
1579,1,SBT2050,2,3,,1,1169,3.51035,-2.7,0,831.732,29.1,
1579,1,SBT2050,2,3,,1,1173,3.50898,-2.6997,0,834.732,29.1,
1579,1,SBT2050,2,3,,1,1177,3.507814,-2.6995,0,837.732,29.1,
1579,1,SBT2050,2,3,,1,1181,3.506758,-2.7001,0,840.732,29.1,
1579,1,SBT2050,2,3,,1,1185,3.5057,-2.6998,0,843.732,29.1,
1579,1,SBT2050,2,3,,1,1189,3.504642,-2.7,0,846.732,29.1,
1579,1,SBT2050,2,3,,1,1193,3.50359,-2.7003,0,849.732,29.1,
1579,1,SBT2050,2,3,,1,1197,3.50232,-2.6998,0,852.732,29.1,
1579,1,SBT2050,2,3,,1,1201,3.50144,-2.6997,0,855.732,29.2,
1579,1,SBT2050,2,3,,1,1205,3.50031,-2.6998,0,858.731,29.2,
1579,1,SBT2050,2,3,,1,1209,3.499072,-2.7001,0,861.731,29.1,
1579,1,SBT2050,2,3,,1,1213,3.497874,-2.7003,0,864.731,29.1,
1579,1,SBT2050,2,3,,1,1217,3.496716,-2.6998,0,867.731,29.1,
1579,1,SBT2050,2,3,,1,1221,3.49553,-2.7003,0,870.731,29.1,
1579,1,SBT2050,2,3,,1,1225,3.49419,-2.6997,0,873.731,29.1,
1579,1,SBT2050,2,3,,1,1229,3.49338,-2.6994,0,876.731,29.1,
1579,1,SBT2050,2,3,,1,1233,3.492182,-2.7,0,879.731,29.1,
1579,1,SBT2050,2,3,,1,1237,3.4911,-2.7,0,882.731,29.1,
1579,1,SBT2050,2,3,,1,1241,3.4899,-2.6995,0,885.731,29.1,
1579,1,SBT2050,2,3,,1,1245,3.48874,-2.6999,0,888.731,29.1,
1579,1,SBT2050,2,3,,1,1249,3.48761,-2.6999,0,891.731,29.1,
1579,1,SBT2050,2,3,,1,1253,3.48674,-2.6998,0,894.731,29.2,
1579,1,SBT2050,2,3,,1,1257,3.48545,-2.6999,0,897.731,29.1,
1579,1,SBT2050,2,3,,1,1261,3.4843,-2.6998,0,900.731,29.2,
1579,1,SBT2050,2,3,,1,1265,3.48331,-2.7001,0,903.731,29.2,
1579,1,SBT2050,2,3,,1,1269,3.481948,-2.6999,0,906.731,29.1,
1579,1,SBT2050,2,3,,1,1273,3.48093,-2.7001,0,909.73,29.1,
1579,1,SBT2050,2,3,,1,1277,3.47985,-2.6999,0,912.73,29.1,
1579,1,SBT2050,2,3,,1,1281,3.47857,-2.7,0,915.73,29.1,
1579,1,SBT2050,2,3,,1,1285,3.47733,-2.7001,0,918.73,29.1,
1579,1,SBT2050,2,3,,1,1289,3.4765,-2.6998,0,921.73,29.1,
1579,1,SBT2050,2,3,,1,1293,3.47526,-2.7,0,924.73,29.1,
1579,1,SBT2050,2,3,,1,1297,3.474046,-2.7001,0,927.73,29.1,
1579,1,SBT2050,2,3,,1,1301,3.473006,-2.7,0,930.73,29.1,
1579,1,SBT2050,2,3,,1,1305,3.47172,-2.7003,0,933.73,29.1,
1579,1,SBT2050,2,3,,1,1309,3.47083,-2.6996,0,936.73,29.1,
1579,1,SBT2050,2,3,,1,1313,3.46942,-2.7001,0,939.73,29.1,
1579,1,SBT2050,2,3,,1,1317,3.46864,-2.6999,0,942.73,29.1,
1579,1,SBT2050,2,3,,1,1321,3.467286,-2.6999,0,945.73,29.1,
1579,1,SBT2050,2,3,,1,1325,3.46613,-2.7001,0,948.73,29.1,
1579,1,SBT2050,2,3,,1,1329,3.46517,-2.6999,0,951.73,29.1,
1579,1,SBT2050,2,3,,1,1333,3.464118,-2.7,0,954.729,29.1,
1579,1,SBT2050,2,3,,1,1337,3.46289,-2.6999,0,957.729,29.1,
1579,1,SBT2050,2,3,,1,1341,3.46204,-2.6995,0,960.729,29.1,
1579,1,SBT2050,2,3,,1,1345,3.460526,-2.7,0,963.729,29.1,
1579,1,SBT2050,2,3,,1,1349,3.45933,-2.6997,0,966.729,29.1,
1579,1,SBT2050,2,3,,1,1353,3.45822,-2.7001,0,969.729,29.1,
1579,1,SBT2050,2,3,,1,1357,3.45702,-2.7,0,972.729,29.2,
1579,1,SBT2050,2,3,,1,1361,3.456,-2.7003,0,975.729,29.1,
1579,1,SBT2050,2,3,,1,1365,3.45486,-2.7003,0,978.729,29.1,
1579,1,SBT2050,2,3,,1,1369,3.453806,-2.6995,0,981.729,29.1,
1579,1,SBT2050,2,3,,1,1373,3.45257,-2.7001,0,984.729,29.1,
1579,1,SBT2050,2,3,,1,1377,3.45171,-2.7,0,987.729,29.1,
1579,1,SBT2050,2,3,,1,1381,3.45051,-2.7,0,990.729,29.2,
1579,1,SBT2050,2,3,,1,1385,3.44918,-2.7003,0,993.729,29.2,
1579,1,SBT2050,2,3,,1,1389,3.448148,-2.7,0,996.729,29.1,
1579,1,SBT2050,2,3,,1,1393,3.44712,-2.7001,0,999.729,29.2,
1579,1,SBT2050,2,3,,1,1397,3.44629,-2.6999,0,1002.728,29.2,
1579,1,SBT2050,2,3,,1,1401,3.445016,-2.7,0,1005.728,29.1,
1579,1,SBT2050,2,3,,1,1405,3.44391,-2.7002,0,1008.728,29.1,
1579,1,SBT2050,2,3,,1,1409,3.44252,-2.7003,0,1011.728,29.1,
1579,1,SBT2050,2,3,,1,1413,3.44148,-2.7001,0,1014.728,29.2,
1579,1,SBT2050,2,3,,1,1417,3.44045,-2.6995,0,1017.728,29.2,
1579,1,SBT2050,2,3,,1,1421,3.43921,-2.6998,0,1020.728,29.2,
1579,1,SBT2050,2,3,,1,1425,3.43825,-2.6996,0,1023.728,29.2,
1579,1,SBT2050,2,3,,1,1429,3.437112,-2.7001,0,1026.728,29.2,
1579,1,SBT2050,2,3,,1,1433,3.43585,-2.7002,0,1029.728,29.2,
1579,1,SBT2050,2,3,,1,1437,3.434828,-2.7002,0,1032.728,29.2,
1579,1,SBT2050,2,3,,1,1441,3.43375,-2.6995,0,1035.728,29.1,
1579,1,SBT2050,2,3,,1,1445,3.43243,-2.7001,0,1038.728,29.1,
1579,1,SBT2050,2,3,,1,1449,3.43151,-2.6999,0,1041.728,29.2,
1579,1,SBT2050,2,3,,1,1453,3.43024,-2.6999,0,1044.728,29.2,
1579,1,SBT2050,2,3,,1,1457,3.42923,-2.7002,0,1047.728,29.2,
1579,1,SBT2050,2,3,,1,1461,3.42792,-2.6998,0,1050.727,29.2,
1579,1,SBT2050,2,3,,1,1465,3.42691,-2.7001,0,1053.727,29.2,
1579,1,SBT2050,2,3,,1,1469,3.42604,-2.7001,0,1056.727,29.2,
1579,1,SBT2050,2,3,,1,1473,3.42452,-2.6998,0,1059.727,29.2,
1579,1,SBT2050,2,3,,1,1477,3.42351,-2.7001,0,1062.727,29.2,
1579,1,SBT2050,2,3,,1,1481,3.42224,-2.6998,0,1065.727,29.2,
1579,1,SBT2050,2,3,,1,1485,3.42147,-2.7001,0,1068.727,29.2,
1579,1,SBT2050,2,3,,1,1489,3.42013,-2.7001,0,1071.727,29.2,
1579,1,SBT2050,2,3,,1,1493,3.41915,-2.6998,0,1074.727,29.2,
1579,1,SBT2050,2,3,,1,1497,3.41788,-2.6997,0,1077.727,29.2,
1579,1,SBT2050,2,3,,1,1501,3.41705,-2.6998,0,1080.727,29.2,
1579,1,SBT2050,2,3,,1,1505,3.41596,-2.6999,0,1083.727,29.2,
1579,1,SBT2050,2,3,,1,1509,3.41476,-2.7002,0,1086.727,29.2,
1579,1,SBT2050,2,3,,1,1513,3.41353,-2.6998,0,1089.727,29.2,
1579,1,SBT2050,2,3,,1,1517,3.41257,-2.6998,0,1092.727,29.2,
1579,1,SBT2050,2,3,,1,1521,3.41146,-2.6998,0,1095.727,29.2,
1579,1,SBT2050,2,3,,1,1525,3.41067,-2.7005,0,1098.727,29.2,
1579,1,SBT2050,2,3,,1,1529,3.40934,-2.7001,0,1101.727,29.2,
1579,1,SBT2050,2,3,,1,1533,3.40837,-2.7004,0,1104.726,29.2,
1579,1,SBT2050,2,3,,1,1537,3.40718,-2.7002,0,1107.726,29.2,
1579,1,SBT2050,2,3,,1,1541,3.4063,-2.6997,0,1110.726,29.2,
1579,1,SBT2050,2,3,,1,1545,3.40534,-2.7001,0,1113.726,29.2,
1579,1,SBT2050,2,3,,1,1549,3.4044,-2.7,0,1116.726,29.2,
1579,1,SBT2050,2,3,,1,1553,3.40278,-2.6998,0,1119.726,29.2,
1579,1,SBT2050,2,3,,1,1557,3.4019,-2.6998,0,1122.726,29.2,
1579,1,SBT2050,2,3,,1,1561,3.4011,-2.6998,0,1125.726,29.2,
1579,1,SBT2050,2,3,,1,1565,3.39974,-2.7003,0,1128.726,29.2,
1579,1,SBT2050,2,3,,1,1569,3.398348,-2.6998,0,1131.726,29.2,
1579,1,SBT2050,2,3,,1,1573,3.39738,-2.7,0,1134.726,29.2,
1579,1,SBT2050,2,3,,1,1577,3.39651,-2.6998,0,1137.726,29.2,
1579,1,SBT2050,2,3,,1,1581,3.39512,-2.7001,0,1140.726,29.2,
1579,1,SBT2050,2,3,,1,1585,3.39414,-2.7,0,1143.726,29.2,
1579,1,SBT2050,2,3,,1,1589,3.39296,-2.6998,0,1146.726,29.2,
1579,1,SBT2050,2,3,,1,1593,3.39171,-2.6998,0,1149.725,29.2,
1579,1,SBT2050,2,3,,1,1597,3.39053,-2.7005,0,1152.725,29.2,
1579,1,SBT2050,2,3,,1,1601,3.3896,-2.6999,0,1155.725,29.2,
1579,1,SBT2050,2,3,,1,1605,3.388662,-2.6997,0,1158.725,29.2,
1579,1,SBT2050,2,3,,1,1609,3.38719,-2.7002,0,1161.725,29.2,
1579,1,SBT2050,2,3,,1,1613,3.38621,-2.7002,0,1164.725,29.2,
1579,1,SBT2050,2,3,,1,1617,3.38513,-2.7002,0,1167.725,29.2,
1579,1,SBT2050,2,3,,1,1621,3.38397,-2.6998,0,1170.725,29.2,
1579,1,SBT2050,2,3,,1,1625,3.383,-2.6997,0,1173.725,29.2,
1579,1,SBT2050,2,3,,1,1629,3.381744,-2.6999,0,1176.725,29.2,
1579,1,SBT2050,2,3,,1,1633,3.38074,-2.6993,0,1179.725,29.2,
1579,1,SBT2050,2,3,,1,1637,3.37953,-2.7002,0,1182.725,29.2,
1579,1,SBT2050,2,3,,1,1641,3.378352,-2.6999,0,1185.725,29.2,
1579,1,SBT2050,2,3,,1,1645,3.37733,-2.7002,0,1188.725,29.2,
1579,1,SBT2050,2,3,,1,1649,3.37627,-2.7002,0,1191.725,29.2,
1579,1,SBT2050,2,3,,1,1653,3.37527,-2.7001,0,1194.724,29.2,
1579,1,SBT2050,2,3,,1,1657,3.37397,-2.6998,0,1197.724,29.2,
1579,1,SBT2050,2,3,,1,1661,3.37294,-2.7001,0,1200.724,29.2,
1579,1,SBT2050,2,3,,1,1665,3.37176,-2.6998,0,1203.724,29.2,
1579,1,SBT2050,2,3,,1,1669,3.3706,-2.7,0,1206.724,29.2,
1579,1,SBT2050,2,3,,1,1673,3.36945,-2.7003,0,1209.724,29.2,
1579,1,SBT2050,2,3,,1,1677,3.3686,-2.6998,0,1212.724,29.2,
1579,1,SBT2050,2,3,,1,1681,3.367374,-2.7001,0,1215.724,29.2,
1579,1,SBT2050,2,3,,1,1685,3.36646,-2.6998,0,1218.724,29.2,
1579,1,SBT2050,2,3,,1,1689,3.36515,-2.6997,0,1221.724,29.2,
1579,1,SBT2050,2,3,,1,1693,3.363934,-2.7001,0,1224.724,29.2,
1579,1,SBT2050,2,3,,1,1697,3.36297,-2.7001,0,1227.724,29.2,
1579,1,SBT2050,2,3,,1,1701,3.3621,-2.6998,0,1230.724,29.2,
1579,1,SBT2050,2,3,,1,1705,3.360754,-2.6998,0,1233.724,29.2,
1579,1,SBT2050,2,3,,1,1709,3.35971,-2.7001,0,1236.724,29.2,
1579,1,SBT2050,2,3,,1,1713,3.35835,-2.6998,0,1239.724,29.2,
1579,1,SBT2050,2,3,,1,1717,3.35751,-2.6997,0,1242.723,29.2,
1579,1,SBT2050,2,3,,1,1721,3.35637,-2.7001,0,1245.723,29.2,
1579,1,SBT2050,2,3,,1,1725,3.35518,-2.7001,0,1248.723,29.2,
1579,1,SBT2050,2,3,,1,1729,3.35422,-2.7002,0,1251.723,29.2,
1579,1,SBT2050,2,3,,1,1733,3.353,-2.7002,0,1254.723,29.3,
1579,1,SBT2050,2,3,,1,1737,3.35189,-2.6996,0,1257.723,29.2,
1579,1,SBT2050,2,3,,1,1741,3.35058,-2.7005,0,1260.723,29.3,
1579,1,SBT2050,2,3,,1,1745,3.34954,-2.6996,0,1263.723,29.3,
1579,1,SBT2050,2,3,,1,1749,3.34849,-2.7004,0,1266.723,29.3,
1579,1,SBT2050,2,3,,1,1753,3.34721,-2.6997,0,1269.723,29.3,
1579,1,SBT2050,2,3,,1,1757,3.34612,-2.7002,0,1272.723,29.3,
1579,1,SBT2050,2,3,,1,1761,3.34513,-2.7,0,1275.723,29.3,
1579,1,SBT2050,2,3,,1,1765,3.34374,-2.7002,0,1278.723,29.3,
1579,1,SBT2050,2,3,,1,1769,3.34289,-2.7002,0,1281.723,29.3,
1579,1,SBT2050,2,3,,1,1773,3.34183,-2.6996,0,1284.723,29.3,
1579,1,SBT2050,2,3,,1,1777,3.34072,-2.6999,0,1287.722,29.3,
1579,1,SBT2050,2,3,,1,1781,3.339429,-2.6999,0,1290.722,29.3,
1579,1,SBT2050,2,3,,1,1785,3.33827,-2.7002,0,1293.722,29.3,
1579,1,SBT2050,2,3,,1,1789,3.33728,-2.7,0,1296.722,29.3,
1579,1,SBT2050,2,3,,1,1793,3.33609,-2.6997,0,1299.722,29.3,
1579,1,SBT2050,2,3,,1,1797,3.335192,-2.7,0,1302.722,29.3,
1579,1,SBT2050,2,3,,1,1801,3.33406,-2.7,0,1305.722,29.3,
1579,1,SBT2050,2,3,,1,1805,3.33281,-2.7,0,1308.722,29.3,
1579,1,SBT2050,2,3,,1,1809,3.33166,-2.6997,0,1311.722,29.3,
1579,1,SBT2050,2,3,,1,1813,3.33052,-2.6999,0,1314.722,29.3,
1579,1,SBT2050,2,3,,1,1817,3.329392,-2.7002,0,1317.722,29.3,
1579,1,SBT2050,2,3,,1,1821,3.32835,-2.7,0,1320.722,29.4,
1579,1,SBT2050,2,3,,1,1825,3.327131,-2.7002,0,1323.722,29.3,
1579,1,SBT2050,2,3,,1,1829,3.32617,-2.7,0,1326.721,29.3,
1579,1,SBT2050,2,3,,1,1833,3.32491,-2.7,0,1329.721,29.3,
1579,1,SBT2050,2,3,,1,1837,3.32382,-2.6998,0,1332.721,29.4,
1579,1,SBT2050,2,3,,1,1841,3.322754,-2.6998,0,1335.721,29.4,
1579,1,SBT2050,2,3,,1,1845,3.32157,-2.7,0,1338.721,29.4,
1579,1,SBT2050,2,3,,1,1849,3.32036,-2.6999,0,1341.721,29.4,
1579,1,SBT2050,2,3,,1,1853,3.31926,-2.7,0,1344.721,29.4,
1579,1,SBT2050,2,3,,1,1857,3.3179,-2.7,0,1347.721,29.4,
1579,1,SBT2050,2,3,,1,1861,3.316858,-2.7001,0,1350.721,29.4,
1579,1,SBT2050,2,3,,1,1865,3.31573,-2.7004,0,1353.721,29.4,
1579,1,SBT2050,2,3,,1,1869,3.3145,-2.6998,0,1356.721,29.4,
1579,1,SBT2050,2,3,,1,1873,3.31333,-2.7,0,1359.721,29.4,
1579,1,SBT2050,2,3,,1,1877,3.3122,-2.7001,0,1362.721,29.4,
1579,1,SBT2050,2,3,,1,1881,3.31121,-2.6997,0,1365.721,29.4,
1579,1,SBT2050,2,3,,1,1885,3.3096,-2.7001,0,1368.721,29.4,
1579,1,SBT2050,2,3,,1,1889,3.30866,-2.6996,0,1371.721,29.4,
1579,1,SBT2050,2,3,,1,1893,3.307331,-2.6999,0,1374.721,29.4,
1579,1,SBT2050,2,3,,1,1897,3.306227,-2.6999,0,1377.721,29.4,
1579,1,SBT2050,2,3,,1,1901,3.30492,-2.6999,0,1380.721,29.4,
1579,1,SBT2050,2,3,,1,1905,3.30383,-2.6999,0,1383.721,29.4,
1579,1,SBT2050,2,3,,1,1909,3.302511,-2.7002,0,1386.721,29.5,
1579,1,SBT2050,2,3,,1,1913,3.30155,-2.6998,0,1389.721,29.4,
1579,1,SBT2050,2,3,,1,1917,3.30017,-2.7001,0,1392.72,29.4,
1579,1,SBT2050,2,3,,1,1921,3.29923,-2.7002,0,1395.72,29.5,
1579,1,SBT2050,2,3,,1,1925,3.29784,-2.7001,0,1398.72,29.5,
1579,1,SBT2050,2,3,,1,1929,3.2969,-2.7002,0,1401.72,29.4,
1579,1,SBT2050,2,3,,1,1933,3.29565,-2.7001,0,1404.72,29.4,
1579,1,SBT2050,2,3,,1,1937,3.294228,-2.6999,0,1407.72,29.4,
1579,1,SBT2050,2,3,,1,1941,3.29303,-2.7001,0,1410.72,29.5,
1579,1,SBT2050,2,3,,1,1945,3.29219,-2.7001,0,1413.72,29.5,
1579,1,SBT2050,2,3,,1,1949,3.29076,-2.7001,0,1416.72,29.5,
1579,1,SBT2050,2,3,,1,1953,3.289452,-2.7,0,1419.72,29.5,
1579,1,SBT2050,2,3,,1,1957,3.2883,-2.7002,0,1422.72,29.5,
1579,1,SBT2050,2,3,,1,1961,3.287049,-2.6997,0,1425.72,29.5,
1579,1,SBT2050,2,3,,1,1965,3.28605,-2.7002,0,1428.72,29.5,
1579,1,SBT2050,2,3,,1,1969,3.28472,-2.6999,0,1431.72,29.5,
1579,1,SBT2050,2,3,,1,1973,3.283659,-2.6996,0,1434.72,29.5,
1579,1,SBT2050,2,3,,1,1977,3.28239,-2.6999,0,1437.72,29.5,
1579,1,SBT2050,2,3,,1,1981,3.28118,-2.6999,0,1440.72,29.5,
1579,1,SBT2050,2,3,,1,1985,3.27973,-2.6997,0,1443.719,29.5,
1579,1,SBT2050,2,3,,1,1989,3.278587,-2.7,0,1446.719,29.5,
1579,1,SBT2050,2,3,,1,1993,3.277309,-2.7003,0,1449.719,29.5,
1579,1,SBT2050,2,3,,1,1997,3.27601,-2.7001,0,1452.719,29.5,
1579,1,SBT2050,2,3,,1,2001,3.27455,-2.6998,0,1455.719,29.6,
1579,1,SBT2050,2,3,,1,2005,3.27371,-2.6995,0,1458.719,29.6,
1579,1,SBT2050,2,3,,1,2009,3.27232,-2.7,0,1461.719,29.6,
1579,1,SBT2050,2,3,,1,2013,3.271115,-2.6997,0,1464.719,29.6,
1579,1,SBT2050,2,3,,1,2017,3.269844,-2.7001,0,1467.719,29.6,
1579,1,SBT2050,2,3,,1,2021,3.26844,-2.6998,0,1470.719,29.6,
1579,1,SBT2050,2,3,,1,2025,3.26731,-2.6997,0,1473.719,29.6,
1579,1,SBT2050,2,3,,1,2029,3.26593,-2.6998,0,1476.719,29.6,
1579,1,SBT2050,2,3,,1,2033,3.26489,-2.7001,0,1479.719,29.6,
1579,1,SBT2050,2,3,,1,2037,3.2636,-2.6997,0,1482.719,29.6,
1579,1,SBT2050,2,3,,1,2041,3.26239,-2.6997,0,1485.718,29.6,
1579,1,SBT2050,2,3,,1,2045,3.26096,-2.6994,0,1488.718,29.6,
1579,1,SBT2050,2,3,,1,2049,3.25996,-2.6995,0,1491.718,29.6,
1579,1,SBT2050,2,3,,1,2053,3.258461,-2.7001,0,1494.718,29.6,
1579,1,SBT2050,2,3,,1,2057,3.25718,-2.7,0,1497.718,29.6,
1579,1,SBT2050,2,3,,1,2061,3.255979,-2.7002,0,1500.718,29.6,
1579,1,SBT2050,2,3,,1,2065,3.25478,-2.7001,0,1503.718,29.6,
1579,1,SBT2050,2,3,,1,2069,3.25358,-2.6998,0,1506.718,29.7,
1579,1,SBT2050,2,3,,1,2073,3.25214,-2.7001,0,1509.718,29.7,
1579,1,SBT2050,2,3,,1,2077,3.25087,-2.7003,0,1512.718,29.7,
1579,1,SBT2050,2,3,,1,2081,3.24961,-2.6996,0,1515.718,29.6,
1579,1,SBT2050,2,3,,1,2085,3.24834,-2.6996,0,1518.718,29.7,
1579,1,SBT2050,2,3,,1,2089,3.247076,-2.6998,0,1521.718,29.7,
1579,1,SBT2050,2,3,,1,2093,3.24543,-2.6998,0,1524.718,29.7,
1579,1,SBT2050,2,3,,1,2097,3.24425,-2.7004,0,1527.718,29.8,
1579,1,SBT2050,2,3,,1,2101,3.242941,-2.7001,0,1530.717,29.7,
1579,1,SBT2050,2,3,,1,2105,3.241558,-2.7002,0,1533.717,29.7,
1579,1,SBT2050,2,3,,1,2109,3.24024,-2.6998,0,1536.717,29.7,
1579,1,SBT2050,2,3,,1,2113,3.23886,-2.6999,0,1539.717,29.8,
1579,1,SBT2050,2,3,,1,2117,3.23751,-2.6999,0,1542.717,29.8,
1579,1,SBT2050,2,3,,1,2121,3.23606,-2.7004,0,1545.717,29.8,
1579,1,SBT2050,2,3,,1,2125,3.23481,-2.7001,0,1548.717,29.8,
1579,1,SBT2050,2,3,,1,2129,3.23306,-2.6999,0,1551.717,29.8,
1579,1,SBT2050,2,3,,1,2133,3.231913,-2.7001,0,1554.717,29.8,
1579,1,SBT2050,2,3,,1,2137,3.23066,-2.6998,0,1557.717,29.8,
1579,1,SBT2050,2,3,,1,2141,3.22901,-2.6997,0,1560.717,29.8,
1579,1,SBT2050,2,3,,1,2145,3.227935,-2.6998,0,1563.717,29.8,
1579,1,SBT2050,2,3,,1,2149,3.226371,-2.6997,0,1566.717,29.8,
1579,1,SBT2050,2,3,,1,2153,3.22502,-2.6999,0,1569.717,29.8,
1579,1,SBT2050,2,3,,1,2157,3.22349,-2.7003,0,1572.717,29.8,
1579,1,SBT2050,2,3,,1,2161,3.22218,-2.7,0,1575.717,29.9,
1579,1,SBT2050,2,3,,1,2165,3.22072,-2.6997,0,1578.717,29.9,
1579,1,SBT2050,2,3,,1,2169,3.219317,-2.7,0,1581.717,29.9,
1579,1,SBT2050,2,3,,1,2173,3.21772,-2.7,0,1584.716,29.9,
1579,1,SBT2050,2,3,,1,2177,3.21626,-2.7,0,1587.716,29.9,
1579,1,SBT2050,2,3,,1,2181,3.2147,-2.6997,0,1590.716,29.9,
1579,1,SBT2050,2,3,,1,2185,3.21339,-2.7001,0,1593.716,29.9,
1579,1,SBT2050,2,3,,1,2189,3.21212,-2.7,0,1596.716,29.9,
1579,1,SBT2050,2,3,,1,2193,3.21058,-2.6998,0,1599.716,30,
1579,1,SBT2050,2,3,,1,2197,3.209059,-2.7,0,1602.716,29.9,
1579,1,SBT2050,2,3,,1,2201,3.207774,-2.6997,0,1605.716,29.9,
1579,1,SBT2050,2,3,,1,2205,3.20628,-2.6998,0,1608.716,29.9,
1579,1,SBT2050,2,3,,1,2209,3.20465,-2.7001,0,1611.716,30,
1579,1,SBT2050,2,3,,1,2213,3.20326,-2.7002,0,1614.716,30,
1579,1,SBT2050,2,3,,1,2217,3.20177,-2.7001,0,1617.716,30,
1579,1,SBT2050,2,3,,1,2221,3.20014,-2.6998,0,1620.716,30,
1579,1,SBT2050,2,3,,1,2225,3.198935,-2.7003,0,1623.716,30,
1579,1,SBT2050,2,3,,1,2229,3.19716,-2.6996,0,1626.716,30,
1579,1,SBT2050,2,3,,1,2233,3.1957,-2.7003,0,1629.716,30.1,
1579,1,SBT2050,2,3,,1,2237,3.1942,-2.7001,0,1632.716,30.1,
1579,1,SBT2050,2,3,,1,2241,3.19275,-2.6998,0,1635.716,30.1,
1579,1,SBT2050,2,3,,1,2245,3.19123,-2.6998,0,1638.715,30.1,
1579,1,SBT2050,2,3,,1,2249,3.189554,-2.6998,0,1641.715,30.1,
1579,1,SBT2050,2,3,,1,2253,3.18808,-2.7,0,1644.715,30.1,
1579,1,SBT2050,2,3,,1,2257,3.18645,-2.7003,0,1647.715,30.1,
1579,1,SBT2050,2,3,,1,2261,3.184566,-2.6998,0,1650.715,30.1,
1579,1,SBT2050,2,3,,1,2265,3.1832,-2.7003,0,1653.715,30.1,
1579,1,SBT2050,2,3,,1,2269,3.181536,-2.7001,0,1656.715,30.1,
1579,1,SBT2050,2,3,,1,2273,3.18009,-2.7001,0,1659.715,30.2,
1579,1,SBT2050,2,3,,1,2277,3.1783,-2.6998,0,1662.715,30.2,
1579,1,SBT2050,2,3,,1,2281,3.1768,-2.6998,0,1665.715,30.2,
1579,1,SBT2050,2,3,,1,2285,3.17501,-2.7,0,1668.715,30.2,
1579,1,SBT2050,2,3,,1,2289,3.17332,-2.6998,0,1671.715,30.2,
1579,1,SBT2050,2,3,,1,2293,3.172053,-2.7,0,1674.715,30.2,
1579,1,SBT2050,2,3,,1,2297,3.17017,-2.7,0,1677.715,30.2,
1579,1,SBT2050,2,3,,1,2301,3.16848,-2.7002,0,1680.715,30.2,
1579,1,SBT2050,2,3,,1,2305,3.16673,-2.6994,0,1683.715,30.2,
1579,1,SBT2050,2,3,,1,2309,3.1652,-2.6999,0,1686.715,30.2,
1579,1,SBT2050,2,3,,1,2313,3.163544,-2.7004,0,1689.714,30.3,
1579,1,SBT2050,2,3,,1,2317,3.1618,-2.7007,0,1692.714,30.3,
1579,1,SBT2050,2,3,,1,2321,3.16018,-2.6999,0,1695.714,30.3,
1579,1,SBT2050,2,3,,1,2325,3.15849,-2.7002,0,1698.714,30.3,
1579,1,SBT2050,2,3,,1,2329,3.15699,-2.6999,0,1701.714,30.3,
1579,1,SBT2050,2,3,,1,2333,3.15516,-2.6998,0,1704.714,30.3,
1579,1,SBT2050,2,3,,1,2337,3.153316,-2.6999,0,1707.714,30.3,
1579,1,SBT2050,2,3,,1,2341,3.15162,-2.7002,0,1710.714,30.3,
1579,1,SBT2050,2,3,,1,2345,3.14987,-2.6999,0,1713.714,30.4,
1579,1,SBT2050,2,3,,1,2349,3.14805,-2.7002,0,1716.714,30.4,
1579,1,SBT2050,2,3,,1,2353,3.14641,-2.7002,0,1719.714,30.4,
1579,1,SBT2050,2,3,,1,2357,3.1445,-2.6996,0,1722.714,30.4,
1579,1,SBT2050,2,3,,1,2361,3.14286,-2.6998,0,1725.714,30.5,
1579,1,SBT2050,2,3,,1,2365,3.14111,-2.7001,0,1728.714,30.4,
1579,1,SBT2050,2,3,,1,2369,3.13938,-2.6998,0,1731.714,30.5,
1579,1,SBT2050,2,3,,1,2373,3.13751,-2.7002,0,1734.714,30.5,
1579,1,SBT2050,2,3,,1,2377,3.13589,-2.6998,0,1737.714,30.5,
1579,1,SBT2050,2,3,,1,2381,3.133757,-2.7002,0,1740.714,30.5,
1579,1,SBT2050,2,3,,1,2385,3.13221,-2.7001,0,1743.714,30.5,
1579,1,SBT2050,2,3,,1,2389,3.13007,-2.6999,0,1746.714,30.5,
1579,1,SBT2050,2,3,,1,2393,3.12821,-2.7002,0,1749.714,30.5,
1579,1,SBT2050,2,3,,1,2397,3.12625,-2.6997,0,1752.714,30.5,
1579,1,SBT2050,2,3,,1,2401,3.12418,-2.6999,0,1755.714,30.6,
1579,1,SBT2050,2,3,,1,2405,3.12254,-2.6998,0,1758.714,30.6,
1579,1,SBT2050,2,3,,1,2409,3.12043,-2.6999,0,1761.714,30.6,
1579,1,SBT2050,2,3,,1,2413,3.11849,-2.7003,0,1764.713,30.6,
1579,1,SBT2050,2,3,,1,2417,3.11632,-2.6999,0,1767.713,30.6,
1579,1,SBT2050,2,3,,1,2421,3.11467,-2.6999,0,1770.713,30.6,
1579,1,SBT2050,2,3,,1,2425,3.11267,-2.7,0,1773.713,30.6,
1579,1,SBT2050,2,3,,1,2429,3.11063,-2.6999,0,1776.713,30.7,
1579,1,SBT2050,2,3,,1,2433,3.108562,-2.6999,0,1779.713,30.7,
1579,1,SBT2050,2,3,,1,2437,3.10667,-2.6997,0,1782.713,30.7,
1579,1,SBT2050,2,3,,1,2441,3.10453,-2.7003,0,1785.713,30.7,
1579,1,SBT2050,2,3,,1,2445,3.10252,-2.6995,0,1788.713,30.7,
1579,1,SBT2050,2,3,,1,2449,3.10053,-2.6994,0,1791.713,30.7,
1579,1,SBT2050,2,3,,1,2453,3.09827,-2.6995,0,1794.713,30.7,
1579,1,SBT2050,2,3,,1,2457,3.096439,-2.6994,0,1797.713,30.7,
1579,1,SBT2050,2,3,,1,2461,3.09411,-2.6994,0,1800.713,30.7,
1579,1,SBT2050,2,3,,1,2465,3.09185,-2.6998,0,1803.713,30.8,
1579,1,SBT2050,2,3,,1,2469,3.08974,-2.7,0,1806.713,30.8,
1579,1,SBT2050,2,3,,1,2473,3.087657,-2.7001,0,1809.713,30.8,
1579,1,SBT2050,2,3,,1,2477,3.08541,-2.6998,0,1812.713,30.8,
1579,1,SBT2050,2,3,,1,2481,3.08328,-2.6998,0,1815.713,30.8,
1579,1,SBT2050,2,3,,1,2485,3.08095,-2.6997,0,1818.713,30.9,
1579,1,SBT2050,2,3,,1,2489,3.0788,-2.7002,0,1821.713,30.9,
1579,1,SBT2050,2,3,,1,2493,3.076625,-2.6997,0,1824.713,30.9,
1579,1,SBT2050,2,3,,1,2497,3.0745,-2.6998,0,1827.712,30.9,
1579,1,SBT2050,2,3,,1,2501,3.0723,-2.7001,0,1830.712,30.9,
1579,1,SBT2050,2,3,,1,2505,3.07006,-2.7001,0,1833.712,30.9,
1579,1,SBT2050,2,3,,1,2509,3.0677,-2.6998,0,1836.712,30.9,
1579,1,SBT2050,2,3,,1,2513,3.0651,-2.7,0,1839.712,31,
1579,1,SBT2050,2,3,,1,2517,3.06291,-2.7,0,1842.712,31,
1579,1,SBT2050,2,3,,1,2521,3.060554,-2.7,0,1845.712,31,
1579,1,SBT2050,2,3,,1,2525,3.058123,-2.6997,0,1848.712,31,
1579,1,SBT2050,2,3,,1,2529,3.05563,-2.7001,0,1851.712,31,
1579,1,SBT2050,2,3,,1,2533,3.053436,-2.6997,0,1854.712,31,
1579,1,SBT2050,2,3,,1,2537,3.05109,-2.7,0,1857.712,31,
1579,1,SBT2050,2,3,,1,2541,3.04873,-2.6998,0,1860.712,31.1,
1579,1,SBT2050,2,3,,1,2545,3.046433,-2.6997,0,1863.712,31.1,
1579,1,SBT2050,2,3,,1,2549,3.043658,-2.7,0,1866.712,31.1,
1579,1,SBT2050,2,3,,1,2553,3.04145,-2.6998,0,1869.711,31.1,
1579,1,SBT2050,2,3,,1,2557,3.03916,-2.6997,0,1872.711,31.1,
1579,1,SBT2050,2,3,,1,2561,3.03637,-2.7002,0,1875.711,31.2,
1579,1,SBT2050,2,3,,1,2565,3.03397,-2.6999,0,1878.711,31.2,
1579,1,SBT2050,2,3,,1,2569,3.03145,-2.6997,0,1881.711,31.2,
1579,1,SBT2050,2,3,,1,2573,3.02884,-2.7001,0,1884.711,31.2,
1579,1,SBT2050,2,3,,1,2577,3.02635,-2.7001,0,1887.711,31.2,
1579,1,SBT2050,2,3,,1,2581,3.02365,-2.6999,0,1890.711,31.3,
1579,1,SBT2050,2,3,,1,2585,3.021102,-2.7001,0,1893.711,31.3,
1579,1,SBT2050,2,3,,1,2589,3.01848,-2.6997,0,1896.711,31.3,
1579,1,SBT2050,2,3,,1,2593,3.01587,-2.6999,0,1899.711,31.3,
1579,1,SBT2050,2,3,,1,2597,3.01315,-2.6999,0,1902.711,31.3,
1579,1,SBT2050,2,3,,1,2601,3.01043,-2.6999,0,1905.711,31.3,
1579,1,SBT2050,2,3,,1,2605,3.00783,-2.6996,0,1908.711,31.3,
1579,1,SBT2050,2,3,,1,2609,3.00489,-2.6999,0,1911.711,31.4,
1579,1,SBT2050,2,3,,1,2613,3.0021,-2.6996,0,1914.711,31.4,
1579,1,SBT2050,2,3,,1,2617,2.999559,-2.6999,0,1917.711,31.4,
1579,1,SBT2050,2,3,,1,2621,2.99648,-2.6998,0,1920.711,31.4,
1579,1,SBT2050,2,3,,1,2625,2.99367,-2.6998,0,1923.711,31.5,
1579,1,SBT2050,2,3,,1,2629,2.99076,-2.6999,0,1926.711,31.5,
1579,1,SBT2050,2,3,,1,2633,2.988084,-2.6999,0,1929.71,31.5,
1579,1,SBT2050,2,3,,1,2637,2.98492,-2.6999,0,1932.71,31.5,
1579,1,SBT2050,2,3,,1,2641,2.981916,-2.6999,0,1935.71,31.5,
1579,1,SBT2050,2,3,,1,2645,2.979,-2.7001,0,1938.71,31.5,
1579,1,SBT2050,2,3,,1,2649,2.97608,-2.6998,0,1941.71,31.5,
1579,1,SBT2050,2,3,,1,2653,2.97305,-2.6998,0,1944.71,31.5,
1579,1,SBT2050,2,3,,1,2657,2.969763,-2.7001,0,1947.71,31.6,
1579,1,SBT2050,2,3,,1,2661,2.96659,-2.6998,0,1950.71,31.6,
1579,1,SBT2050,2,3,,1,2665,2.96341,-2.7001,0,1953.71,31.6,
1579,1,SBT2050,2,3,,1,2669,2.959891,-2.6997,0,1956.71,31.6,
1579,1,SBT2050,2,3,,1,2673,2.956823,-2.7001,0,1959.71,31.6,
1579,1,SBT2050,2,3,,1,2677,2.95361,-2.7002,0,1962.71,31.7,
1579,1,SBT2050,2,3,,1,2681,2.95032,-2.6998,0,1965.71,31.7,
1579,1,SBT2050,2,3,,1,2685,2.94705,-2.6997,0,1968.71,31.8,
1579,1,SBT2050,2,3,,1,2689,2.94352,-2.6999,0,1971.71,31.8,
1579,1,SBT2050,2,3,,1,2693,2.94012,-2.6999,0,1974.71,31.8,
1579,1,SBT2050,2,3,,1,2697,2.936682,-2.7,0,1977.71,31.8,
1579,1,SBT2050,2,3,,1,2701,2.9331,-2.7001,0,1980.71,31.9,
1579,1,SBT2050,2,3,,1,2705,2.9295,-2.7002,0,1983.71,31.9,
1579,1,SBT2050,2,3,,1,2709,2.92625,-2.7,0,1986.71,31.9,
1579,1,SBT2050,2,3,,1,2713,2.92233,-2.6998,0,1989.71,31.9,
1579,1,SBT2050,2,3,,1,2717,2.91882,-2.7001,0,1992.709,31.9,
1579,1,SBT2050,2,3,,1,2721,2.91504,-2.6994,0,1995.709,31.9,
1579,1,SBT2050,2,3,,1,2725,2.91141,-2.6999,0,1998.709,32,
1579,1,SBT2050,2,3,,1,2729,2.90749,-2.7002,0,2001.709,32,
1579,1,SBT2050,2,3,,1,2733,2.90384,-2.6999,0,2004.709,32,
1579,1,SBT2050,2,3,,1,2737,2.89978,-2.6999,0,2007.709,32,
1579,1,SBT2050,2,3,,1,2741,2.89571,-2.6997,0,2010.709,32.1,
1579,1,SBT2050,2,3,,1,2745,2.89151,-2.6999,0,2013.709,32.1,
1579,1,SBT2050,2,3,,1,2749,2.88751,-2.7001,0,2016.709,32.1,
1579,1,SBT2050,2,3,,1,2753,2.88317,-2.7002,0,2019.709,32.1,
1579,1,SBT2050,2,3,,1,2757,2.87895,-2.7002,0,2022.709,32.2,
1579,1,SBT2050,2,3,,1,2761,2.87454,-2.6999,0,2025.709,32.2,
1579,1,SBT2050,2,3,,1,2765,2.87027,-2.6999,0,2028.709,32.2,
1579,1,SBT2050,2,3,,1,2769,2.86554,-2.7001,0,2031.709,32.2,
1579,1,SBT2050,2,3,,1,2773,2.86104,-2.6998,0,2034.709,32.3,
1579,1,SBT2050,2,3,,1,2777,2.85645,-2.6998,0,2037.709,32.3,
1579,1,SBT2050,2,3,,1,2781,2.85157,-2.6998,0,2040.709,32.3,
1579,1,SBT2050,2,3,,1,2785,2.846595,-2.6997,0,2043.709,32.3,
1579,1,SBT2050,2,3,,1,2789,2.8418,-2.7001,0,2046.709,32.4,
1579,1,SBT2050,2,3,,1,2793,2.83665,-2.6998,0,2049.709,32.4,
1579,1,SBT2050,2,3,,1,2797,2.83166,-2.6999,0,2052.708,32.5,
1579,1,SBT2050,2,3,,1,2801,2.82634,-2.6999,0,2055.708,32.5,
1579,1,SBT2050,2,3,,1,2805,2.82101,-2.7,0,2058.708,32.5,
1579,1,SBT2050,2,3,,1,2809,2.81587,-2.7002,0,2061.708,32.5,
1579,1,SBT2050,2,3,,1,2813,2.810214,-2.6996,0,2064.708,32.6,
1579,1,SBT2050,2,3,,1,2817,2.80477,-2.7001,0,2067.708,32.6,
1579,1,SBT2050,2,3,,1,2821,2.79888,-2.6998,0,2070.708,32.7,
1579,1,SBT2050,2,3,,1,2825,2.79297,-2.6999,0,2073.708,32.7,
1579,1,SBT2050,2,3,,1,2829,2.78698,-2.7002,0,2076.708,32.7,
1579,1,SBT2050,2,3,,1,2833,2.781187,-2.7,0,2079.708,32.7,
1579,1,SBT2050,2,3,,1,2837,2.77501,-2.7,0,2082.708,32.8,
1579,1,SBT2050,2,3,,1,2841,2.76868,-2.6997,0,2085.708,32.8,
1579,1,SBT2050,2,3,,1,2845,2.76227,-2.6996,0,2088.708,32.9,
1579,1,SBT2050,2,3,,1,2849,2.7557,-2.7002,0,2091.708,32.9,
1579,1,SBT2050,2,3,,1,2853,2.74903,-2.7001,0,2094.708,32.9,
1579,1,SBT2050,2,3,,1,2857,2.74223,-2.7002,0,2097.708,33,
1579,1,SBT2050,2,3,,1,2861,2.73518,-2.7001,0,2100.708,33,
1579,1,SBT2050,2,3,,1,2865,2.72803,-2.6999,0,2103.708,33,
1579,1,SBT2050,2,3,,1,2869,2.72092,-2.6996,0,2106.708,33,
1579,1,SBT2050,2,3,,1,2873,2.71338,-2.7002,0,2109.708,33.1,
1579,1,SBT2050,2,3,,1,2877,2.7059,-2.7001,0,2112.707,33.2,
1579,1,SBT2050,2,3,,1,2881,2.69821,-2.6995,0,2115.707,33.2,
1579,1,SBT2050,2,3,,1,2885,2.690133,-2.7002,0,2118.707,33.3,
1579,1,SBT2050,2,3,,1,2889,2.68185,-2.6996,0,2121.707,33.3,
1579,1,SBT2050,2,3,,1,2893,2.67333,-2.7001,0,2124.707,33.3,
1579,1,SBT2050,2,3,,1,2897,2.66461,-2.7003,0,2127.707,33.4,
1579,1,SBT2050,2,3,,1,2901,2.65576,-2.6998,0,2130.707,33.5,
1579,1,SBT2050,2,3,,1,2905,2.64674,-2.6998,0,2133.707,33.5,
1579,1,SBT2050,2,3,,1,2909,2.63726,-2.6995,0,2136.707,33.6,
1579,1,SBT2050,2,3,,1,2913,2.62737,-2.7002,0,2139.707,33.6,
1579,1,SBT2050,2,3,,1,2917,2.6174,-2.7002,0,2142.707,33.7,
1579,1,SBT2050,2,3,,1,2921,2.60715,-2.6998,0,2145.707,33.7,
1579,1,SBT2050,2,3,,1,2925,2.5965,-2.7,0,2148.707,33.8,
1579,1,SBT2050,2,3,,1,2929,2.58555,-2.7001,0,2151.707,33.8,
1579,1,SBT2050,2,3,,1,2933,2.57419,-2.6999,0,2154.707,33.9,
1579,1,SBT2050,2,3,,1,2937,2.56251,-2.6999,0,2157.707,34,
1579,1,SBT2050,2,3,,1,2941,2.55045,-2.6998,0,2160.707,34,
1579,1,SBT2050,2,3,,1,2945,2.53789,-2.6998,0,2163.707,34.1,
1579,1,SBT2050,2,3,,1,2949,2.52464,-2.7001,0,2166.707,34.2,
1579,1,SBT2050,2,3,,1,2953,2.51138,-2.7001,0,2169.707,34.2,
1579,1,SBT2050,2,3,,1,2956.235,2.49996,-2.6998,0,2172.133,,
1579,1,SBT2050,2,3,,2,2960,2.98595,0,0,2172.133,34.3,
1579,1,SBT2050,2,3,,2,2964,3.091589,0,0,2172.133,34.4,
1579,1,SBT2050,2,3,,2,2968,3.13834,0,0,2172.133,34.3,
1579,1,SBT2050,2,3,,2,2972,3.166615,0,0,2172.133,34.2,
1579,1,SBT2050,2,3,,2,2976,3.18702,0,0,2172.133,34.1,
1579,1,SBT2050,2,3,,2,2980,3.20265,0,0,2172.133,34,
1579,1,SBT2050,2,3,,2,2984,3.2154,0,0,2172.133,33.9,
1579,1,SBT2050,2,3,,2,2988,3.22638,0,0,2172.133,33.8,
1579,1,SBT2050,2,3,,2,2992,3.23587,0,0,2172.133,33.7,
1579,1,SBT2050,2,3,,2,2996,3.24407,0,0,2172.133,33.6,
1579,1,SBT2050,2,3,,2,3000,3.251347,0,0,2172.133,33.5,
1579,1,SBT2050,2,3,,2,3004,3.258146,0,0,2172.133,33.3,
1579,1,SBT2050,2,3,,2,3008,3.26443,0,0,2172.133,33.2,
1579,1,SBT2050,2,3,,2,3012,3.269656,0,0,2172.133,33.1,
1579,1,SBT2050,2,3,,2,3016,3.274695,0,0,2172.133,33,
1579,1,SBT2050,2,3,,2,3016.235,3.27443,-9.9E-05,0,2172.133,,