File: ORRG/Test1461.csv
Request Year:,2018,,,,,,,,,,,,
Test:,1461,,,,,,,,,,,,
Test Description:,,,,,,,,,,,,,
TestRegime Name:,Aging_Performance,,,,,,,,,,,,
TestRegime Suffix:,SHP_LC,,,,,,,,,,,,
TestRegime CellSize:,18650,,,,,,,,,,,,
TestRegime Version:,1,,,,,,,,,,,,
Number Of Cells:,1,,,,,,,,,,,,
LotID:,,,,,,,,,,,,,
Lot Description:,,,,,,,,,,,,,
Date Made:,1/21/2003 12:00 AM,,,,,,,,,,,,
Origin:,Other,,,,,,,,,,,,
Requestor:,Admin,,,,,,,,,,,,
Product ID:,Default product,,,,,,,,,,,,
Storage Temp:,R.T./AMB,,,,,,,,,,,,
Storage Delay:,0 days,,,,,,,,,,,,
Test Temp:,R.T./AMB,,,,,,,,,,,,
Start Time:,4/5/2018 8:54 AM,,,,,,,,,,,,
End Time:,4/5/2018 3:11 PM,,,,,,,,,,,,
Operator Instructions:,,,,,,,,,,,,,
Test,Cell,Rack,Shelf,Position,Cell ID,Step,Total Time (Seconds),Voltage (V),Current (A),Charge Capacity (mAh),Discharge Capacity (mAh),TC1 (Â°C),
1461,1,SBT2050,2,3,,0,1,3.32747,0,0,0,24.7,
1461,1,SBT2050,2,3,,0,31,3.32769,0,0,0,24.7,
1461,1,SBT2050,2,3,,0,61,3.32757,0,0,0,24.7,
1461,1,SBT2050,2,3,,0,91,3.32755,0,0,0,24.8,
1461,1,SBT2050,2,3,,0,121,3.32756,0,0,0,24.8,
1461,1,SBT2050,2,3,,0,151,3.32758,0,0,0,24.9,
1461,1,SBT2050,2,3,,0,181,3.32758,0,0,0,24.9,
1461,1,SBT2050,2,3,,0,211,3.32738,0,0,0,25,
1461,1,SBT2050,2,3,,0,241,3.32744,0,0,0,25,
1461,1,SBT2050,2,3,,0,271,3.32738,0,0,0,25,
1461,1,SBT2050,2,3,,1,301,3.040817,-2.9359,0,0.814,25,
1461,1,SBT2050,2,3,,1,331,2.499067,-2.0548,0,23.535,25.9,
1461,1,SBT2050,2,3,,1,361,2.49968,-1.5811,0,38.27,27,
1461,1,SBT2050,2,3,,1,391,2.49976,-1.3634,0,50.469,27.7,
1461,1,SBT2050,2,3,,1,421,2.49977,-1.2164,0,61.19,28.1,
1461,1,SBT2050,2,3,,1,451,2.49976,-1.0945,0,70.807,28.5,
1461,1,SBT2050,2,3,,1,481,2.499723,-0.9889,0,79.477,28.7,
1461,1,SBT2050,2,3,,1,511,2.49984,-0.8991,0,87.334,28.8,
1461,1,SBT2050,2,3,,1,541,2.49982,-0.8192,0,94.482,28.8,
1461,1,SBT2050,2,3,,1,571,2.49979,-0.7486,0,101.006,28.8,
1461,1,SBT2050,2,3,,1,601,2.499878,-0.6862,0,106.979,28.8,
1461,1,SBT2050,2,3,,1,631,2.49982,-0.6308,0,112.463,28.8,
1461,1,SBT2050,2,3,,1,661,2.49977,-0.5803,0,117.505,28.6,
1461,1,SBT2050,2,3,,1,691,2.49994,-0.5349,0,122.148,28.5,
1461,1,SBT2050,2,3,,1,721,2.49984,-0.4933,0,126.428,28.4,
1461,1,SBT2050,2,3,,1,751,2.49976,-0.45355,0,130.37,28.2,
1461,1,SBT2050,2,3,,1,781,2.49979,-0.41892,0,134.004,28.1,
1461,1,SBT2050,2,3,,1,811,2.49978,-0.38713,0,137.362,27.9,
1461,1,SBT2050,2,3,,1,841,2.499866,-0.35849,0,140.467,27.8,
1461,1,SBT2050,2,3,,1,871,2.499723,-0.33099,0,143.338,27.7,
1461,1,SBT2050,2,3,,1,901,2.499866,-0.30546,0,145.991,27.5,
1461,1,SBT2050,2,3,,1,931,2.49984,-0.28202,0,148.44,27.4,
1461,1,SBT2050,2,3,,1,961,2.4999,-0.25934,0,150.694,27.2,
1461,1,SBT2050,2,3,,1,991,2.49976,-0.23733,0,152.764,27.1,
1461,1,SBT2050,2,3,,1,1021,2.499866,-0.21676,0,154.656,27,
1461,1,SBT2050,2,3,,1,1051,2.49978,-0.19656,0,156.376,26.8,
1461,1,SBT2050,2,3,,1,1081,2.49977,-0.17628,0,157.928,26.7,
1461,1,SBT2050,2,3,,1,1111,2.49952,-0.15593,0,159.312,26.6,
1461,1,SBT2050,2,3,,1,1141,2.4996,-0.13581,0,160.527,26.5,
1461,1,SBT2050,2,3,,1,1171,2.4997,-0.11614,0,161.576,26.4,
1461,1,SBT2050,2,3,,1,1201,2.499711,-0.09844,0,162.468,26.3,
1461,1,SBT2050,2,3,,1,1231,2.49977,-0.08303,0,163.222,26.1,
1461,1,SBT2050,2,3,,1,1261,2.49979,-0.07033,0,163.859,26,
1461,1,SBT2050,2,3,,1,1291,2.49978,-0.05988,0,164.4,26,
1461,1,SBT2050,2,3,,1,1321,2.49979,-0.05137,0,164.863,25.9,
1461,1,SBT2050,2,3,,1,1351,2.49983,-0.044725,0,165.262,25.8,
1461,1,SBT2050,2,3,,1,1381,2.49985,-0.039478,0,165.613,25.7,
1461,1,SBT2050,2,3,,1,1411,2.49985,-0.035442,0,165.924,25.6,
1461,1,SBT2050,2,3,,1,1441,2.50001,-0.032302,0,166.205,25.6,
1461,1,SBT2050,2,3,,1,1471,2.49999,-0.029767,0,166.463,25.5,
1461,1,SBT2050,2,3,,1,1501,2.49975,-0.027715,0,166.702,25.5,
1461,1,SBT2050,2,3,,1,1531,2.49996,-0.0261,0,166.926,25.4,
1461,1,SBT2050,2,3,,1,1561,2.49989,-0.024719,0,167.139,25.4,
1461,1,SBT2050,2,3,,1,1591,2.5001,-0.023672,0,167.34,25.3,
1461,1,SBT2050,2,3,,1,1621,2.500045,-0.022803,0,167.533,25.3,
1461,1,SBT2050,2,3,,1,1651,2.49995,-0.021814,0,167.719,25.3,
1461,1,SBT2050,2,3,,1,1681,2.50001,-0.021098,0,167.897,25.3,
1461,1,SBT2050,2,3,,1,1711,2.50007,-0.020142,0,168.069,25.2,
1461,1,SBT2050,2,3,,1,1741,2.50009,-0.019639,0,168.235,25.2,
1461,1,SBT2050,2,3,,1,1771,2.49996,-0.019058,0,168.396,25.2,
1461,1,SBT2050,2,3,,1,1801,2.50015,-0.018437,0,168.552,25.2,
1461,1,SBT2050,2,3,,1,1831,2.49994,-0.018054,0,168.704,25.2,
1461,1,SBT2050,2,3,,1,1861,2.50009,-0.017634,0,168.852,25.2,
1461,1,SBT2050,2,3,,1,1891,2.50006,-0.017097,0,168.996,25.2,
1461,1,SBT2050,2,3,,1,1921,2.499878,-0.016614,0,169.137,25.2,
1461,1,SBT2050,2,3,,1,1951,2.50016,-0.016244,0,169.274,25.2,
1461,1,SBT2050,2,3,,1,1981,2.50006,-0.01592,0,169.407,25.1,
1461,1,SBT2050,2,3,,1,2011,2.5001,-0.015595,0,169.538,25.1,
1461,1,SBT2050,2,3,,1,2041,2.49993,-0.015153,0,169.666,25.1,
1461,1,SBT2050,2,3,,1,2071,2.49995,-0.014815,0,169.791,25.1,
1461,1,SBT2050,2,3,,1,2101,2.50008,-0.014525,0,169.913,25.1,
1461,1,SBT2050,2,3,,1,2131,2.500033,-0.014428,0,170.032,25.1,
1461,1,SBT2050,2,3,,1,2161,2.49999,-0.013952,0,170.149,25.1,
1461,1,SBT2050,2,3,,1,2191,2.49996,-0.013434,0,170.263,25.1,
1461,1,SBT2050,2,3,,1,2221,2.500033,-0.01332,0,170.374,25.1,
1461,1,SBT2050,2,3,,1,2251,2.50008,-0.013163,0,170.484,25.1,
1461,1,SBT2050,2,3,,1,2281,2.49994,-0.012732,0,170.591,25.1,
1461,1,SBT2050,2,3,,1,2311,2.5001,-0.012417,0,170.695,25,
1461,1,SBT2050,2,3,,1,2341,2.50009,-0.012267,0,170.797,25,
1461,1,SBT2050,2,3,,1,2371,2.50009,-0.012046,0,170.898,25,
1461,1,SBT2050,2,3,,1,2401,2.500033,-0.011629,0,170.996,25,
1461,1,SBT2050,2,3,,1,2431,2.50001,-0.011374,0,171.092,25,
1461,1,SBT2050,2,3,,1,2461,2.49968,-0.011214,0,171.187,25,
1461,1,SBT2050,2,3,,1,2491,2.5001,-0.011194,0,171.28,25,
1461,1,SBT2050,2,3,,1,2521,2.49985,-0.010924,0,171.371,25,
1461,1,SBT2050,2,3,,1,2551,2.499866,-0.010604,0,171.461,25,
1461,1,SBT2050,2,3,,1,2581,2.50002,-0.010609,0,171.55,25,
1461,1,SBT2050,2,3,,1,2611,2.50002,-0.010444,0,171.637,25,
1461,1,SBT2050,2,3,,1,2641,2.49993,-0.010191,0,171.723,25,
1461,1,SBT2050,2,3,,2,2670,3.19397,2.936,14.182,171.756,25,
1461,1,SBT2050,2,3,,2,2700,3.352452,2.9354,38.648,171.756,25.2,
1461,1,SBT2050,2,3,,2,2730,3.44337,2.9364,63.114,171.756,25.4,
1461,1,SBT2050,2,3,,2,2760,3.50529,2.9357,87.58,171.756,25.7,
1461,1,SBT2050,2,3,,2,2790,3.54942,2.936,112.047,171.756,25.9,
1461,1,SBT2050,2,3,,2,2820,3.568222,2.9361,136.513,171.756,26.2,
1461,1,SBT2050,2,3,,2,2850,3.573486,2.9358,160.979,171.756,26.5,
1461,1,SBT2050,2,3,,2,2880,3.5775,2.936,185.445,171.756,26.8,
1461,1,SBT2050,2,3,,2,2910,3.58258,2.9363,209.911,171.756,27.1,
1461,1,SBT2050,2,3,,2,2940,3.58837,2.9356,234.377,171.756,27.4,
1461,1,SBT2050,2,3,,2,2970,3.594648,2.936,258.843,171.756,27.6,
1461,1,SBT2050,2,3,,2,3000,3.60075,2.936,283.31,171.756,27.9,
1461,1,SBT2050,2,3,,2,3030,3.60715,2.936,307.776,171.756,28,
1461,1,SBT2050,2,3,,2,3060,3.6131,2.9357,332.242,171.756,28.2,
1461,1,SBT2050,2,3,,2,3090,3.61903,2.9359,356.708,171.756,28.3,
1461,1,SBT2050,2,3,,2,3120,3.6253,2.9355,381.174,171.756,28.5,
1461,1,SBT2050,2,3,,2,3150,3.63147,2.9355,405.64,171.756,28.6,
1461,1,SBT2050,2,3,,2,3180,3.63733,2.9361,430.106,171.756,28.7,
1461,1,SBT2050,2,3,,2,3210,3.64273,2.9359,454.573,171.756,28.7,
1461,1,SBT2050,2,3,,2,3240,3.64784,2.9357,479.039,171.756,28.7,
1461,1,SBT2050,2,3,,2,3270,3.65277,2.936,503.505,171.756,28.8,
1461,1,SBT2050,2,3,,2,3300,3.657302,2.9355,527.971,171.756,28.8,
1461,1,SBT2050,2,3,,2,3330,3.66186,2.9357,552.438,171.756,28.8,
1461,1,SBT2050,2,3,,2,3360,3.66645,2.9357,576.904,171.756,28.8,
1461,1,SBT2050,2,3,,2,3390,3.67041,2.9358,601.37,171.756,28.8,
1461,1,SBT2050,2,3,,2,3420,3.67502,2.9355,625.836,171.756,28.8,
1461,1,SBT2050,2,3,,2,3450,3.67948,2.9362,650.302,171.756,28.8,
1461,1,SBT2050,2,3,,2,3480,3.68443,2.936,674.768,171.756,28.8,
1461,1,SBT2050,2,3,,2,3510,3.68916,2.9357,699.235,171.756,28.8,
1461,1,SBT2050,2,3,,2,3540,3.69416,2.936,723.701,171.756,28.8,
1461,1,SBT2050,2,3,,2,3570,3.69911,2.9359,748.167,171.756,28.8,
1461,1,SBT2050,2,3,,2,3600,3.70426,2.936,772.633,171.756,28.8,
1461,1,SBT2050,2,3,,2,3630,3.70956,2.9361,797.099,171.756,28.9,
1461,1,SBT2050,2,3,,2,3660,3.71485,2.9358,821.565,171.756,28.8,
1461,1,SBT2050,2,3,,2,3690,3.71954,2.936,846.032,171.756,28.8,
1461,1,SBT2050,2,3,,2,3720,3.72504,2.9358,870.498,171.756,28.8,
1461,1,SBT2050,2,3,,2,3750,3.73021,2.9363,894.964,171.756,28.9,
1461,1,SBT2050,2,3,,2,3780,3.73516,2.9359,919.43,171.756,28.9,
1461,1,SBT2050,2,3,,2,3810,3.73996,2.936,943.896,171.756,28.9,
1461,1,SBT2050,2,3,,2,3840,3.74521,2.9359,968.362,171.756,28.9,
1461,1,SBT2050,2,3,,2,3870,3.75049,2.9359,992.829,171.756,28.9,
1461,1,SBT2050,2,3,,2,3900,3.75578,2.9355,1017.295,171.756,28.9,
1461,1,SBT2050,2,3,,2,3930,3.76094,2.936,1041.761,171.756,28.9,
1461,1,SBT2050,2,3,,2,3960,3.766082,2.9357,1066.227,171.756,28.9,
1461,1,SBT2050,2,3,,2,3990,3.77191,2.936,1090.694,171.756,28.9,
1461,1,SBT2050,2,3,,2,4020,3.777126,2.9357,1115.16,171.756,28.9,
1461,1,SBT2050,2,3,,2,4050,3.782574,2.9358,1139.626,171.756,28.9,
1461,1,SBT2050,2,3,,2,4080,3.78864,2.9361,1164.092,171.756,28.9,
1461,1,SBT2050,2,3,,2,4110,3.794146,2.9356,1188.558,171.756,28.9,
1461,1,SBT2050,2,3,,2,4140,3.79983,2.9357,1213.025,171.756,29,
1461,1,SBT2050,2,3,,2,4170,3.80536,2.9362,1237.491,171.756,29,
1461,1,SBT2050,2,3,,2,4200,3.81162,2.9357,1261.957,171.756,29,
1461,1,SBT2050,2,3,,2,4230,3.81809,2.9357,1286.423,171.756,29,
1461,1,SBT2050,2,3,,2,4260,3.82479,2.9358,1310.889,171.756,29,
1461,1,SBT2050,2,3,,2,4290,3.83104,2.9362,1335.355,171.756,29.1,
1461,1,SBT2050,2,3,,2,4320,3.8378,2.9358,1359.822,171.756,29,
1461,1,SBT2050,2,3,,2,4350,3.84471,2.9359,1384.288,171.756,29.1,
1461,1,SBT2050,2,3,,2,4380,3.85186,2.9365,1408.754,171.756,29.1,
1461,1,SBT2050,2,3,,2,4410,3.8592,2.9359,1433.22,171.756,29.2,
1461,1,SBT2050,2,3,,2,4440,3.86636,2.9358,1457.686,171.756,29.2,
1461,1,SBT2050,2,3,,2,4470,3.87461,2.936,1482.152,171.756,29.2,
1461,1,SBT2050,2,3,,2,4500,3.8824,2.9358,1506.619,171.756,29.2,
1461,1,SBT2050,2,3,,2,4530,3.89023,2.9359,1531.085,171.756,29.2,
1461,1,SBT2050,2,3,,2,4560,3.89853,2.9358,1555.551,171.756,29.2,
1461,1,SBT2050,2,3,,2,4590,3.90736,2.9358,1580.017,171.756,29.2,
1461,1,SBT2050,2,3,,2,4620,3.91546,2.9359,1604.483,171.756,29.3,
1461,1,SBT2050,2,3,,2,4650,3.92413,2.9358,1628.95,171.756,29.3,
1461,1,SBT2050,2,3,,2,4680,3.9329,2.9365,1653.416,171.756,29.3,
1461,1,SBT2050,2,3,,2,4710,3.941756,2.9362,1677.882,171.756,29.3,
1461,1,SBT2050,2,3,,2,4740,3.95057,2.9356,1702.348,171.756,29.4,
1461,1,SBT2050,2,3,,2,4770,3.95956,2.936,1726.814,171.756,29.4,
1461,1,SBT2050,2,3,,2,4800,3.96815,2.9359,1751.281,171.756,29.4,
1461,1,SBT2050,2,3,,2,4830,3.977058,2.9361,1775.747,171.756,29.4,
1461,1,SBT2050,2,3,,2,4860,3.98589,2.9361,1800.213,171.756,29.4,
1461,1,SBT2050,2,3,,2,4890,3.99491,2.9359,1824.679,171.756,29.5,
1461,1,SBT2050,2,3,,2,4920,4.003558,2.9361,1849.146,171.756,29.5,
1461,1,SBT2050,2,3,,2,4950,4.01237,2.9357,1873.612,171.756,29.5,
1461,1,SBT2050,2,3,,2,4980,4.02144,2.9362,1898.078,171.756,29.6,
1461,1,SBT2050,2,3,,2,5010,4.03005,2.936,1922.544,171.756,29.6,
1461,1,SBT2050,2,3,,2,5040,4.03875,2.9362,1947.01,171.756,29.6,
1461,1,SBT2050,2,3,,2,5070,4.04766,2.9357,1971.477,171.756,29.6,
1461,1,SBT2050,2,3,,2,5100,4.05588,2.9361,1995.943,171.756,29.6,
1461,1,SBT2050,2,3,,2,5130,4.064646,2.936,2020.409,171.756,29.6,
1461,1,SBT2050,2,3,,2,5160,4.073182,2.9358,2044.875,171.756,29.6,
1461,1,SBT2050,2,3,,2,5190,4.08201,2.936,2069.341,171.756,29.6,
1461,1,SBT2050,2,3,,2,5220,4.0904,2.9363,2093.808,171.756,29.6,
1461,1,SBT2050,2,3,,2,5250,4.0993,2.936,2118.274,171.756,29.6,
1461,1,SBT2050,2,3,,2,5280,4.10789,2.9361,2142.74,171.756,29.7,
1461,1,SBT2050,2,3,,2,5310,4.116822,2.9355,2167.206,171.756,29.7,
1461,1,SBT2050,2,3,,2,5340,4.125436,2.9357,2191.672,171.756,29.7,
1461,1,SBT2050,2,3,,2,5370,4.1333,2.9358,2216.139,171.756,29.7,
1461,1,SBT2050,2,3,,2,5400,4.14219,2.9365,2240.605,171.756,29.7,
1461,1,SBT2050,2,3,,2,5430,4.14992,2.9165,2265.064,171.756,29.7,
1461,1,SBT2050,2,3,,2,5460,4.15003,2.7286,2288.542,171.756,29.7,
1461,1,SBT2050,2,3,,2,5490,4.15003,2.5742,2310.624,171.756,29.7,
1461,1,SBT2050,2,3,,2,5520,4.14999,2.4241,2331.451,171.756,29.6,
1461,1,SBT2050,2,3,,2,5550,4.150432,2.2825,2351.073,171.756,29.5,
1461,1,SBT2050,2,3,,2,5580,4.15004,2.1451,2369.519,171.756,29.4,
1461,1,SBT2050,2,3,,2,5610,4.15022,2.0169,2386.851,171.756,29.3,
1461,1,SBT2050,2,3,,2,5640,4.1503,1.894,2403.142,171.756,29.1,
1461,1,SBT2050,2,3,,2,5670,4.14998,1.7801,2418.451,171.756,28.9,
1461,1,SBT2050,2,3,,2,5700,4.14995,1.6732,2432.832,171.756,28.7,
1461,1,SBT2050,2,3,,2,5730,4.15013,1.5717,2446.353,171.756,28.6,
1461,1,SBT2050,2,3,,2,5760,4.15025,1.4812,2459.081,171.756,28.4,
1461,1,SBT2050,2,3,,2,5790,4.15005,1.3961,2471.074,171.756,28.2,
1461,1,SBT2050,2,3,,2,5820,4.14999,1.3159,2482.375,171.756,28.1,
1461,1,SBT2050,2,3,,2,5850,4.15005,1.2466,2493.044,171.756,27.9,
1461,1,SBT2050,2,3,,2,5880,4.15003,1.1766,2503.136,171.756,27.8,
1461,1,SBT2050,2,3,,2,5910,4.15024,1.1169,2512.691,171.756,27.6,
1461,1,SBT2050,2,3,,2,5940,4.15019,1.0592,2521.751,171.756,27.5,
1461,1,SBT2050,2,3,,2,5970,4.150086,1.0077,2530.366,171.756,27.3,
1461,1,SBT2050,2,3,,2,6000,4.15028,0.96,2538.561,171.756,27.2,
1461,1,SBT2050,2,3,,2,6030,4.150086,0.9172,2546.382,171.756,27,
1461,1,SBT2050,2,3,,2,6060,4.15005,0.8757,2553.853,171.756,26.9,
1461,1,SBT2050,2,3,,2,6090,4.15013,0.8411,2561.008,171.756,26.8,
1461,1,SBT2050,2,3,,2,6120,4.1498,0.8062,2567.875,171.756,26.7,
1461,1,SBT2050,2,3,,2,6150,4.15021,0.7759,2574.466,171.756,26.6,
1461,1,SBT2050,2,3,,2,6180,4.150086,0.7475,2580.812,171.756,26.5,
1461,1,SBT2050,2,3,,2,6210,4.14991,0.7205,2586.924,171.756,26.4,
1461,1,SBT2050,2,3,,2,6240,4.15019,0.6966,2592.836,171.756,26.4,
1461,1,SBT2050,2,3,,2,6270,4.15,0.6757,2598.551,171.756,26.2,
1461,1,SBT2050,2,3,,2,6300,4.15031,0.6541,2604.08,171.756,26.2,
1461,1,SBT2050,2,3,,2,6330,4.14997,0.6315,2609.433,171.756,26.1,
1461,1,SBT2050,2,3,,2,6360,4.14993,0.614,2614.631,171.756,26.1,
1461,1,SBT2050,2,3,,2,6390,4.15003,0.5973,2619.672,171.756,26,
1461,1,SBT2050,2,3,,2,6420,4.15005,0.5809,2624.58,171.756,26,
1461,1,SBT2050,2,3,,2,6450,4.15017,0.564,2629.355,171.756,25.9,
1461,1,SBT2050,2,3,,2,6480,4.15012,0.5498,2633.999,171.756,25.9,
1461,1,SBT2050,2,3,,2,6510,4.15012,0.5372,2638.526,171.756,25.8,
1461,1,SBT2050,2,3,,2,6540,4.150074,0.5236,2642.947,171.756,25.8,
1461,1,SBT2050,2,3,,2,6570,4.1499,0.5103,2647.255,171.756,25.8,
1461,1,SBT2050,2,3,,2,6600,4.15005,0.4984,2651.459,171.756,25.7,
1461,1,SBT2050,2,3,,2,6630,4.15003,0.4861,2655.558,171.756,25.7,
1461,1,SBT2050,2,3,,2,6660,4.14988,0.47293,2659.554,171.756,25.6,
1461,1,SBT2050,2,3,,2,6690,4.15017,0.46245,2663.455,171.756,25.6,
1461,1,SBT2050,2,3,,2,6720,4.15011,0.45215,2667.263,171.756,25.6,
1461,1,SBT2050,2,3,,2,6750,4.1499,0.442,2670.988,171.756,25.6,
1461,1,SBT2050,2,3,,2,6780,4.14994,0.43255,2674.627,171.756,25.6,
1461,1,SBT2050,2,3,,2,6810,4.15019,0.42216,2678.188,171.756,25.6,
1461,1,SBT2050,2,3,,2,6840,4.15017,0.41188,2681.667,171.756,25.5,
1461,1,SBT2050,2,3,,2,6870,4.15005,0.40283,2685.067,171.756,25.5,
1461,1,SBT2050,2,3,,2,6900,4.15011,0.39404,2688.388,171.756,25.5,
1461,1,SBT2050,2,3,,2,6930,4.14992,0.38682,2691.64,171.756,25.4,
1461,1,SBT2050,2,3,,2,6960,4.150086,0.37689,2694.822,171.756,25.4,
1461,1,SBT2050,2,3,,2,6990,4.15005,0.36719,2697.927,171.756,25.4,
1461,1,SBT2050,2,3,,2,7020,4.150074,0.3603,2700.957,171.756,25.4,
1461,1,SBT2050,2,3,,2,7050,4.15015,0.35241,2703.921,171.756,25.3,
1461,1,SBT2050,2,3,,2,7080,4.15015,0.34425,2706.829,171.756,25.3,
1461,1,SBT2050,2,3,,2,7110,4.15023,0.33735,2709.666,171.756,25.3,
1461,1,SBT2050,2,3,,2,7140,4.14985,0.32902,2712.446,171.756,25.3,
1461,1,SBT2050,2,3,,2,7170,4.15021,0.32304,2715.162,171.756,25.3,
1461,1,SBT2050,2,3,,2,7200,4.14972,0.31512,2717.819,171.756,25.2,
1461,1,SBT2050,2,3,,2,7230,4.15023,0.30863,2720.418,171.756,25.2,
1461,1,SBT2050,2,3,,2,7260,4.14981,0.30077,2722.958,171.756,25.2,
1461,1,SBT2050,2,3,,2,7290,4.15015,0.29434,2725.433,171.756,25.2,
1461,1,SBT2050,2,3,,2,7320,4.14998,0.28806,2727.857,171.756,25.2,
1461,1,SBT2050,2,3,,2,7350,4.14999,0.28278,2730.234,171.756,25.2,
1461,1,SBT2050,2,3,,2,7380,4.15017,0.27665,2732.564,171.756,25.2,
1461,1,SBT2050,2,3,,2,7410,4.15013,0.26972,2734.84,171.756,25.2,
1461,1,SBT2050,2,3,,2,7440,4.15044,0.26444,2737.067,171.756,25.2,
1461,1,SBT2050,2,3,,2,7470,4.14986,0.25943,2739.247,171.756,25.2,
1461,1,SBT2050,2,3,,2,7500,4.15012,0.25271,2741.382,171.756,25.2,
1461,1,SBT2050,2,3,,2,7530,4.15,0.24703,2743.46,171.756,25.2,
1461,1,SBT2050,2,3,,2,7560,4.150086,0.242,2745.495,171.756,25.2,
1461,1,SBT2050,2,3,,2,7590,4.15003,0.23651,2747.489,171.756,25.2,
1461,1,SBT2050,2,3,,2,7620,4.15011,0.23149,2749.44,171.756,25.2,
1461,1,SBT2050,2,3,,2,7650,4.150074,0.22658,2751.351,171.756,25.2,
1461,1,SBT2050,2,3,,2,7680,4.15005,0.2219,2753.219,171.756,25.1,
1461,1,SBT2050,2,3,,2,7710,4.15017,0.21594,2755.045,171.756,25.1,
1461,1,SBT2050,2,3,,2,7740,4.14994,0.21189,2756.831,171.756,25.1,
1461,1,SBT2050,2,3,,2,7770,4.150098,0.20764,2758.577,171.756,25.1,
1461,1,SBT2050,2,3,,2,7800,4.14995,0.20268,2760.288,171.756,25.1,
1461,1,SBT2050,2,3,,2,7830,4.15001,0.19821,2761.958,171.756,25.1,
1461,1,SBT2050,2,3,,2,7860,4.15015,0.19455,2763.595,171.756,25.1,
1461,1,SBT2050,2,3,,2,7890,4.15012,0.18979,2765.196,171.756,25.1,
1461,1,SBT2050,2,3,,2,7920,4.14991,0.18597,2766.76,171.756,25.1,
1461,1,SBT2050,2,3,,2,7950,4.150086,0.18192,2768.294,171.756,25.1,
1461,1,SBT2050,2,3,,2,7980,4.15004,0.17862,2769.795,171.756,25.1,
1461,1,SBT2050,2,3,,2,8010,4.15004,0.17433,2771.265,171.756,25.1,
1461,1,SBT2050,2,3,,2,8040,4.15019,0.17084,2772.708,171.756,25.1,
1461,1,SBT2050,2,3,,2,8070,4.15028,0.16738,2774.118,171.756,25.1,
1461,1,SBT2050,2,3,,2,8100,4.150086,0.16368,2775.495,171.756,25,
1461,1,SBT2050,2,3,,2,8130,4.14998,0.16047,2776.846,171.756,25.1,
1461,1,SBT2050,2,3,,2,8160,4.15003,0.15695,2778.165,171.756,25.1,
1461,1,SBT2050,2,3,,2,8190,4.15017,0.15344,2779.457,171.756,25.1,
1461,1,SBT2050,2,3,,2,8220,4.15018,0.15056,2780.721,171.756,25.1,
1461,1,SBT2050,2,3,,2,8250,4.1499,0.14832,2781.963,171.756,25.1,
1461,1,SBT2050,2,3,,2,8280,4.15003,0.14416,2783.178,171.756,25.1,
1461,1,SBT2050,2,3,,2,8310,4.150098,0.14061,2784.365,171.756,25.1,
1461,1,SBT2050,2,3,,2,8340,4.14984,0.13805,2785.524,171.756,25.1,
1461,1,SBT2050,2,3,,2,8370,4.15001,0.13524,2786.663,171.756,25.1,
1461,1,SBT2050,2,3,,2,8400,4.14993,0.13186,2787.778,171.756,25.1,
1461,1,SBT2050,2,3,,2,8430,4.15013,0.12955,2788.868,171.756,25.1,
1461,1,SBT2050,2,3,,2,8460,4.14999,0.12691,2789.939,171.756,25.1,
1461,1,SBT2050,2,3,,2,8490,4.14985,0.12363,2790.981,171.756,25.1,
1461,1,SBT2050,2,3,,2,8520,4.150074,0.12175,2792.001,171.756,25.1,
1461,1,SBT2050,2,3,,2,8550,4.15003,0.11899,2793.004,171.756,25.1,
1461,1,SBT2050,2,3,,2,8580,4.15003,0.11725,2793.99,171.756,25.1,
1461,1,SBT2050,2,3,,2,8610,4.150074,0.1145,2794.954,171.756,25.1,
1461,1,SBT2050,2,3,,2,8640,4.15003,0.11153,2795.896,171.756,25,
1461,1,SBT2050,2,3,,2,8670,4.15012,0.11022,2796.819,171.756,25,
1461,1,SBT2050,2,3,,2,8700,4.15001,0.10731,2797.727,171.756,25,
1461,1,SBT2050,2,3,,2,8730,4.14992,0.10542,2798.614,171.756,25,
1461,1,SBT2050,2,3,,2,8760,4.14991,0.103,2799.481,171.756,25,
1461,1,SBT2050,2,3,,2,8790,4.149776,0.10129,2800.332,171.756,25,
1461,1,SBT2050,2,3,,2,8820,4.15019,0.09821,2801.164,171.756,25,
1461,1,SBT2050,2,3,,2,8850,4.150098,0.09601,2801.974,171.756,25,
1461,1,SBT2050,2,3,,2,8880,4.15012,0.09496,2802.772,171.756,25,
1461,1,SBT2050,2,3,,2,8910,4.14992,0.0927,2803.554,171.756,25,
1461,1,SBT2050,2,3,,2,8940,4.150062,0.09161,2804.322,171.756,25,
1461,1,SBT2050,2,3,,2,8970,4.15029,0.08894,2805.075,171.756,25,
1461,1,SBT2050,2,3,,2,9000,4.150086,0.08707,2805.81,171.756,25,
1461,1,SBT2050,2,3,,2,9030,4.14992,0.08542,2806.528,171.756,25,
1461,1,SBT2050,2,3,,2,9060,4.15016,0.08459,2807.239,171.756,25,
1461,1,SBT2050,2,3,,2,9090,4.14999,0.08245,2807.936,171.756,25,
1461,1,SBT2050,2,3,,2,9120,4.14994,0.08166,2808.618,171.756,25,
1461,1,SBT2050,2,3,,2,9150,4.14999,0.0794,2809.287,171.756,25,
1461,1,SBT2050,2,3,,2,9180,4.14986,0.07734,2809.937,171.756,25,
1461,1,SBT2050,2,3,,2,9210,4.15003,0.07605,2810.577,171.756,25,
1461,1,SBT2050,2,3,,2,9240,4.14985,0.07514,2811.207,171.756,25,
1461,1,SBT2050,2,3,,2,9270,4.15004,0.07303,2811.821,171.756,25,
1461,1,SBT2050,2,3,,2,9300,4.14994,0.07228,2812.427,171.756,25,
1461,1,SBT2050,2,3,,2,9330,4.15026,0.07071,2813.022,171.756,25,
1461,1,SBT2050,2,3,,2,9360,4.14992,0.06954,2813.604,171.756,25,
1461,1,SBT2050,2,3,,2,9390,4.14985,0.06811,2814.177,171.756,25,
1461,1,SBT2050,2,3,,2,9420,4.14995,0.06626,2814.738,171.756,25.1,
1461,1,SBT2050,2,3,,2,9450,4.15,0.06587,2815.288,171.756,25,
1461,1,SBT2050,2,3,,2,9480,4.14999,0.0639,2815.827,171.756,25,
1461,1,SBT2050,2,3,,2,9510,4.14998,0.06264,2816.356,171.756,25,
1461,1,SBT2050,2,3,,2,9540,4.15001,0.06235,2816.876,171.756,25,
1461,1,SBT2050,2,3,,2,9570,4.150062,0.06109,2817.392,171.756,25,
1461,1,SBT2050,2,3,,2,9600,4.150098,0.05883,2817.892,171.756,25,
1461,1,SBT2050,2,3,,2,9630,4.14994,0.05806,2818.38,171.756,25,
1461,1,SBT2050,2,3,,2,9660,4.14995,0.05725,2818.861,171.756,25,
1461,1,SBT2050,2,3,,2,9690,4.14998,0.05663,2819.338,171.756,25,
1461,1,SBT2050,2,3,,2,9720,4.15012,0.05523,2819.803,171.756,25,
1461,1,SBT2050,2,3,,2,9750,4.14995,0.05454,2820.264,171.756,24.9,
1461,1,SBT2050,2,3,,2,9780,4.14995,0.05308,2820.711,171.756,25,
1461,1,SBT2050,2,3,,2,9810,4.15017,0.05179,2821.149,171.756,25,
1461,1,SBT2050,2,3,,2,9840,4.14992,0.05097,2821.578,171.756,25,
1461,1,SBT2050,2,3,,2,9870,4.15019,0.05026,2822,171.756,25,
1461,1,SBT2050,2,3,,2,9900,4.15,0.04933,2822.414,171.756,25,
1461,1,SBT2050,2,3,,2,9930,4.150098,0.04803,2822.818,171.756,25,
1461,1,SBT2050,2,3,,2,9960,4.14988,0.047636,2823.218,171.756,25,
1461,1,SBT2050,2,3,,2,9990,4.14973,0.046489,2823.608,171.756,25,
1461,1,SBT2050,2,3,,2,10020,4.14997,0.04639,2823.993,171.756,25,
1461,1,SBT2050,2,3,,2,10050,4.14994,0.045488,2824.374,171.756,25,
1461,1,SBT2050,2,3,,2,10080,4.150098,0.043939,2824.749,171.756,25,
1461,1,SBT2050,2,3,,2,10110,4.150062,0.044003,2825.114,171.756,25,
1461,1,SBT2050,2,3,,2,10140,4.14994,0.043797,2825.479,171.756,25,
1461,1,SBT2050,2,3,,2,10170,4.15021,0.042954,2825.842,171.756,25,
1461,1,SBT2050,2,3,,2,10200,4.15012,0.041648,2826.193,171.756,25,
1461,1,SBT2050,2,3,,2,10230,4.14999,0.041105,2826.538,171.756,25,
1461,1,SBT2050,2,3,,2,10260,4.15005,0.040031,2826.876,171.756,25,
1461,1,SBT2050,2,3,,2,10290,4.14999,0.039611,2827.208,171.756,25,
1461,1,SBT2050,2,3,,2,10320,4.14991,0.039133,2827.537,171.756,25,
1461,1,SBT2050,2,3,,2,10350,4.14993,0.038257,2827.86,171.756,25,
1461,1,SBT2050,2,3,,2,10380,4.14991,0.037974,2828.174,171.756,25,
1461,1,SBT2050,2,3,,2,10410,4.15012,0.037207,2828.487,171.756,25,
1461,1,SBT2050,2,3,,2,10440,4.14998,0.036096,2828.792,171.756,25,
1461,1,SBT2050,2,3,,2,10470,4.14998,0.035446,2829.09,171.756,25,
1461,1,SBT2050,2,3,,2,10500,4.14999,0.035752,2829.386,171.756,25,
1461,1,SBT2050,2,3,,2,10530,4.14995,0.034974,2829.683,171.756,25,
1461,1,SBT2050,2,3,,2,10560,4.15029,0.033426,2829.967,171.756,25,
1461,1,SBT2050,2,3,,2,10590,4.15003,0.033683,2830.244,171.756,25,
1461,1,SBT2050,2,3,,2,10620,4.14984,0.032124,2830.519,171.756,25,
1461,1,SBT2050,2,3,,2,10650,4.14986,0.031593,2830.783,171.756,25,
1461,1,SBT2050,2,3,,2,10680,4.15005,0.031816,2831.049,171.756,25,
1461,1,SBT2050,2,3,,2,10710,4.1499,0.029856,2831.307,171.756,25,
1461,1,SBT2050,2,3,,2,10740,4.14982,0.030322,2831.555,171.756,25,
1461,1,SBT2050,2,3,,2,10770,4.150074,0.029282,2831.804,171.756,25,
1461,1,SBT2050,2,3,,2,10800,4.14998,0.029624,2832.051,171.756,24.9,
1461,1,SBT2050,2,3,,2,10830,4.14992,0.02876,2832.293,171.756,24.9,
1461,1,SBT2050,2,3,,2,10860,4.14994,0.028738,2832.53,171.756,25,
1461,1,SBT2050,2,3,,2,10890,4.14999,0.028522,2832.77,171.756,25,
1461,1,SBT2050,2,3,,2,10920,4.1497,0.027965,2833.005,171.756,24.9,
1461,1,SBT2050,2,3,,2,10950,4.14999,0.027669,2833.237,171.756,25,
1461,1,SBT2050,2,3,,2,10980,4.14987,0.02672,2833.463,171.756,25,
1461,1,SBT2050,2,3,,2,11010,4.15023,0.02688,2833.687,171.756,24.9,
1461,1,SBT2050,2,3,,2,11040,4.14995,0.026763,2833.911,171.756,25,
1461,1,SBT2050,2,3,,2,11070,4.14988,0.026158,2834.128,171.756,25,
1461,1,SBT2050,2,3,,2,11100,4.1498,0.026269,2834.343,171.756,25,
1461,1,SBT2050,2,3,,2,11130,4.15023,0.02503,2834.558,171.756,25,
1461,1,SBT2050,2,3,,2,11160,4.15013,0.02502,2834.764,171.756,25,
1461,1,SBT2050,2,3,,2,11190,4.15021,0.024827,2834.973,171.756,25,
1461,1,SBT2050,2,3,,2,11220,4.149788,0.023754,2835.176,171.756,25,
1461,1,SBT2050,2,3,,2,11250,4.1499,0.023898,2835.376,171.756,25,
1461,1,SBT2050,2,3,,2,11280,4.14981,0.023575,2835.575,171.756,25,
1461,1,SBT2050,2,3,,2,11310,4.14994,0.02311,2835.77,171.756,24.9,
1461,1,SBT2050,2,3,,2,11340,4.150086,0.022704,2835.96,171.756,25,
1461,1,SBT2050,2,3,,2,11370,4.14984,0.021643,2836.143,171.756,25,
1461,1,SBT2050,2,3,,2,11400,4.15012,0.021398,2836.322,171.756,25,
1461,1,SBT2050,2,3,,2,11430,4.14987,0.021043,2836.501,171.756,25,
1461,1,SBT2050,2,3,,2,11460,4.15,0.021341,2836.677,171.756,25,
1461,1,SBT2050,2,3,,2,11490,4.150086,0.021297,2836.858,171.756,25,
1461,1,SBT2050,2,3,,2,11520,4.14997,0.020961,2837.033,171.756,25,
1461,1,SBT2050,2,3,,2,11550,4.1498,0.020523,2837.207,171.756,24.9,
1461,1,SBT2050,2,3,,2,11580,4.14993,0.020044,2837.377,171.756,24.9,
1461,1,SBT2050,2,3,,2,11610,4.14994,0.019741,2837.541,171.756,24.9,
1461,1,SBT2050,2,3,,2,11640,4.14988,0.019555,2837.705,171.756,24.9,
1461,1,SBT2050,2,3,,2,11670,4.15001,0.019247,2837.865,171.756,25,
1461,1,SBT2050,2,3,,2,11700,4.150086,0.018709,2838.025,171.756,24.9,
1461,1,SBT2050,2,3,,2,11730,4.150086,0.018922,2838.181,171.756,24.9,
1461,1,SBT2050,2,3,,2,11760,4.14988,0.019066,2838.34,171.756,25,
1461,1,SBT2050,2,3,,2,11790,4.15031,0.018712,2838.498,171.756,25,
1461,1,SBT2050,2,3,,2,11820,4.150074,0.018083,2838.652,171.756,25,
1461,1,SBT2050,2,3,,2,11850,4.15023,0.018868,2838.806,171.756,25,
1461,1,SBT2050,2,3,,2,11880,4.14994,0.018401,2838.961,171.756,25,
1461,1,SBT2050,2,3,,2,11910,4.15003,0.017486,2839.112,171.756,25,
1461,1,SBT2050,2,3,,2,11940,4.150074,0.01768,2839.255,171.756,25,
1461,1,SBT2050,2,3,,2,11970,4.14985,0.017384,2839.398,171.756,25,
1461,1,SBT2050,2,3,,2,12000,4.14998,0.017564,2839.545,171.756,25,
1461,1,SBT2050,2,3,,2,12030,4.15,0.01669,2839.687,171.756,25,
1461,1,SBT2050,2,3,,2,12060,4.1503,0.017461,2839.832,171.756,25,
1461,1,SBT2050,2,3,,2,12090,4.15016,0.016457,2839.974,171.756,25,
1461,1,SBT2050,2,3,,2,12120,4.150062,0.01664,2840.111,171.756,25,
1461,1,SBT2050,2,3,,2,12150,4.14992,0.015481,2840.245,171.756,25,
1461,1,SBT2050,2,3,,2,12180,4.15012,0.016091,2840.378,171.756,25,
1461,1,SBT2050,2,3,,2,12210,4.150384,0.015311,2840.51,171.756,25,
1461,1,SBT2050,2,3,,2,12240,4.14988,0.015232,2840.639,171.756,25,
1461,1,SBT2050,2,3,,2,12270,4.150062,0.015437,2840.767,171.756,25,
1461,1,SBT2050,2,3,,2,12300,4.15003,0.014512,2840.891,171.756,25,
1461,1,SBT2050,2,3,,2,12330,4.15003,0.014577,2841.014,171.756,25,
1461,1,SBT2050,2,3,,2,12360,4.14988,0.015146,2841.138,171.756,25,
1461,1,SBT2050,2,3,,2,12390,4.15005,0.01446,2841.26,171.756,25,
1461,1,SBT2050,2,3,,2,12420,4.15,0.013751,2841.376,171.756,25,
1461,1,SBT2050,2,3,,2,12450,4.15012,0.013101,2841.487,171.756,24.9,
1461,1,SBT2050,2,3,,2,12480,4.150086,0.013475,2841.6,171.756,25,
1461,1,SBT2050,2,3,,2,12510,4.14995,0.013972,2841.713,171.756,25,
1461,1,SBT2050,2,3,,2,12540,4.149788,0.013331,2841.828,171.756,24.9,
1461,1,SBT2050,2,3,,2,12570,4.150086,0.013442,2841.94,171.756,24.9,
1461,1,SBT2050,2,3,,2,12600,4.150086,0.012965,2842.048,171.756,24.9,
1461,1,SBT2050,2,3,,2,12630,4.14992,0.013248,2842.157,171.756,24.9,
1461,1,SBT2050,2,3,,2,12660,4.149764,0.013092,2842.266,171.756,25,
1461,1,SBT2050,2,3,,2,12690,4.15013,0.012937,2842.375,171.756,24.9,
1461,1,SBT2050,2,3,,2,12720,4.15003,0.012567,2842.483,171.756,24.9,
1461,1,SBT2050,2,3,,2,12750,4.15004,0.011872,2842.584,171.756,25,
1461,1,SBT2050,2,3,,2,12780,4.15004,0.013112,2842.689,171.756,25,
1461,1,SBT2050,2,3,,2,12810,4.14999,0.012837,2842.799,171.756,25,
1461,1,SBT2050,2,3,,2,12840,4.14991,0.012764,2842.904,171.756,25,
1461,1,SBT2050,2,3,,2,12870,4.14998,0.011249,2843.003,171.756,25,
1461,1,SBT2050,2,3,,2,12900,4.15015,0.011379,2843.097,171.756,24.9,
1461,1,SBT2050,2,3,,2,12930,4.14992,0.011313,2843.19,171.756,25,
1461,1,SBT2050,2,3,,2,12960,4.15005,0.011209,2843.284,171.756,25,
1461,1,SBT2050,2,3,,2,12990,4.14986,0.011549,2843.38,171.756,25,
1461,1,SBT2050,2,3,,2,13020,4.15004,0.011725,2843.476,171.756,25,
1461,1,SBT2050,2,3,,2,13050,4.150062,0.011037,2843.57,171.756,25,
1461,1,SBT2050,2,3,,2,13080,4.15005,0.011413,2843.663,171.756,25,
1461,1,SBT2050,2,3,,2,13110,4.14997,0.010697,2843.759,171.756,25,
1461,1,SBT2050,2,3,,3,13139,4.148986,0,2843.832,171.756,25,
1461,1,SBT2050,2,3,,3,13169,4.14903,0,2843.832,171.756,25,
1461,1,SBT2050,2,3,,3,13199,4.14856,0,2843.832,171.756,24.9,
1461,1,SBT2050,2,3,,3,13229,4.148432,0,2843.832,171.756,25,
1461,1,SBT2050,2,3,,3,13259,4.14805,0,2843.832,171.756,24.9,
1461,1,SBT2050,2,3,,3,13289,4.14786,0,2843.832,171.756,25,
1461,1,SBT2050,2,3,,3,13319,4.14789,0,2843.832,171.756,24.9,
1461,1,SBT2050,2,3,,3,13349,4.14791,0,2843.832,171.756,25,
1461,1,SBT2050,2,3,,3,13379,4.147782,0,2843.832,171.756,25,
1461,1,SBT2050,2,3,,3,13409,4.14811,0,2843.832,171.756,24.9,
1461,1,SBT2050,2,3,,3,13439,4.148344,0,2843.832,171.756,25,
1461,1,SBT2050,2,3,,3,13469,4.1479,0,2843.832,171.756,25,
1461,1,SBT2050,2,3,,3,13499,4.14794,0,2843.832,171.756,25,
1461,1,SBT2050,2,3,,3,13529,4.14786,0,2843.832,171.756,24.9,
1461,1,SBT2050,2,3,,3,13559,4.14775,0,2843.832,171.756,24.9,
1461,1,SBT2050,2,3,,3,13589,4.14742,0,2843.832,171.756,24.9,
1461,1,SBT2050,2,3,,3,13619,4.14757,0,2843.832,171.756,24.9,
1461,1,SBT2050,2,3,,3,13649,4.14734,0,2843.832,171.756,24.9,
1461,1,SBT2050,2,3,,3,13679,4.14747,0,2843.832,171.756,24.9,
1461,1,SBT2050,2,3,,3,13709,4.14736,0,2843.832,171.756,25,
1461,1,SBT2050,2,3,,3,13739,4.14723,0,2843.832,171.756,25,
1461,1,SBT2050,2,3,,3,13769,4.14742,0,2843.832,171.756,24.9,
1461,1,SBT2050,2,3,,3,13799,4.14756,0,2843.832,171.756,25,
1461,1,SBT2050,2,3,,3,13829,4.147252,0,2843.832,171.756,25,
1461,1,SBT2050,2,3,,3,13859,4.147214,0,2843.832,171.756,25,
1461,1,SBT2050,2,3,,3,13889,4.14744,0,2843.832,171.756,25,
1461,1,SBT2050,2,3,,3,13919,4.147162,0,2843.832,171.756,25,
1461,1,SBT2050,2,3,,3,13949,4.147344,0,2843.832,171.756,25,
1461,1,SBT2050,2,3,,3,13979,4.14716,0,2843.832,171.756,25,
1461,1,SBT2050,2,3,,3,14009,4.14703,0,2843.832,171.756,25,
1461,1,SBT2050,2,3,,3,14039,4.14684,0,2843.832,171.756,25,
1461,1,SBT2050,2,3,,3,14069,4.14701,0,2843.832,171.756,25,
1461,1,SBT2050,2,3,,3,14099,4.14717,0,2843.832,171.756,25,
1461,1,SBT2050,2,3,,3,14129,4.14706,0,2843.832,171.756,25,
1461,1,SBT2050,2,3,,3,14159,4.14672,0,2843.832,171.756,25,
1461,1,SBT2050,2,3,,3,14189,4.14727,0,2843.832,171.756,25,
1461,1,SBT2050,2,3,,3,14219,4.147,0,2843.832,171.756,25,
1461,1,SBT2050,2,3,,3,14249,4.14694,0,2843.832,171.756,24.9,
1461,1,SBT2050,2,3,,3,14279,4.14678,0,2843.832,171.756,25,
1461,1,SBT2050,2,3,,3,14309,4.14675,0,2843.832,171.756,25,
1461,1,SBT2050,2,3,,3,14339,4.14672,0,2843.832,171.756,25,
1461,1,SBT2050,2,3,,3,14369,4.14671,0,2843.832,171.756,25,
1461,1,SBT2050,2,3,,3,14399,4.14659,0,2843.832,171.756,25,
1461,1,SBT2050,2,3,,3,14429,4.14667,0,2843.832,171.756,24.9,
1461,1,SBT2050,2,3,,3,14459,4.14625,0,2843.832,171.756,24.9,
1461,1,SBT2050,2,3,,3,14489,4.14655,0,2843.832,171.756,24.9,
1461,1,SBT2050,2,3,,3,14519,4.14646,0,2843.832,171.756,24.9,
1461,1,SBT2050,2,3,,3,14549,4.14659,0,2843.832,171.756,24.9,
1461,1,SBT2050,2,3,,3,14579,4.14665,0,2843.832,171.756,24.9,
1461,1,SBT2050,2,3,,3,14609,4.14683,0,2843.832,171.756,24.9,
1461,1,SBT2050,2,3,,3,14639,4.14617,0,2843.832,171.756,24.9,
1461,1,SBT2050,2,3,,3,14669,4.14655,0,2843.832,171.756,24.9,
1461,1,SBT2050,2,3,,3,14699,4.14657,0,2843.832,171.756,24.9,
1461,1,SBT2050,2,3,,3,14729,4.14669,0,2843.832,171.756,24.9,
1461,1,SBT2050,2,3,,3,14759,4.146444,0,2843.832,171.756,24.9,
1461,1,SBT2050,2,3,,3,14789,4.146356,0,2843.832,171.756,25,
1461,1,SBT2050,2,3,,3,14819,4.14659,0,2843.832,171.756,24.9,
1461,1,SBT2050,2,3,,3,14849,4.14648,0,2843.832,171.756,24.9,
1461,1,SBT2050,2,3,,3,14879,4.14645,0,2843.832,171.756,24.9,
1461,1,SBT2050,2,3,,3,14909,4.14664,0,2843.832,171.756,24.9,
1461,1,SBT2050,2,3,,4,14938,3.978,-2.9358,2843.832,174.183,24.9,
1461,1,SBT2050,2,3,,4,14968,3.93424,-2.9357,2843.832,198.649,25.2,
1461,1,SBT2050,2,3,,4,14998,3.91823,-2.9355,2843.832,223.116,25.5,
1461,1,SBT2050,2,3,,4,15028,3.90869,-2.9363,2843.832,247.582,25.8,
1461,1,SBT2050,2,3,,4,15058,3.90186,-2.9361,2843.832,272.048,26.1,
1461,1,SBT2050,2,3,,4,15088,3.89626,-2.9357,2843.832,296.515,26.4,
1461,1,SBT2050,2,3,,4,15118,3.89081,-2.9356,2843.832,320.981,26.6,
1461,1,SBT2050,2,3,,4,15148,3.8856,-2.9359,2843.832,345.447,26.7,
1461,1,SBT2050,2,3,,4,15178,3.87986,-2.9357,2843.832,369.913,27,
1461,1,SBT2050,2,3,,4,15208,3.87398,-2.9359,2843.832,394.38,27.1,
1461,1,SBT2050,2,3,,4,15238,3.86737,-2.9364,2843.832,418.846,27.2,
1461,1,SBT2050,2,3,,4,15268,3.86051,-2.9362,2843.832,443.312,27.4,
1461,1,SBT2050,2,3,,4,15298,3.8529,-2.9363,2843.832,467.779,27.4,
1461,1,SBT2050,2,3,,4,15328,3.84532,-2.9356,2843.832,492.245,27.6,
1461,1,SBT2050,2,3,,4,15358,3.837552,-2.9361,2843.832,516.711,27.6,
1461,1,SBT2050,2,3,,4,15388,3.82921,-2.9358,2843.832,541.177,27.7,
1461,1,SBT2050,2,3,,4,15418,3.82084,-2.9354,2843.832,565.644,27.7,
1461,1,SBT2050,2,3,,4,15448,3.81271,-2.9358,2843.832,590.11,27.8,
1461,1,SBT2050,2,3,,4,15478,3.8042,-2.9362,2843.832,614.576,27.8,
1461,1,SBT2050,2,3,,4,15508,3.795788,-2.9356,2843.832,639.042,27.8,
1461,1,SBT2050,2,3,,4,15538,3.7873,-2.9361,2843.832,663.509,27.8,
1461,1,SBT2050,2,3,,4,15568,3.77866,-2.9357,2843.832,687.975,27.9,
1461,1,SBT2050,2,3,,4,15598,3.770788,-2.9358,2843.832,712.441,27.9,
1461,1,SBT2050,2,3,,4,15628,3.76293,-2.9358,2843.832,736.907,27.9,
1461,1,SBT2050,2,3,,4,15658,3.7551,-2.9359,2843.832,761.374,27.9,
1461,1,SBT2050,2,3,,4,15688,3.74717,-2.9358,2843.832,785.84,27.9,
1461,1,SBT2050,2,3,,4,15718,3.73963,-2.9357,2843.832,810.306,27.9,
1461,1,SBT2050,2,3,,4,15748,3.73215,-2.9367,2843.832,834.772,27.9,
1461,1,SBT2050,2,3,,4,15778,3.72479,-2.9362,2843.832,859.238,27.9,
1461,1,SBT2050,2,3,,4,15808,3.71722,-2.9363,2843.832,883.704,27.9,
1461,1,SBT2050,2,3,,4,15838,3.70967,-2.9358,2843.832,908.171,27.9,
1461,1,SBT2050,2,3,,4,15868,3.702252,-2.9363,2843.832,932.637,27.9,
1461,1,SBT2050,2,3,,4,15898,3.69459,-2.9354,2843.832,957.103,28,
1461,1,SBT2050,2,3,,4,15928,3.68691,-2.9359,2843.832,981.569,28,
1461,1,SBT2050,2,3,,4,15958,3.6793,-2.9361,2843.832,1006.036,28,
1461,1,SBT2050,2,3,,4,15988,3.67131,-2.9362,2843.832,1030.502,28,
1461,1,SBT2050,2,3,,4,16018,3.66348,-2.936,2843.832,1054.968,28,
1461,1,SBT2050,2,3,,4,16048,3.65558,-2.9362,2843.832,1079.434,28,
1461,1,SBT2050,2,3,,4,16078,3.64722,-2.936,2843.832,1103.9,28,
1461,1,SBT2050,2,3,,4,16108,3.63871,-2.9358,2843.832,1128.367,28.1,
1461,1,SBT2050,2,3,,4,16138,3.63073,-2.9359,2843.832,1152.833,28.1,
1461,1,SBT2050,2,3,,4,16168,3.6221,-2.936,2843.832,1177.299,28.1,
1461,1,SBT2050,2,3,,4,16198,3.61345,-2.936,2843.832,1201.765,28.1,
1461,1,SBT2050,2,3,,4,16228,3.6049,-2.9362,2843.832,1226.232,28.1,
1461,1,SBT2050,2,3,,4,16258,3.59643,-2.936,2843.832,1250.698,28.1,
1461,1,SBT2050,2,3,,4,16288,3.587466,-2.9358,2843.832,1275.164,28.1,
1461,1,SBT2050,2,3,,4,16318,3.57875,-2.9357,2843.832,1299.63,28.1,
1461,1,SBT2050,2,3,,4,16348,3.57037,-2.936,2843.832,1324.097,28.1,
1461,1,SBT2050,2,3,,4,16378,3.56178,-2.936,2843.832,1348.563,28.1,
1461,1,SBT2050,2,3,,4,16408,3.55315,-2.9361,2843.832,1373.029,28.2,
1461,1,SBT2050,2,3,,4,16438,3.544716,-2.936,2843.832,1397.496,28.2,
1461,1,SBT2050,2,3,,4,16468,3.53661,-2.9361,2843.832,1421.962,28.2,
1461,1,SBT2050,2,3,,4,16498,3.52814,-2.9359,2843.832,1446.428,28.2,
1461,1,SBT2050,2,3,,4,16528,3.52007,-2.936,2843.832,1470.894,28.2,
1461,1,SBT2050,2,3,,4,16558,3.512,-2.9364,2843.832,1495.36,28.2,
1461,1,SBT2050,2,3,,4,16588,3.5041,-2.9355,2843.832,1519.827,28.3,
1461,1,SBT2050,2,3,,4,16618,3.49652,-2.9361,2843.832,1544.293,28.3,
1461,1,SBT2050,2,3,,4,16648,3.48904,-2.9359,2843.832,1568.759,28.3,
1461,1,SBT2050,2,3,,4,16678,3.4817,-2.9362,2843.832,1593.225,28.3,
1461,1,SBT2050,2,3,,4,16708,3.474456,-2.9363,2843.832,1617.692,28.4,
1461,1,SBT2050,2,3,,4,16738,3.467614,-2.936,2843.832,1642.158,28.4,
1461,1,SBT2050,2,3,,4,16768,3.46058,-2.9358,2843.832,1666.624,28.4,
1461,1,SBT2050,2,3,,4,16798,3.453868,-2.9363,2843.832,1691.09,28.4,
1461,1,SBT2050,2,3,,4,16828,3.44736,-2.9356,2843.832,1715.556,28.4,
1461,1,SBT2050,2,3,,4,16858,3.44057,-2.936,2843.832,1740.022,28.5,
1461,1,SBT2050,2,3,,4,16888,3.43415,-2.9356,2843.832,1764.489,28.5,
1461,1,SBT2050,2,3,,4,16918,3.42779,-2.9355,2843.832,1788.955,28.5,
1461,1,SBT2050,2,3,,4,16948,3.42198,-2.9363,2843.832,1813.421,28.5,
1461,1,SBT2050,2,3,,4,16978,3.41554,-2.9357,2843.832,1837.887,28.5,
1461,1,SBT2050,2,3,,4,17008,3.40937,-2.936,2843.832,1862.353,28.5,
1461,1,SBT2050,2,3,,4,17038,3.40329,-2.9362,2843.832,1886.82,28.6,
1461,1,SBT2050,2,3,,4,17068,3.39716,-2.9358,2843.832,1911.286,28.6,
1461,1,SBT2050,2,3,,4,17098,3.3909,-2.9359,2843.832,1935.752,28.6,
1461,1,SBT2050,2,3,,4,17128,3.38486,-2.9358,2843.832,1960.219,28.6,
1461,1,SBT2050,2,3,,4,17158,3.37852,-2.936,2843.832,1984.685,28.7,
1461,1,SBT2050,2,3,,4,17188,3.3724,-2.936,2843.832,2009.151,28.7,
1461,1,SBT2050,2,3,,4,17218,3.36563,-2.9358,2843.832,2033.618,28.7,
1461,1,SBT2050,2,3,,4,17248,3.359048,-2.9364,2843.832,2058.084,28.7,
1461,1,SBT2050,2,3,,4,17278,3.35249,-2.9361,2843.832,2082.55,28.7,
1461,1,SBT2050,2,3,,4,17308,3.345365,-2.936,2843.832,2107.016,28.8,
1461,1,SBT2050,2,3,,4,17338,3.33804,-2.9358,2843.832,2131.483,28.8,
1461,1,SBT2050,2,3,,4,17368,3.33075,-2.9356,2843.832,2155.949,28.8,
1461,1,SBT2050,2,3,,4,17398,3.32303,-2.9359,2843.832,2180.415,28.9,
1461,1,SBT2050,2,3,,4,17428,3.31491,-2.936,2843.832,2204.881,28.9,
1461,1,SBT2050,2,3,,4,17458,3.306518,-2.9362,2843.832,2229.347,28.9,
1461,1,SBT2050,2,3,,4,17488,3.29786,-2.9361,2843.832,2253.814,29,
1461,1,SBT2050,2,3,,4,17518,3.28858,-2.9359,2843.832,2278.28,29,
1461,1,SBT2050,2,3,,4,17548,3.27886,-2.9357,2843.832,2302.746,29.1,
1461,1,SBT2050,2,3,,4,17578,3.26854,-2.9358,2843.832,2327.212,29.1,
1461,1,SBT2050,2,3,,4,17608,3.25777,-2.9361,2843.832,2351.679,29.2,
1461,1,SBT2050,2,3,,4,17638,3.24638,-2.9361,2843.832,2376.145,29.2,
1461,1,SBT2050,2,3,,4,17668,3.23438,-2.9359,2843.832,2400.611,29.3,
1461,1,SBT2050,2,3,,4,17698,3.22116,-2.9362,2843.832,2425.077,29.4,
1461,1,SBT2050,2,3,,4,17728,3.20711,-2.936,2843.832,2449.544,29.4,
1461,1,SBT2050,2,3,,4,17758,3.19217,-2.9366,2843.832,2474.01,29.5,
1461,1,SBT2050,2,3,,4,17788,3.1753,-2.9358,2843.832,2498.476,29.6,
1461,1,SBT2050,2,3,,4,17818,3.15715,-2.9361,2843.832,2522.942,29.7,
1461,1,SBT2050,2,3,,4,17848,3.137205,-2.9361,2843.832,2547.409,29.8,
1461,1,SBT2050,2,3,,4,17878,3.11485,-2.9362,2843.832,2571.875,29.9,
1461,1,SBT2050,2,3,,4,17908,3.090076,-2.936,2843.832,2596.341,30.1,
1461,1,SBT2050,2,3,,4,17938,3.06259,-2.9361,2843.832,2620.808,30.2,
1461,1,SBT2050,2,3,,4,17968,3.03088,-2.9362,2843.832,2645.274,30.4,
1461,1,SBT2050,2,3,,4,17998,2.99513,-2.9362,2843.832,2669.74,30.6,
1461,1,SBT2050,2,3,,4,18028,2.9541,-2.9363,2843.832,2694.207,30.8,
1461,1,SBT2050,2,3,,4,18058,2.90588,-2.9357,2843.832,2718.673,31.1,
1461,1,SBT2050,2,3,,4,18088,2.85016,-2.9357,2843.832,2743.139,31.5,
1461,1,SBT2050,2,3,,4,18118,2.78407,-2.9364,2843.832,2767.606,32,
1461,1,SBT2050,2,3,,4,18148,2.70431,-2.9359,2843.832,2792.072,32.4,
1461,1,SBT2050,2,3,,4,18178,2.608187,-2.9357,2843.832,2816.538,33,
1461,1,SBT2050,2,3,,4,18208,2.49947,-2.8503,2843.832,2840.979,33.6,
1461,1,SBT2050,2,3,,4,18238,2.49969,-2.3953,2843.832,2862.604,34.3,
1461,1,SBT2050,2,3,,4,18268,2.499555,-2.0952,2843.832,2881.283,34.7,
1461,1,SBT2050,2,3,,4,18298,2.49975,-1.8347,2843.832,2897.639,34.9,
1461,1,SBT2050,2,3,,4,18328,2.499734,-1.6019,2843.832,2911.942,34.8,
1461,1,SBT2050,2,3,,4,18358,2.49966,-1.3923,2843.832,2924.401,34.6,
1461,1,SBT2050,2,3,,4,18388,2.49969,-1.2067,2843.832,2935.211,34.3,
1461,1,SBT2050,2,3,,4,18418,2.49971,-1.0432,2843.832,2944.568,34,
1461,1,SBT2050,2,3,,4,18448,2.49945,-0.9017,2843.832,2952.658,33.5,
1461,1,SBT2050,2,3,,4,18478,2.49969,-0.7825,2843.832,2959.663,33,
1461,1,SBT2050,2,3,,4,18508,2.4997,-0.6809,2843.832,2965.746,32.6,
1461,1,SBT2050,2,3,,4,18538,2.49981,-0.5937,2843.832,2971.046,32.1,
1461,1,SBT2050,2,3,,4,18568,2.49984,-0.519,2843.832,2975.676,31.6,
1461,1,SBT2050,2,3,,4,18598,2.499734,-0.45444,2843.832,2979.732,31.1,
1461,1,SBT2050,2,3,,4,18628,2.49983,-0.40075,2843.832,2983.29,30.6,
1461,1,SBT2050,2,3,,4,18658,2.49982,-0.35372,2843.832,2986.428,30.2,
1461,1,SBT2050,2,3,,4,18688,2.49977,-0.31255,2843.832,2989.199,29.8,
1461,1,SBT2050,2,3,,4,18718,2.49961,-0.27653,2843.832,2991.651,29.4,
1461,1,SBT2050,2,3,,4,18748,2.4996,-0.24372,2843.832,2993.817,29,
1461,1,SBT2050,2,3,,4,18778,2.49977,-0.21454,2843.832,2995.725,28.7,
1461,1,SBT2050,2,3,,4,18808,2.49963,-0.18712,2843.832,2997.399,28.4,
1461,1,SBT2050,2,3,,4,18838,2.499555,-0.16102,2843.832,2998.849,28,
1461,1,SBT2050,2,3,,4,18868,2.4997,-0.13607,2843.832,3000.086,27.8,
1461,1,SBT2050,2,3,,4,18898,2.49963,-0.11285,2843.832,3001.121,27.5,
1461,1,SBT2050,2,3,,4,18928,2.499722,-0.09269,2843.832,3001.975,27.3,
1461,1,SBT2050,2,3,,4,18958,2.49976,-0.07625,2843.832,3002.676,27.1,
1461,1,SBT2050,2,3,,4,18988,2.49967,-0.06311,2843.832,3003.255,26.9,
1461,1,SBT2050,2,3,,4,19018,2.499734,-0.05309,2843.832,3003.738,26.7,
1461,1,SBT2050,2,3,,4,19048,2.500032,-0.045254,2843.832,3004.147,26.5,
1461,1,SBT2050,2,3,,4,19078,2.49978,-0.039048,2843.832,3004.497,26.4,
1461,1,SBT2050,2,3,,4,19108,2.4999,-0.034563,2843.832,3004.803,26.3,
1461,1,SBT2050,2,3,,4,19138,2.49979,-0.031206,2843.832,3005.076,26.1,
1461,1,SBT2050,2,3,,4,19168,2.5,-0.028665,2843.832,3005.325,26,
1461,1,SBT2050,2,3,,4,19198,2.49997,-0.026798,2843.832,3005.555,25.9,
1461,1,SBT2050,2,3,,4,19228,2.5,-0.02547,2843.832,3005.773,25.8,
1461,1,SBT2050,2,3,,4,19258,2.49995,-0.024265,2843.832,3005.979,25.8,
1461,1,SBT2050,2,3,,4,19288,2.49991,-0.023271,2843.832,3006.176,25.7,
1461,1,SBT2050,2,3,,4,19318,2.500044,-0.022398,2843.832,3006.365,25.6,
1461,1,SBT2050,2,3,,4,19348,2.49996,-0.02156,2843.832,3006.548,25.6,
1461,1,SBT2050,2,3,,4,19378,2.5,-0.020896,2843.832,3006.725,25.5,
1461,1,SBT2050,2,3,,4,19408,2.49994,-0.020281,2843.832,3006.897,25.5,
1461,1,SBT2050,2,3,,4,19438,2.49997,-0.019866,2843.832,3007.064,25.5,
1461,1,SBT2050,2,3,,4,19468,2.49978,-0.019244,2843.832,3007.226,25.4,
1461,1,SBT2050,2,3,,4,19498,2.50002,-0.018846,2843.832,3007.385,25.4,
1461,1,SBT2050,2,3,,4,19528,2.50014,-0.018414,2843.832,3007.539,25.3,
1461,1,SBT2050,2,3,,4,19558,2.5001,-0.017941,2843.832,3007.691,25.3,
1461,1,SBT2050,2,3,,4,19588,2.49995,-0.017574,2843.832,3007.839,25.3,
1461,1,SBT2050,2,3,,4,19618,2.50001,-0.017212,2843.832,3007.984,25.2,
1461,1,SBT2050,2,3,,4,19648,2.500199,-0.016874,2843.832,3008.126,25.2,
1461,1,SBT2050,2,3,,4,19678,2.49982,-0.016533,2843.832,3008.265,25.2,
1461,1,SBT2050,2,3,,4,19708,2.50002,-0.016275,2843.832,3008.402,25.2,
1461,1,SBT2050,2,3,,4,19738,2.50007,-0.015937,2843.832,3008.536,25.2,
1461,1,SBT2050,2,3,,4,19768,2.500044,-0.015657,2843.832,3008.667,25.2,
1461,1,SBT2050,2,3,,4,19798,2.50009,-0.015345,2843.832,3008.796,25.1,
1461,1,SBT2050,2,3,,4,19828,2.4999,-0.015061,2843.832,3008.923,25.1,
1461,1,SBT2050,2,3,,4,19858,2.500044,-0.014839,2843.832,3009.048,25.1,
1461,1,SBT2050,2,3,,4,19888,2.50002,-0.014463,2843.832,3009.17,25.1,
1461,1,SBT2050,2,3,,4,19918,2.49982,-0.014249,2843.832,3009.291,25.1,
1461,1,SBT2050,2,3,,4,19948,2.499877,-0.013972,2843.832,3009.409,25.1,
1461,1,SBT2050,2,3,,4,19978,2.49995,-0.013787,2843.832,3009.525,25.1,
1461,1,SBT2050,2,3,,4,20008,2.49984,-0.013614,2843.832,3009.639,25,
1461,1,SBT2050,2,3,,4,20038,2.500044,-0.013441,2843.832,3009.752,25,
1461,1,SBT2050,2,3,,4,20068,2.500199,-0.013228,2843.832,3009.862,25,
1461,1,SBT2050,2,3,,4,20098,2.49991,-0.01283,2843.832,3009.971,25,
1461,1,SBT2050,2,3,,4,20128,2.50002,-0.01275,2843.832,3010.078,25.1,
1461,1,SBT2050,2,3,,4,20158,2.49995,-0.012564,2843.832,3010.183,25,
1461,1,SBT2050,2,3,,4,20188,2.500056,-0.012286,2843.832,3010.287,25.1,
1461,1,SBT2050,2,3,,4,20218,2.50009,-0.01233,2843.832,3010.39,25.1,
1461,1,SBT2050,2,3,,4,20248,2.50012,-0.012162,2843.832,3010.492,25,
1461,1,SBT2050,2,3,,4,20278,2.4999,-0.011826,2843.832,3010.592,25,
1461,1,SBT2050,2,3,,4,20308,2.50002,-0.011879,2843.832,3010.691,25,
1461,1,SBT2050,2,3,,4,20338,2.49998,-0.011676,2843.832,3010.79,25,
1461,1,SBT2050,2,3,,4,20368,2.50002,-0.011861,2843.832,3010.887,25.1,
1461,1,SBT2050,2,3,,4,20398,2.500044,-0.011538,2843.832,3010.984,25,
1461,1,SBT2050,2,3,,4,20428,2.500056,-0.011368,2843.832,3011.079,25,
1461,1,SBT2050,2,3,,4,20458,2.500056,-0.011412,2843.832,3011.174,25,
1461,1,SBT2050,2,3,,4,20488,2.49996,-0.011201,2843.832,3011.268,25,
1461,1,SBT2050,2,3,,4,20518,2.500044,-0.011121,2843.832,3011.36,25,
1461,1,SBT2050,2,3,,4,20548,2.50013,-0.010956,2843.832,3011.452,25,
1461,1,SBT2050,2,3,,4,20578,2.50002,-0.010836,2843.832,3011.543,25,
1461,1,SBT2050,2,3,,4,20608,2.50007,-0.010869,2843.832,3011.634,25,
1461,1,SBT2050,2,3,,4,20638,2.49991,-0.010757,2843.832,3011.723,25,
1461,1,SBT2050,2,3,,4,20668,2.50002,-0.010651,2843.832,3011.812,25,
1461,1,SBT2050,2,3,,4,20698,2.49995,-0.01043,2843.832,3011.9,25,
1461,1,SBT2050,2,3,,4,20728,2.50008,-0.010439,2843.832,3011.987,25,
1461,1,SBT2050,2,3,,4,20758,2.500056,-0.010509,2843.832,3012.074,25,
1461,1,SBT2050,2,3,,4,20788,2.49996,-0.010248,2843.832,3012.159,25,
1461,1,SBT2050,2,3,,5,20817,2.5022,0,2843.832,3012.239,25,
1461,1,SBT2050,2,3,,5,20847,2.52678,0,2843.832,3012.239,25,
1461,1,SBT2050,2,3,,5,20877,2.54479,0,2843.832,3012.239,25,
1461,1,SBT2050,2,3,,5,20907,2.56041,0,2843.832,3012.239,25,
1461,1,SBT2050,2,3,,5,20937,2.575,0,2843.832,3012.239,25,
1461,1,SBT2050,2,3,,5,20967,2.588342,0,2843.832,3012.239,25,
1461,1,SBT2050,2,3,,5,20997,2.6004,0,2843.832,3012.239,25,
1461,1,SBT2050,2,3,,5,21027,2.61145,0,2843.832,3012.239,25,
1461,1,SBT2050,2,3,,5,21057,2.621507,0,2843.832,3012.239,25,
1461,1,SBT2050,2,3,,5,21087,2.63111,0,2843.832,3012.239,25,
1461,1,SBT2050,2,3,,5,21117,2.639887,0,2843.832,3012.239,25,
1461,1,SBT2050,2,3,,5,21147,2.64767,0,2843.832,3012.239,25,
1461,1,SBT2050,2,3,,5,21177,2.65527,0,2843.832,3012.239,25,
1461,1,SBT2050,2,3,,5,21207,2.66229,0,2843.832,3012.239,25,
1461,1,SBT2050,2,3,,5,21237,2.668871,0,2843.832,3012.239,25,
1461,1,SBT2050,2,3,,5,21267,2.67504,0,2843.832,3012.239,25,
1461,1,SBT2050,2,3,,5,21297,2.68088,0,2843.832,3012.239,25,
1461,1,SBT2050,2,3,,5,21327,2.68609,0,2843.832,3012.239,25,
1461,1,SBT2050,2,3,,5,21357,2.6913,0,2843.832,3012.239,24.9,
1461,1,SBT2050,2,3,,5,21387,2.69611,0,2843.832,3012.239,25,
1461,1,SBT2050,2,3,,5,21417,2.70065,0,2843.832,3012.239,24.9,
1461,1,SBT2050,2,3,,5,21447,2.70502,0,2843.832,3012.239,24.9,
1461,1,SBT2050,2,3,,5,21477,2.7089,0,2843.832,3012.239,25,
1461,1,SBT2050,2,3,,5,21507,2.71314,0,2843.832,3012.239,25,
1461,1,SBT2050,2,3,,5,21537,2.716496,0,2843.832,3012.239,24.9,
1461,1,SBT2050,2,3,,5,21567,2.72024,0,2843.832,3012.239,25,
1461,1,SBT2050,2,3,,5,21597,2.72375,0,2843.832,3012.239,24.9,
1461,1,SBT2050,2,3,,5,21627,2.72703,0,2843.832,3012.239,24.9,
1461,1,SBT2050,2,3,,5,21657,2.7299,0,2843.832,3012.239,24.9,
1461,1,SBT2050,2,3,,5,21687,2.7328,0,2843.832,3012.239,24.9,
1461,1,SBT2050,2,3,,5,21717,2.73585,0,2843.832,3012.239,24.9,
1461,1,SBT2050,2,3,,5,21747,2.738487,0,2843.832,3012.239,24.9,
1461,1,SBT2050,2,3,,5,21777,2.74095,0,2843.832,3012.239,25,
1461,1,SBT2050,2,3,,5,21807,2.743447,0,2843.832,3012.239,24.9,
1461,1,SBT2050,2,3,,5,21837,2.74591,0,2843.832,3012.239,25,
1461,1,SBT2050,2,3,,5,21867,2.74813,0,2843.832,3012.239,25,
1461,1,SBT2050,2,3,,5,21897,2.75027,0,2843.832,3012.239,25,
1461,1,SBT2050,2,3,,5,21927,2.75253,0,2843.832,3012.239,24.9,
1461,1,SBT2050,2,3,,5,21957,2.75433,0,2843.832,3012.239,25,
1461,1,SBT2050,2,3,,5,21987,2.75647,0,2843.832,3012.239,25,
1461,1,SBT2050,2,3,,5,22017,2.75817,0,2843.832,3012.239,25,
1461,1,SBT2050,2,3,,5,22047,2.7598,0,2843.832,3012.239,25,
1461,1,SBT2050,2,3,,5,22077,2.76156,0,2843.832,3012.239,25,
1461,1,SBT2050,2,3,,5,22107,2.76333,0,2843.832,3012.239,25,
1461,1,SBT2050,2,3,,5,22137,2.764843,0,2843.832,3012.239,25,
1461,1,SBT2050,2,3,,5,22167,2.7664,0,2843.832,3012.239,25,
1461,1,SBT2050,2,3,,5,22197,2.76782,0,2843.832,3012.239,25,
1461,1,SBT2050,2,3,,5,22227,2.76931,0,2843.832,3012.239,25,
1461,1,SBT2050,2,3,,5,22257,2.77087,0,2843.832,3012.239,25,
1461,1,SBT2050,2,3,,5,22287,2.77216,0,2843.832,3012.239,25,
1461,1,SBT2050,2,3,,5,22317,2.77339,0,2843.832,3012.239,25,
1461,1,SBT2050,2,3,,5,22347,2.77478,0,2843.832,3012.239,25,
1461,1,SBT2050,2,3,,5,22377,2.77595,0,2843.832,3012.239,25,
1461,1,SBT2050,2,3,,5,22407,2.776951,0,2843.832,3012.239,25,
1461,1,SBT2050,2,3,,5,22437,2.77829,0,2843.832,3012.239,25,
1461,1,SBT2050,2,3,,5,22467,2.779646,0,2843.832,3012.239,25,
1461,1,SBT2050,2,3,,5,22497,2.78063,0,2843.832,3012.239,25,
1461,1,SBT2050,2,3,,5,22527,2.781407,0,2843.832,3012.239,24.9,
1461,1,SBT2050,2,3,,5,22557,2.78266,0,2843.832,3012.239,24.9,
1461,1,SBT2050,2,3,,5,22587,2.78355,0,2843.832,3012.239,24.9,
1461,1,SBT2050,2,3,,5,22616.033,2.78475,-0.0001,2843.832,3012.239,,