File: ORRG/Test1550.csv
Request Year:,2018,,,,,,,,,,,,
Test:,1550,,,,,,,,,,,,
Test Description:,,,,,,,,,,,,,
TestRegime Name:,Dchg_1C,,,,,,,,,,,,
TestRegime Suffix:,SHP_LC,,,,,,,,,,,,
TestRegime CellSize:,18650,,,,,,,,,,,,
TestRegime Version:,1,,,,,,,,,,,,
Number Of Cells:,1,,,,,,,,,,,,
LotID:,,,,,,,,,,,,,
Lot Description:,,,,,,,,,,,,,
Date Made:,1/21/2003 12:00 AM,,,,,,,,,,,,
Origin:,Other,,,,,,,,,,,,
Requestor:,Admin,,,,,,,,,,,,
Product ID:,Default product,,,,,,,,,,,,
Storage Temp:,R.T./AMB,,,,,,,,,,,,
Storage Delay:,0 days,,,,,,,,,,,,
Test Temp:,R.T./AMB,,,,,,,,,,,,
Start Time:,4/25/2018 8:19 AM,,,,,,,,,,,,
End Time:,4/25/2018 9:11 AM,,,,,,,,,,,,
Operator Instructions:,,,,,,,,,,,,,
Test,Cell,Rack,Shelf,Position,Cell ID,Step,Total Time (Seconds),Voltage (V),Current (A),Charge Capacity (mAh),Discharge Capacity (mAh),TC1 (Â°C),
1550,1,SBT2050,2,3,,0,1,4.10062,0,0,0,24.7,
1550,1,SBT2050,2,3,,0,5,4.10071,0,0,0,24.7,
1550,1,SBT2050,2,3,,0,9,4.1004,0,0,0,24.7,
1550,1,SBT2050,2,3,,0,13,4.100354,0,0,0,24.7,
1550,1,SBT2050,2,3,,0,17,4.10083,0,0,0,24.7,
1550,1,SBT2050,2,3,,0,21,4.10052,0,0,0,24.7,
1550,1,SBT2050,2,3,,0,25,4.10056,0,0,0,24.7,
1550,1,SBT2050,2,3,,0,29,4.10037,0,0,0,24.7,
1550,1,SBT2050,2,3,,0,33,4.10067,0,0,0,24.7,
1550,1,SBT2050,2,3,,0,37,4.100462,0,0,0,24.7,
1550,1,SBT2050,2,3,,0,41,4.10038,0,0,0,24.7,
1550,1,SBT2050,2,3,,0,45,4.10063,0,0,0,24.7,
1550,1,SBT2050,2,3,,0,49,4.100596,0,0,0,24.7,
1550,1,SBT2050,2,3,,0,53,4.100446,0,0,0,24.7,
1550,1,SBT2050,2,3,,0,57,4.10068,0,0,0,24.7,
1550,1,SBT2050,2,3,,1,61,3.86249,-2.6998,0,0.749,24.7,
1550,1,SBT2050,2,3,,1,65,3.838282,-2.6998,0,3.749,24.7,
1550,1,SBT2050,2,3,,1,69,3.82534,-2.6996,0,6.749,24.7,
1550,1,SBT2050,2,3,,1,73,3.81517,-2.6998,0,9.749,24.8,
1550,1,SBT2050,2,3,,1,77,3.80676,-2.7002,0,12.748,24.8,
1550,1,SBT2050,2,3,,1,81,3.79945,-2.6999,0,15.748,24.9,
1550,1,SBT2050,2,3,,1,85,3.79324,-2.7,0,18.748,24.9,
1550,1,SBT2050,2,3,,1,89,3.787828,-2.6999,0,21.748,25,
1550,1,SBT2050,2,3,,1,93,3.78267,-2.7001,0,24.748,25.1,
1550,1,SBT2050,2,3,,1,97,3.77862,-2.6998,0,27.748,25.1,
1550,1,SBT2050,2,3,,1,101,3.77442,-2.7002,0,30.748,25.2,
1550,1,SBT2050,2,3,,1,105,3.77114,-2.6997,0,33.748,25.3,
1550,1,SBT2050,2,3,,1,109,3.76784,-2.6999,0,36.748,25.3,
1550,1,SBT2050,2,3,,1,113,3.76473,-2.7002,0,39.748,25.4,
1550,1,SBT2050,2,3,,1,117,3.762302,-2.6999,0,42.748,25.5,
1550,1,SBT2050,2,3,,1,121,3.75973,-2.7001,0,45.748,25.5,
1550,1,SBT2050,2,3,,1,125,3.757414,-2.7,0,48.748,25.6,
1550,1,SBT2050,2,3,,1,129,3.755414,-2.6997,0,51.748,25.7,
1550,1,SBT2050,2,3,,1,133,3.75336,-2.7005,0,54.748,25.7,
1550,1,SBT2050,2,3,,1,137,3.7516,-2.6999,0,57.748,25.8,
1550,1,SBT2050,2,3,,1,141,3.74979,-2.7,0,60.748,25.9,
1550,1,SBT2050,2,3,,1,145,3.74812,-2.7003,0,63.747,25.9,
1550,1,SBT2050,2,3,,1,149,3.74699,-2.7,0,66.747,26,
1550,1,SBT2050,2,3,,1,153,3.7452,-2.6997,0,69.747,26,
1550,1,SBT2050,2,3,,1,157,3.74397,-2.6998,0,72.747,26.1,
1550,1,SBT2050,2,3,,1,161,3.74272,-2.6999,0,75.747,26.1,
1550,1,SBT2050,2,3,,1,165,3.74167,-2.6997,0,78.747,26.2,
1550,1,SBT2050,2,3,,1,169,3.74039,-2.7002,0,81.747,26.3,
1550,1,SBT2050,2,3,,1,173,3.73906,-2.7002,0,84.747,26.3,
1550,1,SBT2050,2,3,,1,177,3.73792,-2.7,0,87.747,26.4,
1550,1,SBT2050,2,3,,1,181,3.73698,-2.7003,0,90.747,26.4,
1550,1,SBT2050,2,3,,1,185,3.73584,-2.7,0,93.747,26.5,
1550,1,SBT2050,2,3,,1,189,3.73485,-2.7002,0,96.747,26.5,
1550,1,SBT2050,2,3,,1,193,3.73407,-2.7,0,99.747,26.6,
1550,1,SBT2050,2,3,,1,197,3.73307,-2.7,0,102.747,26.7,
1550,1,SBT2050,2,3,,1,201,3.73216,-2.6997,0,105.747,26.7,
1550,1,SBT2050,2,3,,1,205,3.73131,-2.6999,0,108.747,26.7,
1550,1,SBT2050,2,3,,1,209,3.73056,-2.7002,0,111.747,26.8,
1550,1,SBT2050,2,3,,1,213,3.72968,-2.7003,0,114.747,26.8,
1550,1,SBT2050,2,3,,1,217,3.7288,-2.6999,0,117.747,26.9,
1550,1,SBT2050,2,3,,1,221,3.72818,-2.6997,0,120.747,26.9,
1550,1,SBT2050,2,3,,1,225,3.72728,-2.7,0,123.747,27,
1550,1,SBT2050,2,3,,1,229,3.72665,-2.6999,0,126.746,27,
1550,1,SBT2050,2,3,,1,233,3.72564,-2.6997,0,129.746,27.1,
1550,1,SBT2050,2,3,,1,237,3.724978,-2.7,0,132.746,27.1,
1550,1,SBT2050,2,3,,1,241,3.7239,-2.6999,0,135.746,27.2,
1550,1,SBT2050,2,3,,1,245,3.72351,-2.7002,0,138.746,27.2,
1550,1,SBT2050,2,3,,1,249,3.72266,-2.7,0,141.746,27.2,
1550,1,SBT2050,2,3,,1,253,3.72218,-2.6996,0,144.746,27.3,
1550,1,SBT2050,2,3,,1,257,3.72128,-2.6999,0,147.746,27.3,
1550,1,SBT2050,2,3,,1,261,3.72058,-2.6997,0,150.746,27.4,
1550,1,SBT2050,2,3,,1,265,3.7198,-2.7001,0,153.746,27.4,
1550,1,SBT2050,2,3,,1,269,3.71901,-2.7001,0,156.746,27.4,
1550,1,SBT2050,2,3,,1,273,3.718164,-2.6999,0,159.746,27.5,
1550,1,SBT2050,2,3,,1,277,3.71769,-2.7001,0,162.746,27.5,
1550,1,SBT2050,2,3,,1,281,3.71684,-2.6999,0,165.746,27.6,
1550,1,SBT2050,2,3,,1,285,3.71631,-2.6996,0,168.746,27.6,
1550,1,SBT2050,2,3,,1,289,3.715606,-2.6995,0,171.746,27.6,
1550,1,SBT2050,2,3,,1,293,3.71484,-2.6998,0,174.746,27.7,
1550,1,SBT2050,2,3,,1,297,3.71415,-2.6999,0,177.746,27.7,
1550,1,SBT2050,2,3,,1,301,3.71357,-2.7001,0,180.745,27.7,
1550,1,SBT2050,2,3,,1,305,3.71299,-2.7001,0,183.745,27.7,
1550,1,SBT2050,2,3,,1,309,3.71182,-2.7,0,186.745,27.7,
1550,1,SBT2050,2,3,,1,313,3.71124,-2.6999,0,189.745,27.8,
1550,1,SBT2050,2,3,,1,317,3.7105,-2.6999,0,192.745,27.8,
1550,1,SBT2050,2,3,,1,321,3.70991,-2.7002,0,195.745,27.8,
1550,1,SBT2050,2,3,,1,325,3.70914,-2.6996,0,198.745,27.9,
1550,1,SBT2050,2,3,,1,329,3.708584,-2.6995,0,201.745,27.9,
1550,1,SBT2050,2,3,,1,333,3.70784,-2.6998,0,204.745,27.9,
1550,1,SBT2050,2,3,,1,337,3.706994,-2.6995,0,207.745,27.9,
1550,1,SBT2050,2,3,,1,341,3.706522,-2.7002,0,210.745,28,
1550,1,SBT2050,2,3,,1,345,3.70547,-2.6997,0,213.745,28,
1550,1,SBT2050,2,3,,1,349,3.704818,-2.7002,0,216.745,28,
1550,1,SBT2050,2,3,,1,353,3.70433,-2.7,0,219.745,28,
1550,1,SBT2050,2,3,,1,357,3.70323,-2.6999,0,222.744,28.1,
1550,1,SBT2050,2,3,,1,361,3.70259,-2.7001,0,225.744,28.1,
1550,1,SBT2050,2,3,,1,365,3.70199,-2.6996,0,228.744,28.1,
1550,1,SBT2050,2,3,,1,369,3.701242,-2.7,0,231.744,28.1,
1550,1,SBT2050,2,3,,1,373,3.70034,-2.7003,0,234.744,28.1,
1550,1,SBT2050,2,3,,1,377,3.69943,-2.6999,0,237.744,28.2,
1550,1,SBT2050,2,3,,1,381,3.69893,-2.7,0,240.744,28.2,
1550,1,SBT2050,2,3,,1,385,3.69803,-2.6999,0,243.744,28.2,
1550,1,SBT2050,2,3,,1,389,3.69753,-2.6995,0,246.744,28.2,
1550,1,SBT2050,2,3,,1,393,3.6965,-2.6998,0,249.744,28.2,
1550,1,SBT2050,2,3,,1,397,3.69576,-2.6997,0,252.744,28.2,
1550,1,SBT2050,2,3,,1,401,3.69509,-2.6997,0,255.744,28.3,
1550,1,SBT2050,2,3,,1,405,3.69418,-2.6997,0,258.744,28.3,
1550,1,SBT2050,2,3,,1,409,3.69343,-2.7,0,261.744,28.3,
1550,1,SBT2050,2,3,,1,413,3.69264,-2.6997,0,264.744,28.3,
1550,1,SBT2050,2,3,,1,417,3.69205,-2.6997,0,267.744,28.4,
1550,1,SBT2050,2,3,,1,421,3.69131,-2.7,0,270.744,28.4,
1550,1,SBT2050,2,3,,1,425,3.69047,-2.6999,0,273.744,28.4,
1550,1,SBT2050,2,3,,1,429,3.689536,-2.7,0,276.743,28.4,
1550,1,SBT2050,2,3,,1,433,3.68861,-2.7002,0,279.743,28.4,
1550,1,SBT2050,2,3,,1,437,3.68793,-2.7002,0,282.743,28.4,
1550,1,SBT2050,2,3,,1,441,3.68709,-2.6999,0,285.743,28.4,
1550,1,SBT2050,2,3,,1,445,3.68592,-2.7,0,288.743,28.4,
1550,1,SBT2050,2,3,,1,449,3.68525,-2.7,0,291.743,28.4,
1550,1,SBT2050,2,3,,1,453,3.68452,-2.7,0,294.743,28.5,
1550,1,SBT2050,2,3,,1,457,3.683678,-2.7,0,297.743,28.5,
1550,1,SBT2050,2,3,,1,461,3.682758,-2.6999,0,300.743,28.5,
1550,1,SBT2050,2,3,,1,465,3.68192,-2.6999,0,303.743,28.5,
1550,1,SBT2050,2,3,,1,469,3.681138,-2.6996,0,306.743,28.5,
1550,1,SBT2050,2,3,,1,473,3.68033,-2.6999,0,309.743,28.5,
1550,1,SBT2050,2,3,,1,477,3.679226,-2.7002,0,312.743,28.5,
1550,1,SBT2050,2,3,,1,481,3.678684,-2.7001,0,315.743,28.5,
1550,1,SBT2050,2,3,,1,485,3.67767,-2.6997,0,318.743,28.6,
1550,1,SBT2050,2,3,,1,489,3.67723,-2.7001,0,321.743,28.6,
1550,1,SBT2050,2,3,,1,493,3.67605,-2.7,0,324.743,28.6,
1550,1,SBT2050,2,3,,1,497,3.67527,-2.7,0,327.743,28.6,
1550,1,SBT2050,2,3,,1,501,3.6745,-2.6999,0,330.742,28.6,
1550,1,SBT2050,2,3,,1,505,3.67366,-2.6999,0,333.742,28.6,
1550,1,SBT2050,2,3,,1,509,3.67262,-2.6995,0,336.742,28.6,
1550,1,SBT2050,2,3,,1,513,3.67181,-2.7,0,339.742,28.7,
1550,1,SBT2050,2,3,,1,517,3.67102,-2.7,0,342.742,28.7,
1550,1,SBT2050,2,3,,1,521,3.670024,-2.7,0,345.742,28.7,
1550,1,SBT2050,2,3,,1,525,3.6691,-2.7002,0,348.742,28.7,
1550,1,SBT2050,2,3,,1,529,3.66842,-2.6999,0,351.742,28.7,
1550,1,SBT2050,2,3,,1,533,3.66748,-2.7001,0,354.742,28.7,
1550,1,SBT2050,2,3,,1,537,3.6666,-2.6997,0,357.742,28.7,
1550,1,SBT2050,2,3,,1,541,3.66584,-2.7001,0,360.742,28.7,
1550,1,SBT2050,2,3,,1,545,3.664808,-2.6999,0,363.742,28.7,
1550,1,SBT2050,2,3,,1,549,3.663788,-2.7,0,366.742,28.7,
1550,1,SBT2050,2,3,,1,553,3.66317,-2.7003,0,369.742,28.7,
1550,1,SBT2050,2,3,,1,557,3.66225,-2.6994,0,372.742,28.7,
1550,1,SBT2050,2,3,,1,561,3.66144,-2.6999,0,375.742,28.7,
1550,1,SBT2050,2,3,,1,565,3.66064,-2.7,0,378.742,28.7,
1550,1,SBT2050,2,3,,1,569,3.65991,-2.6999,0,381.741,28.8,
1550,1,SBT2050,2,3,,1,573,3.65895,-2.7002,0,384.741,28.8,
1550,1,SBT2050,2,3,,1,577,3.657936,-2.6999,0,387.741,28.8,
1550,1,SBT2050,2,3,,1,581,3.65718,-2.7,0,390.741,28.8,
1550,1,SBT2050,2,3,,1,585,3.65593,-2.7,0,393.741,28.8,
1550,1,SBT2050,2,3,,1,589,3.65526,-2.6996,0,396.741,28.8,
1550,1,SBT2050,2,3,,1,593,3.65435,-2.6998,0,399.741,28.8,
1550,1,SBT2050,2,3,,1,597,3.653456,-2.7,0,402.741,28.8,
1550,1,SBT2050,2,3,,1,601,3.652436,-2.6997,0,405.741,28.8,
1550,1,SBT2050,2,3,,1,605,3.65176,-2.6999,0,408.741,28.8,
1550,1,SBT2050,2,3,,1,609,3.650642,-2.7001,0,411.741,28.8,
1550,1,SBT2050,2,3,,1,613,3.64991,-2.7002,0,414.741,28.8,
1550,1,SBT2050,2,3,,1,617,3.64885,-2.7001,0,417.741,28.8,
1550,1,SBT2050,2,3,,1,621,3.64797,-2.6999,0,420.741,28.8,
1550,1,SBT2050,2,3,,1,625,3.64718,-2.6997,0,423.741,28.9,
1550,1,SBT2050,2,3,,1,629,3.64606,-2.6996,0,426.741,28.8,
1550,1,SBT2050,2,3,,1,633,3.64511,-2.6999,0,429.74,28.9,
1550,1,SBT2050,2,3,,1,637,3.644086,-2.7004,0,432.74,28.9,
1550,1,SBT2050,2,3,,1,641,3.64355,-2.6999,0,435.74,28.9,
1550,1,SBT2050,2,3,,1,645,3.64231,-2.6999,0,438.74,28.9,
1550,1,SBT2050,2,3,,1,649,3.64147,-2.6999,0,441.74,28.9,
1550,1,SBT2050,2,3,,1,653,3.640428,-2.7002,0,444.74,28.9,
1550,1,SBT2050,2,3,,1,657,3.63971,-2.6999,0,447.74,28.9,
1550,1,SBT2050,2,3,,1,661,3.638696,-2.6995,0,450.74,28.9,
1550,1,SBT2050,2,3,,1,665,3.63777,-2.6999,0,453.74,28.9,
1550,1,SBT2050,2,3,,1,669,3.63685,-2.6999,0,456.74,28.9,
1550,1,SBT2050,2,3,,1,673,3.63607,-2.7003,0,459.74,28.9,
1550,1,SBT2050,2,3,,1,677,3.63499,-2.7,0,462.74,28.9,
1550,1,SBT2050,2,3,,1,681,3.63411,-2.6997,0,465.74,28.9,
1550,1,SBT2050,2,3,,1,685,3.633142,-2.6997,0,468.74,28.9,
1550,1,SBT2050,2,3,,1,689,3.63224,-2.6996,0,471.74,28.9,
1550,1,SBT2050,2,3,,1,693,3.63116,-2.7,0,474.739,28.9,
1550,1,SBT2050,2,3,,1,697,3.630198,-2.6997,0,477.739,28.9,
1550,1,SBT2050,2,3,,1,701,3.6292,-2.7,0,480.739,28.9,
1550,1,SBT2050,2,3,,1,705,3.62837,-2.6997,0,483.739,28.9,
1550,1,SBT2050,2,3,,1,709,3.62721,-2.6999,0,486.739,28.9,
1550,1,SBT2050,2,3,,1,713,3.62628,-2.6999,0,489.739,29,
1550,1,SBT2050,2,3,,1,717,3.62543,-2.6999,0,492.739,28.9,
1550,1,SBT2050,2,3,,1,721,3.62439,-2.6997,0,495.739,28.9,
1550,1,SBT2050,2,3,,1,725,3.623536,-2.6999,0,498.739,28.9,
1550,1,SBT2050,2,3,,1,729,3.62248,-2.6999,0,501.739,29,
1550,1,SBT2050,2,3,,1,733,3.62168,-2.6999,0,504.739,29,
1550,1,SBT2050,2,3,,1,737,3.62056,-2.7002,0,507.739,28.9,
1550,1,SBT2050,2,3,,1,741,3.61941,-2.6997,0,510.739,29,
1550,1,SBT2050,2,3,,1,745,3.61851,-2.6996,0,513.739,29,
1550,1,SBT2050,2,3,,1,749,3.617554,-2.6996,0,516.739,28.9,
1550,1,SBT2050,2,3,,1,753,3.61663,-2.7002,0,519.739,28.9,
1550,1,SBT2050,2,3,,1,757,3.61563,-2.6996,0,522.739,28.9,
1550,1,SBT2050,2,3,,1,761,3.61465,-2.6998,0,525.739,28.9,
1550,1,SBT2050,2,3,,1,765,3.613664,-2.6999,0,528.739,28.9,
1550,1,SBT2050,2,3,,1,769,3.61258,-2.7003,0,531.738,28.9,
1550,1,SBT2050,2,3,,1,773,3.611802,-2.6997,0,534.738,28.9,
1550,1,SBT2050,2,3,,1,777,3.610558,-2.7,0,537.738,28.9,
1550,1,SBT2050,2,3,,1,781,3.60973,-2.7,0,540.738,29,
1550,1,SBT2050,2,3,,1,785,3.6086,-2.7002,0,543.738,29,
1550,1,SBT2050,2,3,,1,789,3.60749,-2.7005,0,546.738,29,
1550,1,SBT2050,2,3,,1,793,3.60645,-2.6996,0,549.738,29,
1550,1,SBT2050,2,3,,1,797,3.60553,-2.6998,0,552.738,29,
1550,1,SBT2050,2,3,,1,801,3.60482,-2.7003,0,555.738,29,
1550,1,SBT2050,2,3,,1,805,3.603486,-2.7003,0,558.738,29,
1550,1,SBT2050,2,3,,1,809,3.60259,-2.6998,0,561.738,29,
1550,1,SBT2050,2,3,,1,813,3.601598,-2.6998,0,564.738,29,
1550,1,SBT2050,2,3,,1,817,3.6006,-2.7,0,567.738,28.9,
1550,1,SBT2050,2,3,,1,821,3.5996,-2.7,0,570.738,29,
1550,1,SBT2050,2,3,,1,825,3.59861,-2.7,0,573.738,29,
1550,1,SBT2050,2,3,,1,829,3.597328,-2.6999,0,576.738,29,
1550,1,SBT2050,2,3,,1,833,3.596526,-2.6993,0,579.737,29,
1550,1,SBT2050,2,3,,1,837,3.59548,-2.7003,0,582.737,29,
1550,1,SBT2050,2,3,,1,841,3.59451,-2.7,0,585.737,29,
1550,1,SBT2050,2,3,,1,845,3.59325,-2.6998,0,588.737,29,
1550,1,SBT2050,2,3,,1,849,3.592434,-2.7001,0,591.737,29,
1550,1,SBT2050,2,3,,1,853,3.5915,-2.7004,0,594.737,29,
1550,1,SBT2050,2,3,,1,857,3.59061,-2.6999,0,597.737,29,
1550,1,SBT2050,2,3,,1,861,3.58958,-2.7002,0,600.737,29,
1550,1,SBT2050,2,3,,1,865,3.58882,-2.6999,0,603.737,29,
1550,1,SBT2050,2,3,,1,869,3.58765,-2.6999,0,606.737,29,
1550,1,SBT2050,2,3,,1,873,3.58647,-2.6999,0,609.737,29,
1550,1,SBT2050,2,3,,1,877,3.585438,-2.6999,0,612.737,29,
1550,1,SBT2050,2,3,,1,881,3.58462,-2.6997,0,615.737,29,
1550,1,SBT2050,2,3,,1,885,3.58351,-2.6999,0,618.737,29,
1550,1,SBT2050,2,3,,1,889,3.58268,-2.6999,0,621.737,29,
1550,1,SBT2050,2,3,,1,893,3.58178,-2.6997,0,624.737,29,
1550,1,SBT2050,2,3,,1,897,3.58075,-2.7,0,627.737,29,
1550,1,SBT2050,2,3,,1,901,3.57983,-2.7,0,630.737,29,
1550,1,SBT2050,2,3,,1,905,3.5786,-2.6999,0,633.736,29,
1550,1,SBT2050,2,3,,1,909,3.57747,-2.7,0,636.736,29,
1550,1,SBT2050,2,3,,1,913,3.57635,-2.6999,0,639.736,29,
1550,1,SBT2050,2,3,,1,917,3.57526,-2.6999,0,642.736,29,
1550,1,SBT2050,2,3,,1,921,3.57433,-2.7002,0,645.736,29,
1550,1,SBT2050,2,3,,1,925,3.57328,-2.7003,0,648.736,29,
1550,1,SBT2050,2,3,,1,929,3.57244,-2.7,0,651.736,29,
1550,1,SBT2050,2,3,,1,933,3.571282,-2.7,0,654.736,29,
1550,1,SBT2050,2,3,,1,937,3.57012,-2.7,0,657.736,29,
1550,1,SBT2050,2,3,,1,941,3.56923,-2.6998,0,660.736,29,
1550,1,SBT2050,2,3,,1,945,3.56789,-2.7,0,663.736,29,
1550,1,SBT2050,2,3,,1,949,3.56704,-2.6998,0,666.736,29,
1550,1,SBT2050,2,3,,1,953,3.56609,-2.6997,0,669.736,29,
1550,1,SBT2050,2,3,,1,957,3.56508,-2.6999,0,672.736,29.1,
1550,1,SBT2050,2,3,,1,961,3.56389,-2.7003,0,675.736,29.1,
1550,1,SBT2050,2,3,,1,965,3.56294,-2.7002,0,678.736,29,
1550,1,SBT2050,2,3,,1,969,3.56173,-2.6999,0,681.736,29,
1550,1,SBT2050,2,3,,1,973,3.560966,-2.6997,0,684.735,29,
1550,1,SBT2050,2,3,,1,977,3.55981,-2.7,0,687.735,29.1,
1550,1,SBT2050,2,3,,1,981,3.558652,-2.6997,0,690.735,29,
1550,1,SBT2050,2,3,,1,985,3.55785,-2.6999,0,693.735,29,
1550,1,SBT2050,2,3,,1,989,3.55673,-2.6998,0,696.735,29.1,
1550,1,SBT2050,2,3,,1,993,3.55569,-2.7,0,699.735,29.1,
1550,1,SBT2050,2,3,,1,997,3.55443,-2.7,0,702.735,29.1,
1550,1,SBT2050,2,3,,1,1001,3.55349,-2.7005,0,705.735,29.1,
1550,1,SBT2050,2,3,,1,1005,3.55256,-2.7,0,708.735,29.1,
1550,1,SBT2050,2,3,,1,1009,3.5516,-2.6999,0,711.735,29.1,
1550,1,SBT2050,2,3,,1,1013,3.55044,-2.7,0,714.735,29.1,
1550,1,SBT2050,2,3,,1,1017,3.54899,-2.7,0,717.735,29,
1550,1,SBT2050,2,3,,1,1021,3.54844,-2.6997,0,720.735,29.1,
1550,1,SBT2050,2,3,,1,1025,3.54751,-2.7,0,723.735,29.1,
1550,1,SBT2050,2,3,,1,1029,3.54623,-2.7003,0,726.735,29.1,
1550,1,SBT2050,2,3,,1,1033,3.54518,-2.7002,0,729.735,29.1,
1550,1,SBT2050,2,3,,1,1037,3.54403,-2.6998,0,732.735,29.1,
1550,1,SBT2050,2,3,,1,1041,3.543158,-2.6996,0,735.735,29.1,
1550,1,SBT2050,2,3,,1,1045,3.54183,-2.6999,0,738.735,29.1,
1550,1,SBT2050,2,3,,1,1049,3.54086,-2.7001,0,741.735,29.1,
1550,1,SBT2050,2,3,,1,1053,3.54011,-2.7002,0,744.734,29.1,
1550,1,SBT2050,2,3,,1,1057,3.53894,-2.6999,0,747.734,29.1,
1550,1,SBT2050,2,3,,1,1061,3.53803,-2.6999,0,750.734,29.1,
1550,1,SBT2050,2,3,,1,1065,3.53674,-2.6996,0,753.734,29.1,
1550,1,SBT2050,2,3,,1,1069,3.53552,-2.6999,0,756.734,29.1,
1550,1,SBT2050,2,3,,1,1073,3.534492,-2.7,0,759.734,29.1,
1550,1,SBT2050,2,3,,1,1077,3.53367,-2.7002,0,762.734,29.1,
1550,1,SBT2050,2,3,,1,1081,3.53269,-2.7,0,765.734,29.1,
1550,1,SBT2050,2,3,,1,1085,3.53142,-2.6997,0,768.734,29.1,
1550,1,SBT2050,2,3,,1,1089,3.53039,-2.6997,0,771.734,29.1,
1550,1,SBT2050,2,3,,1,1093,3.52935,-2.7002,0,774.734,29.1,
1550,1,SBT2050,2,3,,1,1097,3.52842,-2.6996,0,777.734,29.1,
1550,1,SBT2050,2,3,,1,1101,3.52733,-2.7,0,780.734,29.1,
1550,1,SBT2050,2,3,,1,1105,3.5264,-2.6996,0,783.734,29.1,
1550,1,SBT2050,2,3,,1,1109,3.52535,-2.7,0,786.733,29.1,
1550,1,SBT2050,2,3,,1,1113,3.524324,-2.6997,0,789.733,29.1,
1550,1,SBT2050,2,3,,1,1117,3.523254,-2.6999,0,792.733,29.1,
1550,1,SBT2050,2,3,,1,1121,3.52198,-2.7001,0,795.733,29.1,
1550,1,SBT2050,2,3,,1,1125,3.521034,-2.6998,0,798.733,29.1,
1550,1,SBT2050,2,3,,1,1129,3.52007,-2.6998,0,801.733,29.1,
1550,1,SBT2050,2,3,,1,1133,3.518884,-2.6998,0,804.733,29.1,
1550,1,SBT2050,2,3,,1,1137,3.51802,-2.7001,0,807.733,29.1,
1550,1,SBT2050,2,3,,1,1141,3.516988,-2.6999,0,810.733,29.1,
1550,1,SBT2050,2,3,,1,1145,3.51575,-2.6998,0,813.733,29.1,
1550,1,SBT2050,2,3,,1,1149,3.51479,-2.7001,0,816.733,29.1,
1550,1,SBT2050,2,3,,1,1153,3.513854,-2.6998,0,819.733,29.1,
1550,1,SBT2050,2,3,,1,1157,3.51242,-2.7001,0,822.733,29.2,
1550,1,SBT2050,2,3,,1,1161,3.5115,-2.6999,0,825.733,29.2,
1550,1,SBT2050,2,3,,1,1165,3.510282,-2.6998,0,828.733,29.1,
1550,1,SBT2050,2,3,,1,1169,3.50924,-2.6999,0,831.732,29.1,
1550,1,SBT2050,2,3,,1,1173,3.50798,-2.6998,0,834.732,29.1,
1550,1,SBT2050,2,3,,1,1177,3.50721,-2.7002,0,837.732,29.1,
1550,1,SBT2050,2,3,,1,1181,3.5059,-2.7001,0,840.732,29.1,
1550,1,SBT2050,2,3,,1,1185,3.50509,-2.6999,0,843.732,29.2,
1550,1,SBT2050,2,3,,1,1189,3.503852,-2.7002,0,846.732,29.2,
1550,1,SBT2050,2,3,,1,1193,3.50269,-2.6998,0,849.732,29.2,
1550,1,SBT2050,2,3,,1,1197,3.50182,-2.6999,0,852.732,29.2,
1550,1,SBT2050,2,3,,1,1201,3.50071,-2.6998,0,855.732,29.2,
1550,1,SBT2050,2,3,,1,1205,3.4997,-2.6998,0,858.732,29.1,
1550,1,SBT2050,2,3,,1,1209,3.49882,-2.6996,0,861.732,29.2,
1550,1,SBT2050,2,3,,1,1213,3.497692,-2.6996,0,864.732,29.2,
1550,1,SBT2050,2,3,,1,1217,3.49656,-2.6998,0,867.732,29.1,
1550,1,SBT2050,2,3,,1,1221,3.49545,-2.6998,0,870.732,29.1,
1550,1,SBT2050,2,3,,1,1225,3.49432,-2.6998,0,873.731,29.1,
1550,1,SBT2050,2,3,,1,1229,3.49332,-2.6999,0,876.731,29.1,
1550,1,SBT2050,2,3,,1,1233,3.492294,-2.7003,0,879.731,29.2,
1550,1,SBT2050,2,3,,1,1237,3.491234,-2.7003,0,882.731,29.1,
1550,1,SBT2050,2,3,,1,1241,3.48995,-2.6997,0,885.731,29.1,
1550,1,SBT2050,2,3,,1,1245,3.48898,-2.7003,0,888.731,29.2,
1550,1,SBT2050,2,3,,1,1249,3.48776,-2.6995,0,891.731,29.2,
1550,1,SBT2050,2,3,,1,1253,3.48686,-2.6997,0,894.731,29.1,
1550,1,SBT2050,2,3,,1,1257,3.48563,-2.7,0,897.731,29.1,
1550,1,SBT2050,2,3,,1,1261,3.48456,-2.7001,0,900.731,29.1,
1550,1,SBT2050,2,3,,1,1265,3.483526,-2.7001,0,903.731,29.2,
1550,1,SBT2050,2,3,,1,1269,3.48233,-2.6998,0,906.731,29.2,
1550,1,SBT2050,2,3,,1,1273,3.48133,-2.6997,0,909.731,29.2,
1550,1,SBT2050,2,3,,1,1277,3.48038,-2.7,0,912.731,29.2,
1550,1,SBT2050,2,3,,1,1281,3.479218,-2.7003,0,915.731,29.2,
1550,1,SBT2050,2,3,,1,1285,3.47812,-2.7003,0,918.731,29.2,
1550,1,SBT2050,2,3,,1,1289,3.47716,-2.6996,0,921.731,29.2,
1550,1,SBT2050,2,3,,1,1293,3.476088,-2.7,0,924.731,29.2,
1550,1,SBT2050,2,3,,1,1297,3.47504,-2.7001,0,927.731,29.1,
1550,1,SBT2050,2,3,,1,1301,3.47391,-2.6999,0,930.731,29.1,
1550,1,SBT2050,2,3,,1,1305,3.47276,-2.7004,0,933.731,29.2,
1550,1,SBT2050,2,3,,1,1309,3.47176,-2.6999,0,936.731,29.2,
1550,1,SBT2050,2,3,,1,1313,3.47064,-2.6999,0,939.73,29.2,
1550,1,SBT2050,2,3,,1,1317,3.46954,-2.7005,0,942.73,29.2,
1550,1,SBT2050,2,3,,1,1321,3.46868,-2.6999,0,945.73,29.2,
1550,1,SBT2050,2,3,,1,1325,3.4674,-2.7001,0,948.73,29.2,
1550,1,SBT2050,2,3,,1,1329,3.46643,-2.6999,0,951.73,29.2,
1550,1,SBT2050,2,3,,1,1333,3.465436,-2.6995,0,954.73,29.2,
1550,1,SBT2050,2,3,,1,1337,3.46415,-2.6996,0,957.73,29.2,
1550,1,SBT2050,2,3,,1,1341,3.46307,-2.6999,0,960.73,29.2,
1550,1,SBT2050,2,3,,1,1345,3.4622,-2.6999,0,963.73,29.2,
1550,1,SBT2050,2,3,,1,1349,3.46086,-2.6996,0,966.73,29.1,
1550,1,SBT2050,2,3,,1,1353,3.45998,-2.7002,0,969.73,29.2,
1550,1,SBT2050,2,3,,1,1357,3.45879,-2.6996,0,972.73,29.2,
1550,1,SBT2050,2,3,,1,1361,3.45783,-2.6999,0,975.73,29.2,
1550,1,SBT2050,2,3,,1,1365,3.45664,-2.7001,0,978.73,29.2,
1550,1,SBT2050,2,3,,1,1369,3.45559,-2.7001,0,981.729,29.2,
1550,1,SBT2050,2,3,,1,1373,3.45461,-2.6998,0,984.729,29.2,
1550,1,SBT2050,2,3,,1,1377,3.45346,-2.7002,0,987.729,29.2,
1550,1,SBT2050,2,3,,1,1381,3.45241,-2.6998,0,990.729,29.2,
1550,1,SBT2050,2,3,,1,1385,3.451226,-2.6996,0,993.729,29.2,
1550,1,SBT2050,2,3,,1,1389,3.450584,-2.6999,0,996.729,29.2,
1550,1,SBT2050,2,3,,1,1393,3.44917,-2.6996,0,999.729,29.2,
1550,1,SBT2050,2,3,,1,1397,3.448278,-2.6999,0,1002.729,29.2,
1550,1,SBT2050,2,3,,1,1401,3.447206,-2.7003,0,1005.729,29.2,
1550,1,SBT2050,2,3,,1,1405,3.446086,-2.7001,0,1008.729,29.2,
1550,1,SBT2050,2,3,,1,1409,3.44509,-2.7003,0,1011.729,29.2,
1550,1,SBT2050,2,3,,1,1413,3.44399,-2.6998,0,1014.729,29.2,
1550,1,SBT2050,2,3,,1,1417,3.44274,-2.6996,0,1017.729,29.2,
1550,1,SBT2050,2,3,,1,1421,3.44173,-2.6995,0,1020.729,29.2,
1550,1,SBT2050,2,3,,1,1425,3.44085,-2.6998,0,1023.728,29.2,
1550,1,SBT2050,2,3,,1,1429,3.43952,-2.6998,0,1026.728,29.2,
1550,1,SBT2050,2,3,,1,1433,3.43886,-2.6999,0,1029.728,29.2,
1550,1,SBT2050,2,3,,1,1437,3.43753,-2.6993,0,1032.728,29.2,
1550,1,SBT2050,2,3,,1,1441,3.4366,-2.6996,0,1035.728,29.2,
1550,1,SBT2050,2,3,,1,1445,3.43564,-2.7001,0,1038.728,29.2,
1550,1,SBT2050,2,3,,1,1449,3.43457,-2.7,0,1041.728,29.2,
1550,1,SBT2050,2,3,,1,1453,3.43344,-2.7002,0,1044.728,29.2,
1550,1,SBT2050,2,3,,1,1457,3.43246,-2.6999,0,1047.728,29.2,
1550,1,SBT2050,2,3,,1,1461,3.431404,-2.6999,0,1050.728,29.2,
1550,1,SBT2050,2,3,,1,1465,3.43012,-2.6999,0,1053.728,29.2,
1550,1,SBT2050,2,3,,1,1469,3.4291,-2.7,0,1056.728,29.2,
1550,1,SBT2050,2,3,,1,1473,3.42822,-2.6998,0,1059.728,29.2,
1550,1,SBT2050,2,3,,1,1477,3.427,-2.6998,0,1062.728,29.2,
1550,1,SBT2050,2,3,,1,1481,3.42573,-2.7,0,1065.727,29.2,
1550,1,SBT2050,2,3,,1,1485,3.42502,-2.7001,0,1068.727,29.2,
1550,1,SBT2050,2,3,,1,1489,3.42385,-2.7,0,1071.727,29.2,
1550,1,SBT2050,2,3,,1,1493,3.422706,-2.7,0,1074.727,29.2,
1550,1,SBT2050,2,3,,1,1497,3.42167,-2.6998,0,1077.727,29.2,
1550,1,SBT2050,2,3,,1,1501,3.42041,-2.6998,0,1080.727,29.2,
1550,1,SBT2050,2,3,,1,1505,3.41977,-2.7003,0,1083.727,29.2,
1550,1,SBT2050,2,3,,1,1509,3.41851,-2.7,0,1086.727,29.2,
1550,1,SBT2050,2,3,,1,1513,3.41743,-2.7001,0,1089.727,29.2,
1550,1,SBT2050,2,3,,1,1517,3.41622,-2.6998,0,1092.727,29.2,
1550,1,SBT2050,2,3,,1,1521,3.41552,-2.6999,0,1095.727,29.2,
1550,1,SBT2050,2,3,,1,1525,3.414274,-2.7,0,1098.727,29.3,
1550,1,SBT2050,2,3,,1,1529,3.41308,-2.7,0,1101.727,29.2,
1550,1,SBT2050,2,3,,1,1533,3.41212,-2.7002,0,1104.727,29.2,
1550,1,SBT2050,2,3,,1,1537,3.41096,-2.7002,0,1107.727,29.2,
1550,1,SBT2050,2,3,,1,1541,3.4096,-2.7,0,1110.727,29.2,
1550,1,SBT2050,2,3,,1,1545,3.4089,-2.7,0,1113.727,29.2,
1550,1,SBT2050,2,3,,1,1549,3.4078,-2.7,0,1116.727,29.2,
1550,1,SBT2050,2,3,,1,1553,3.40683,-2.7,0,1119.727,29.2,
1550,1,SBT2050,2,3,,1,1557,3.40588,-2.6997,0,1122.726,29.2,
1550,1,SBT2050,2,3,,1,1561,3.4047,-2.6999,0,1125.726,29.2,
1550,1,SBT2050,2,3,,1,1565,3.40361,-2.6999,0,1128.726,29.2,
1550,1,SBT2050,2,3,,1,1569,3.40249,-2.6999,0,1131.726,29.2,
1550,1,SBT2050,2,3,,1,1573,3.40137,-2.6998,0,1134.726,29.2,
1550,1,SBT2050,2,3,,1,1577,3.40051,-2.6999,0,1137.726,29.2,
1550,1,SBT2050,2,3,,1,1581,3.39933,-2.6999,0,1140.726,29.2,
1550,1,SBT2050,2,3,,1,1585,3.3983,-2.7002,0,1143.726,29.2,
1550,1,SBT2050,2,3,,1,1589,3.397132,-2.6999,0,1146.726,29.2,
1550,1,SBT2050,2,3,,1,1593,3.396218,-2.6996,0,1149.726,29.2,
1550,1,SBT2050,2,3,,1,1597,3.395,-2.6999,0,1152.726,29.2,
1550,1,SBT2050,2,3,,1,1601,3.3938,-2.6996,0,1155.726,29.3,
1550,1,SBT2050,2,3,,1,1605,3.39265,-2.6999,0,1158.726,29.3,
1550,1,SBT2050,2,3,,1,1609,3.391694,-2.6999,0,1161.726,29.2,
1550,1,SBT2050,2,3,,1,1613,3.39045,-2.7,0,1164.726,29.2,
1550,1,SBT2050,2,3,,1,1617,3.389276,-2.7002,0,1167.726,29.3,
1550,1,SBT2050,2,3,,1,1621,3.388174,-2.7002,0,1170.726,29.3,
1550,1,SBT2050,2,3,,1,1625,3.38728,-2.6999,0,1173.726,29.2,
1550,1,SBT2050,2,3,,1,1629,3.38624,-2.7,0,1176.725,29.3,
1550,1,SBT2050,2,3,,1,1633,3.38513,-2.6999,0,1179.725,29.3,
1550,1,SBT2050,2,3,,1,1637,3.38432,-2.6998,0,1182.725,29.3,
1550,1,SBT2050,2,3,,1,1641,3.38302,-2.6999,0,1185.725,29.2,
1550,1,SBT2050,2,3,,1,1645,3.381848,-2.6999,0,1188.725,29.3,
1550,1,SBT2050,2,3,,1,1649,3.38102,-2.6999,0,1191.725,29.3,
1550,1,SBT2050,2,3,,1,1653,3.3798,-2.6997,0,1194.725,29.3,
1550,1,SBT2050,2,3,,1,1657,3.37873,-2.7002,0,1197.725,29.3,
1550,1,SBT2050,2,3,,1,1661,3.37775,-2.6999,0,1200.725,29.3,
1550,1,SBT2050,2,3,,1,1665,3.37644,-2.7003,0,1203.725,29.3,
1550,1,SBT2050,2,3,,1,1669,3.37556,-2.7003,0,1206.725,29.3,
1550,1,SBT2050,2,3,,1,1673,3.37466,-2.7,0,1209.725,29.3,
1550,1,SBT2050,2,3,,1,1677,3.37341,-2.6999,0,1212.725,29.3,
1550,1,SBT2050,2,3,,1,1681,3.37232,-2.7,0,1215.725,29.3,
1550,1,SBT2050,2,3,,1,1685,3.371162,-2.7002,0,1218.725,29.3,
1550,1,SBT2050,2,3,,1,1689,3.37031,-2.6999,0,1221.725,29.3,
1550,1,SBT2050,2,3,,1,1693,3.3691,-2.7002,0,1224.724,29.3,
1550,1,SBT2050,2,3,,1,1697,3.36805,-2.6997,0,1227.724,29.3,
1550,1,SBT2050,2,3,,1,1701,3.367044,-2.7,0,1230.724,29.3,
1550,1,SBT2050,2,3,,1,1705,3.36585,-2.7005,0,1233.724,29.3,
1550,1,SBT2050,2,3,,1,1709,3.36496,-2.7002,0,1236.724,29.3,
1550,1,SBT2050,2,3,,1,1713,3.36394,-2.6997,0,1239.724,29.3,
1550,1,SBT2050,2,3,,1,1717,3.36246,-2.7,0,1242.724,29.3,
1550,1,SBT2050,2,3,,1,1721,3.3619,-2.6998,0,1245.724,29.3,
1550,1,SBT2050,2,3,,1,1725,3.360582,-2.7003,0,1248.724,29.3,
1550,1,SBT2050,2,3,,1,1729,3.35964,-2.6997,0,1251.724,29.3,
1550,1,SBT2050,2,3,,1,1733,3.35823,-2.7,0,1254.724,29.3,
1550,1,SBT2050,2,3,,1,1737,3.357206,-2.6996,0,1257.724,29.3,
1550,1,SBT2050,2,3,,1,1741,3.3561,-2.6996,0,1260.724,29.3,
1550,1,SBT2050,2,3,,1,1745,3.35511,-2.6996,0,1263.724,29.3,
1550,1,SBT2050,2,3,,1,1749,3.353973,-2.7005,0,1266.724,29.3,
1550,1,SBT2050,2,3,,1,1753,3.3526,-2.7001,0,1269.724,29.3,
1550,1,SBT2050,2,3,,1,1757,3.351588,-2.6995,0,1272.723,29.3,
1550,1,SBT2050,2,3,,1,1761,3.35061,-2.6998,0,1275.723,29.3,
1550,1,SBT2050,2,3,,1,1765,3.34954,-2.7001,0,1278.723,29.3,
1550,1,SBT2050,2,3,,1,1769,3.34835,-2.7002,0,1281.723,29.3,
1550,1,SBT2050,2,3,,1,1773,3.34724,-2.7004,0,1284.723,29.3,
1550,1,SBT2050,2,3,,1,1777,3.34612,-2.7,0,1287.723,29.3,
1550,1,SBT2050,2,3,,1,1781,3.34528,-2.6999,0,1290.723,29.3,
1550,1,SBT2050,2,3,,1,1785,3.344021,-2.7001,0,1293.723,29.3,
1550,1,SBT2050,2,3,,1,1789,3.34295,-2.7005,0,1296.723,29.4,
1550,1,SBT2050,2,3,,1,1793,3.34175,-2.7002,0,1299.723,29.4,
1550,1,SBT2050,2,3,,1,1797,3.340736,-2.6998,0,1302.723,29.4,
1550,1,SBT2050,2,3,,1,1801,3.33957,-2.7001,0,1305.723,29.4,
1550,1,SBT2050,2,3,,1,1805,3.33853,-2.7001,0,1308.723,29.4,
1550,1,SBT2050,2,3,,1,1809,3.337406,-2.7001,0,1311.723,29.4,
1550,1,SBT2050,2,3,,1,1813,3.33619,-2.6999,0,1314.722,29.4,
1550,1,SBT2050,2,3,,1,1817,3.33519,-2.7001,0,1317.722,29.4,
1550,1,SBT2050,2,3,,1,1821,3.33402,-2.7001,0,1320.722,29.4,
1550,1,SBT2050,2,3,,1,1825,3.33281,-2.7001,0,1323.722,29.4,
1550,1,SBT2050,2,3,,1,1829,3.33184,-2.6999,0,1326.722,29.4,
1550,1,SBT2050,2,3,,1,1833,3.33095,-2.6998,0,1329.722,29.4,
1550,1,SBT2050,2,3,,1,1837,3.32964,-2.6998,0,1332.722,29.4,
1550,1,SBT2050,2,3,,1,1841,3.32861,-2.6999,0,1335.722,29.4,
1550,1,SBT2050,2,3,,1,1845,3.32733,-2.7001,0,1338.722,29.4,
1550,1,SBT2050,2,3,,1,1849,3.326246,-2.6999,0,1341.722,29.4,
1550,1,SBT2050,2,3,,1,1853,3.325077,-2.6999,0,1344.722,29.4,
1550,1,SBT2050,2,3,,1,1857,3.32402,-2.6996,0,1347.722,29.4,
1550,1,SBT2050,2,3,,1,1861,3.32303,-2.6998,0,1350.722,29.4,
1550,1,SBT2050,2,3,,1,1865,3.32184,-2.6999,0,1353.722,29.4,
1550,1,SBT2050,2,3,,1,1869,3.32094,-2.7,0,1356.722,29.4,
1550,1,SBT2050,2,3,,1,1873,3.31965,-2.6998,0,1359.722,29.4,
1550,1,SBT2050,2,3,,1,1877,3.3184,-2.7001,0,1362.721,29.4,
1550,1,SBT2050,2,3,,1,1881,3.31735,-2.7001,0,1365.721,29.4,
1550,1,SBT2050,2,3,,1,1885,3.31622,-2.6996,0,1368.721,29.4,
1550,1,SBT2050,2,3,,1,1889,3.314849,-2.6998,0,1371.721,29.4,
1550,1,SBT2050,2,3,,1,1893,3.31375,-2.6998,0,1374.721,29.4,
1550,1,SBT2050,2,3,,1,1897,3.31282,-2.6996,0,1377.721,29.4,
1550,1,SBT2050,2,3,,1,1901,3.31168,-2.6999,0,1380.721,29.4,
1550,1,SBT2050,2,3,,1,1905,3.31042,-2.6999,0,1383.721,29.5,
1550,1,SBT2050,2,3,,1,1909,3.30939,-2.6997,0,1386.721,29.5,
1550,1,SBT2050,2,3,,1,1913,3.308231,-2.7002,0,1389.721,29.5,
1550,1,SBT2050,2,3,,1,1917,3.30692,-2.6997,0,1392.721,29.4,
1550,1,SBT2050,2,3,,1,1921,3.30592,-2.7,0,1395.721,29.5,
1550,1,SBT2050,2,3,,1,1925,3.30455,-2.6999,0,1398.721,29.5,
1550,1,SBT2050,2,3,,1,1929,3.30354,-2.6999,0,1401.721,29.5,
1550,1,SBT2050,2,3,,1,1933,3.30253,-2.7001,0,1404.721,29.5,
1550,1,SBT2050,2,3,,1,1937,3.30117,-2.7,0,1407.72,29.5,
1550,1,SBT2050,2,3,,1,1941,3.29993,-2.7006,0,1410.72,29.5,
1550,1,SBT2050,2,3,,1,1945,3.29888,-2.6997,0,1413.72,29.5,
1550,1,SBT2050,2,3,,1,1949,3.29751,-2.6997,0,1416.72,29.5,
1550,1,SBT2050,2,3,,1,1953,3.29656,-2.6999,0,1419.72,29.5,
1550,1,SBT2050,2,3,,1,1957,3.29497,-2.6999,0,1422.72,29.5,
1550,1,SBT2050,2,3,,1,1961,3.29389,-2.7002,0,1425.72,29.5,
1550,1,SBT2050,2,3,,1,1965,3.29284,-2.7,0,1428.72,29.5,
1550,1,SBT2050,2,3,,1,1969,3.29159,-2.7002,0,1431.72,29.5,
1550,1,SBT2050,2,3,,1,1973,3.29059,-2.6999,0,1434.72,29.5,
1550,1,SBT2050,2,3,,1,1977,3.28941,-2.7002,0,1437.72,29.5,
1550,1,SBT2050,2,3,,1,1981,3.28822,-2.7002,0,1440.72,29.6,
1550,1,SBT2050,2,3,,1,1985,3.28695,-2.6999,0,1443.72,29.5,
1550,1,SBT2050,2,3,,1,1989,3.28587,-2.6994,0,1446.719,29.5,
1550,1,SBT2050,2,3,,1,1993,3.28454,-2.6999,0,1449.719,29.5,
1550,1,SBT2050,2,3,,1,1997,3.28347,-2.7002,0,1452.719,29.6,
1550,1,SBT2050,2,3,,1,2001,3.28231,-2.7,0,1455.719,29.6,
1550,1,SBT2050,2,3,,1,2005,3.281228,-2.7,0,1458.719,29.6,
1550,1,SBT2050,2,3,,1,2009,3.27992,-2.7,0,1461.719,29.6,
1550,1,SBT2050,2,3,,1,2013,3.27867,-2.6995,0,1464.719,29.6,
1550,1,SBT2050,2,3,,1,2017,3.27752,-2.7,0,1467.719,29.6,
1550,1,SBT2050,2,3,,1,2021,3.27634,-2.6998,0,1470.719,29.6,
1550,1,SBT2050,2,3,,1,2025,3.27517,-2.7,0,1473.719,29.6,
1550,1,SBT2050,2,3,,1,2029,3.274,-2.7001,0,1476.719,29.6,
1550,1,SBT2050,2,3,,1,2033,3.27275,-2.7003,0,1479.719,29.6,
1550,1,SBT2050,2,3,,1,2037,3.27162,-2.6998,0,1482.719,29.7,
1550,1,SBT2050,2,3,,1,2041,3.270102,-2.7001,0,1485.719,29.7,
1550,1,SBT2050,2,3,,1,2045,3.268996,-2.7001,0,1488.719,29.7,
1550,1,SBT2050,2,3,,1,2049,3.26779,-2.7,0,1491.719,29.6,
1550,1,SBT2050,2,3,,1,2053,3.26652,-2.7,0,1494.719,29.7,
1550,1,SBT2050,2,3,,1,2057,3.26531,-2.7,0,1497.719,29.7,
1550,1,SBT2050,2,3,,1,2061,3.26415,-2.6997,0,1500.719,29.7,
1550,1,SBT2050,2,3,,1,2065,3.26274,-2.7,0,1503.718,29.7,
1550,1,SBT2050,2,3,,1,2069,3.261444,-2.7003,0,1506.718,29.7,
1550,1,SBT2050,2,3,,1,2073,3.2601,-2.7,0,1509.718,29.7,
1550,1,SBT2050,2,3,,1,2077,3.25898,-2.7002,0,1512.718,29.7,
1550,1,SBT2050,2,3,,1,2081,3.25748,-2.6999,0,1515.718,29.7,
1550,1,SBT2050,2,3,,1,2085,3.25613,-2.6999,0,1518.718,29.7,
1550,1,SBT2050,2,3,,1,2089,3.25498,-2.6999,0,1521.718,29.7,
1550,1,SBT2050,2,3,,1,2093,3.25373,-2.6998,0,1524.718,29.7,
1550,1,SBT2050,2,3,,1,2097,3.25282,-2.6996,0,1527.718,29.7,
1550,1,SBT2050,2,3,,1,2101,3.25134,-2.6998,0,1530.718,29.7,
1550,1,SBT2050,2,3,,1,2105,3.25011,-2.6998,0,1533.718,29.7,
1550,1,SBT2050,2,3,,1,2109,3.24874,-2.7,0,1536.718,29.7,
1550,1,SBT2050,2,3,,1,2113,3.247473,-2.7003,0,1539.718,29.8,
1550,1,SBT2050,2,3,,1,2117,3.24617,-2.6999,0,1542.718,29.8,
1550,1,SBT2050,2,3,,1,2121,3.24449,-2.7001,0,1545.718,29.8,
1550,1,SBT2050,2,3,,1,2125,3.24351,-2.6999,0,1548.717,29.7,
1550,1,SBT2050,2,3,,1,2129,3.24215,-2.7,0,1551.717,29.8,
1550,1,SBT2050,2,3,,1,2133,3.24091,-2.6999,0,1554.717,29.8,
1550,1,SBT2050,2,3,,1,2137,3.2395,-2.6996,0,1557.717,29.8,
1550,1,SBT2050,2,3,,1,2141,3.238011,-2.6999,0,1560.717,29.8,
1550,1,SBT2050,2,3,,1,2145,3.23696,-2.6999,0,1563.717,29.8,
1550,1,SBT2050,2,3,,1,2149,3.23536,-2.6995,0,1566.717,29.8,
1550,1,SBT2050,2,3,,1,2153,3.234103,-2.6999,0,1569.717,29.8,
1550,1,SBT2050,2,3,,1,2157,3.23278,-2.7004,0,1572.717,29.8,
1550,1,SBT2050,2,3,,1,2161,3.23126,-2.6999,0,1575.717,29.8,
1550,1,SBT2050,2,3,,1,2165,3.22999,-2.7001,0,1578.717,29.8,
1550,1,SBT2050,2,3,,1,2169,3.22864,-2.6997,0,1581.717,29.8,
1550,1,SBT2050,2,3,,1,2173,3.22727,-2.7004,0,1584.717,29.8,
1550,1,SBT2050,2,3,,1,2177,3.22589,-2.7001,0,1587.717,29.8,
1550,1,SBT2050,2,3,,1,2181,3.224513,-2.7001,0,1590.716,29.8,
1550,1,SBT2050,2,3,,1,2185,3.22322,-2.6999,0,1593.716,29.8,
1550,1,SBT2050,2,3,,1,2189,3.22191,-2.6995,0,1596.716,29.9,
1550,1,SBT2050,2,3,,1,2193,3.22054,-2.6998,0,1599.716,29.9,
1550,1,SBT2050,2,3,,1,2197,3.218941,-2.7001,0,1602.716,29.9,
1550,1,SBT2050,2,3,,1,2201,3.21781,-2.7,0,1605.716,29.9,
1550,1,SBT2050,2,3,,1,2205,3.216103,-2.7003,0,1608.716,29.9,
1550,1,SBT2050,2,3,,1,2209,3.21512,-2.7,0,1611.716,29.9,
1550,1,SBT2050,2,3,,1,2213,3.2135,-2.7002,0,1614.716,29.9,
1550,1,SBT2050,2,3,,1,2217,3.21194,-2.7,0,1617.716,29.9,
1550,1,SBT2050,2,3,,1,2221,3.21064,-2.6998,0,1620.716,29.9,
1550,1,SBT2050,2,3,,1,2225,3.20909,-2.6998,0,1623.716,29.9,
1550,1,SBT2050,2,3,,1,2229,3.20768,-2.6999,0,1626.716,30,
1550,1,SBT2050,2,3,,1,2233,3.20615,-2.6998,0,1629.716,30,
1550,1,SBT2050,2,3,,1,2237,3.20492,-2.7001,0,1632.716,30,
1550,1,SBT2050,2,3,,1,2241,3.203251,-2.6999,0,1635.716,30,
1550,1,SBT2050,2,3,,1,2245,3.2021,-2.7001,0,1638.715,30,
1550,1,SBT2050,2,3,,1,2249,3.20062,-2.6996,0,1641.715,30,
1550,1,SBT2050,2,3,,1,2253,3.19903,-2.6996,0,1644.715,30,
1550,1,SBT2050,2,3,,1,2257,3.19747,-2.6998,0,1647.715,30,
1550,1,SBT2050,2,3,,1,2261,3.19614,-2.7001,0,1650.715,30,
1550,1,SBT2050,2,3,,1,2265,3.19461,-2.6996,0,1653.715,30.1,
1550,1,SBT2050,2,3,,1,2269,3.19332,-2.6996,0,1656.715,30,
1550,1,SBT2050,2,3,,1,2273,3.19173,-2.7001,0,1659.715,30.1,
1550,1,SBT2050,2,3,,1,2277,3.190197,-2.6999,0,1662.715,30.1,
1550,1,SBT2050,2,3,,1,2281,3.188608,-2.7,0,1665.715,30.1,
1550,1,SBT2050,2,3,,1,2285,3.18697,-2.6999,0,1668.715,30.1,
1550,1,SBT2050,2,3,,1,2289,3.18534,-2.7001,0,1671.715,30.1,
1550,1,SBT2050,2,3,,1,2293,3.183942,-2.6996,0,1674.715,30.1,
1550,1,SBT2050,2,3,,1,2297,3.18236,-2.6999,0,1677.715,30.1,
1550,1,SBT2050,2,3,,1,2301,3.18083,-2.6998,0,1680.714,30.1,
1550,1,SBT2050,2,3,,1,2305,3.17941,-2.6998,0,1683.714,30.1,
1550,1,SBT2050,2,3,,1,2309,3.17764,-2.7,0,1686.714,30.1,
1550,1,SBT2050,2,3,,1,2313,3.17628,-2.7,0,1689.714,30.2,
1550,1,SBT2050,2,3,,1,2317,3.174582,-2.6996,0,1692.714,30.2,
1550,1,SBT2050,2,3,,1,2321,3.17296,-2.7002,0,1695.714,30.2,
1550,1,SBT2050,2,3,,1,2325,3.17176,-2.7001,0,1698.714,30.2,
1550,1,SBT2050,2,3,,1,2329,3.17021,-2.7,0,1701.714,30.2,
1550,1,SBT2050,2,3,,1,2333,3.1684,-2.7,0,1704.714,30.2,
1550,1,SBT2050,2,3,,1,2337,3.16676,-2.6997,0,1707.714,30.3,
1550,1,SBT2050,2,3,,1,2341,3.165091,-2.6998,0,1710.714,30.3,
1550,1,SBT2050,2,3,,1,2345,3.16337,-2.7001,0,1713.714,30.3,
1550,1,SBT2050,2,3,,1,2349,3.16173,-2.6997,0,1716.714,30.3,
1550,1,SBT2050,2,3,,1,2353,3.16029,-2.7,0,1719.714,30.3,
1550,1,SBT2050,2,3,,1,2357,3.15857,-2.6999,0,1722.714,30.3,
1550,1,SBT2050,2,3,,1,2361,3.15679,-2.6997,0,1725.714,30.3,
1550,1,SBT2050,2,3,,1,2365,3.15508,-2.6999,0,1728.714,30.3,
1550,1,SBT2050,2,3,,1,2369,3.15327,-2.7005,0,1731.714,30.3,
1550,1,SBT2050,2,3,,1,2373,3.1516,-2.7002,0,1734.713,30.4,
1550,1,SBT2050,2,3,,1,2377,3.14997,-2.6999,0,1737.713,30.4,
1550,1,SBT2050,2,3,,1,2381,3.14825,-2.7002,0,1740.713,30.4,
1550,1,SBT2050,2,3,,1,2385,3.146444,-2.7002,0,1743.713,30.4,
1550,1,SBT2050,2,3,,1,2389,3.14458,-2.7004,0,1746.713,30.4,
1550,1,SBT2050,2,3,,1,2393,3.142941,-2.7001,0,1749.713,30.4,
1550,1,SBT2050,2,3,,1,2397,3.14095,-2.6998,0,1752.713,30.4,
1550,1,SBT2050,2,3,,1,2401,3.139305,-2.6999,0,1755.713,30.4,
1550,1,SBT2050,2,3,,1,2405,3.13731,-2.7001,0,1758.713,30.4,
1550,1,SBT2050,2,3,,1,2409,3.13558,-2.6999,0,1761.713,30.4,
1550,1,SBT2050,2,3,,1,2413,3.134,-2.6999,0,1764.713,30.5,
1550,1,SBT2050,2,3,,1,2417,3.13212,-2.7001,0,1767.713,30.5,
1550,1,SBT2050,2,3,,1,2421,3.1305,-2.6995,0,1770.713,30.5,
1550,1,SBT2050,2,3,,1,2425,3.1286,-2.6999,0,1773.713,30.5,
1550,1,SBT2050,2,3,,1,2429,3.12672,-2.7002,0,1776.713,30.5,
1550,1,SBT2050,2,3,,1,2433,3.12482,-2.6999,0,1779.712,30.5,
1550,1,SBT2050,2,3,,1,2437,3.123,-2.6999,0,1782.712,30.5,
1550,1,SBT2050,2,3,,1,2441,3.12113,-2.6999,0,1785.712,30.5,
1550,1,SBT2050,2,3,,1,2445,3.119214,-2.7001,0,1788.712,30.5,
1550,1,SBT2050,2,3,,1,2449,3.11747,-2.7,0,1791.712,30.5,
1550,1,SBT2050,2,3,,1,2453,3.11547,-2.7,0,1794.712,30.5,
1550,1,SBT2050,2,3,,1,2457,3.11363,-2.7002,0,1797.712,30.5,
1550,1,SBT2050,2,3,,1,2461,3.111762,-2.6999,0,1800.712,30.6,
1550,1,SBT2050,2,3,,1,2465,3.11,-2.6999,0,1803.712,30.6,
1550,1,SBT2050,2,3,,1,2469,3.10804,-2.7,0,1806.712,30.6,
1550,1,SBT2050,2,3,,1,2473,3.10603,-2.6999,0,1809.712,30.6,
1550,1,SBT2050,2,3,,1,2477,3.1037,-2.6997,0,1812.712,30.6,
1550,1,SBT2050,2,3,,1,2481,3.10184,-2.6999,0,1815.712,30.6,
1550,1,SBT2050,2,3,,1,2485,3.09995,-2.7,0,1818.712,30.6,
1550,1,SBT2050,2,3,,1,2489,3.09775,-2.6997,0,1821.712,30.6,
1550,1,SBT2050,2,3,,1,2493,3.09577,-2.6999,0,1824.711,30.7,
1550,1,SBT2050,2,3,,1,2497,3.09392,-2.7,0,1827.711,30.7,
1550,1,SBT2050,2,3,,1,2501,3.09167,-2.7,0,1830.711,30.7,
1550,1,SBT2050,2,3,,1,2505,3.08967,-2.7,0,1833.711,30.7,
1550,1,SBT2050,2,3,,1,2509,3.087478,-2.6997,0,1836.711,30.7,
1550,1,SBT2050,2,3,,1,2513,3.08542,-2.6999,0,1839.711,30.7,
1550,1,SBT2050,2,3,,1,2517,3.08327,-2.6999,0,1842.711,30.8,
1550,1,SBT2050,2,3,,1,2521,3.08126,-2.7001,0,1845.711,30.8,
1550,1,SBT2050,2,3,,1,2525,3.07922,-2.6998,0,1848.711,30.8,
1550,1,SBT2050,2,3,,1,2529,3.07696,-2.7,0,1851.711,30.8,
1550,1,SBT2050,2,3,,1,2533,3.074709,-2.6999,0,1854.711,30.8,
1550,1,SBT2050,2,3,,1,2537,3.072769,-2.6999,0,1857.711,30.8,
1550,1,SBT2050,2,3,,1,2541,3.07076,-2.7002,0,1860.711,30.8,
1550,1,SBT2050,2,3,,1,2545,3.06842,-2.7,0,1863.711,30.9,
1550,1,SBT2050,2,3,,1,2549,3.06633,-2.7,0,1866.711,30.9,
1550,1,SBT2050,2,3,,1,2553,3.064051,-2.6996,0,1869.711,30.9,
1550,1,SBT2050,2,3,,1,2557,3.06174,-2.6999,0,1872.711,30.9,
1550,1,SBT2050,2,3,,1,2561,3.0596,-2.7003,0,1875.711,30.9,
1550,1,SBT2050,2,3,,1,2565,3.0574,-2.6999,0,1878.71,30.9,
1550,1,SBT2050,2,3,,1,2569,3.055,-2.7,0,1881.71,30.9,
1550,1,SBT2050,2,3,,1,2573,3.05301,-2.7,0,1884.71,31,
1550,1,SBT2050,2,3,,1,2577,3.05078,-2.6997,0,1887.71,31,
1550,1,SBT2050,2,3,,1,2581,3.04802,-2.6999,0,1890.71,31,
1550,1,SBT2050,2,3,,1,2585,3.04593,-2.7002,0,1893.71,31,
1550,1,SBT2050,2,3,,1,2589,3.043716,-2.7,0,1896.71,31,
1550,1,SBT2050,2,3,,1,2593,3.04123,-2.6996,0,1899.71,31,
1550,1,SBT2050,2,3,,1,2597,3.03894,-2.6997,0,1902.71,31.1,
1550,1,SBT2050,2,3,,1,2601,3.03629,-2.6997,0,1905.71,31.1,
1550,1,SBT2050,2,3,,1,2605,3.03412,-2.7001,0,1908.71,31.1,
1550,1,SBT2050,2,3,,1,2609,3.031396,-2.6997,0,1911.71,31.1,
1550,1,SBT2050,2,3,,1,2613,3.02908,-2.7,0,1914.71,31.1,
1550,1,SBT2050,2,3,,1,2617,3.02636,-2.6999,0,1917.71,31.1,
1550,1,SBT2050,2,3,,1,2621,3.02396,-2.7,0,1920.71,31.2,
1550,1,SBT2050,2,3,,1,2625,3.021345,-2.7,0,1923.71,31.2,
1550,1,SBT2050,2,3,,1,2629,3.01891,-2.7004,0,1926.71,31.2,
1550,1,SBT2050,2,3,,1,2633,3.016413,-2.7001,0,1929.709,31.2,
1550,1,SBT2050,2,3,,1,2637,3.01371,-2.7003,0,1932.709,31.2,
1550,1,SBT2050,2,3,,1,2641,3.01132,-2.7,0,1935.709,31.3,
1550,1,SBT2050,2,3,,1,2645,3.00883,-2.6994,0,1938.709,31.3,
1550,1,SBT2050,2,3,,1,2649,3.00605,-2.6999,0,1941.709,31.3,
1550,1,SBT2050,2,3,,1,2653,3.00342,-2.7002,0,1944.709,31.4,
1550,1,SBT2050,2,3,,1,2657,3.00075,-2.6999,0,1947.709,31.4,
1550,1,SBT2050,2,3,,1,2661,2.997693,-2.7,0,1950.709,31.4,
1550,1,SBT2050,2,3,,1,2665,2.99505,-2.6997,0,1953.709,31.4,
1550,1,SBT2050,2,3,,1,2669,2.99234,-2.7,0,1956.709,31.4,
1550,1,SBT2050,2,3,,1,2673,2.9896,-2.6999,0,1959.709,31.4,
1550,1,SBT2050,2,3,,1,2677,2.98667,-2.7,0,1962.709,31.5,
1550,1,SBT2050,2,3,,1,2681,2.98391,-2.6999,0,1965.709,31.5,
1550,1,SBT2050,2,3,,1,2685,2.98111,-2.6997,0,1968.709,31.5,
1550,1,SBT2050,2,3,,1,2689,2.97808,-2.6999,0,1971.709,31.5,
1550,1,SBT2050,2,3,,1,2693,2.97515,-2.7002,0,1974.709,31.5,
1550,1,SBT2050,2,3,,1,2697,2.97235,-2.6999,0,1977.709,31.5,
1550,1,SBT2050,2,3,,1,2701,2.96894,-2.7002,0,1980.709,31.6,
1550,1,SBT2050,2,3,,1,2705,2.966134,-2.6999,0,1983.708,31.6,
1550,1,SBT2050,2,3,,1,2709,2.96296,-2.6997,0,1986.708,31.6,
1550,1,SBT2050,2,3,,1,2713,2.9597,-2.6999,0,1989.708,31.6,
1550,1,SBT2050,2,3,,1,2717,2.95672,-2.6997,0,1992.708,31.6,
1550,1,SBT2050,2,3,,1,2721,2.95363,-2.6994,0,1995.708,31.6,
1550,1,SBT2050,2,3,,1,2725,2.95022,-2.7,0,1998.708,31.7,
1550,1,SBT2050,2,3,,1,2729,2.947,-2.7,0,2001.708,31.7,
1550,1,SBT2050,2,3,,1,2733,2.943713,-2.7,0,2004.708,31.7,
1550,1,SBT2050,2,3,,1,2737,2.94064,-2.6997,0,2007.708,31.7,
1550,1,SBT2050,2,3,,1,2741,2.937243,-2.7,0,2010.708,31.7,
1550,1,SBT2050,2,3,,1,2745,2.93367,-2.7002,0,2013.708,31.8,
1550,1,SBT2050,2,3,,1,2749,2.93028,-2.6997,0,2016.708,31.8,
1550,1,SBT2050,2,3,,1,2753,2.92676,-2.7003,0,2019.708,31.9,
1550,1,SBT2050,2,3,,1,2757,2.923278,-2.6998,0,2022.708,31.8,
1550,1,SBT2050,2,3,,1,2761,2.91964,-2.7002,0,2025.708,31.9,
1550,1,SBT2050,2,3,,1,2765,2.91605,-2.7,0,2028.708,31.9,
1550,1,SBT2050,2,3,,1,2769,2.91246,-2.6999,0,2031.707,31.9,
1550,1,SBT2050,2,3,,1,2773,2.908723,-2.7,0,2034.707,32,
1550,1,SBT2050,2,3,,1,2777,2.90516,-2.7,0,2037.707,32,
1550,1,SBT2050,2,3,,1,2781,2.9012,-2.7002,0,2040.707,32,
1550,1,SBT2050,2,3,,1,2785,2.897208,-2.6997,0,2043.707,32,
1550,1,SBT2050,2,3,,1,2789,2.89334,-2.6998,0,2046.707,32.1,
1550,1,SBT2050,2,3,,1,2793,2.88915,-2.6999,0,2049.707,32.1,
1550,1,SBT2050,2,3,,1,2797,2.88545,-2.7,0,2052.707,32.1,
1550,1,SBT2050,2,3,,1,2801,2.88127,-2.7001,0,2055.707,32.2,
1550,1,SBT2050,2,3,,1,2805,2.87718,-2.6997,0,2058.707,32.2,
1550,1,SBT2050,2,3,,1,2809,2.87299,-2.6999,0,2061.707,32.2,
1550,1,SBT2050,2,3,,1,2813,2.86857,-2.7,0,2064.707,32.2,
1550,1,SBT2050,2,3,,1,2817,2.86433,-2.7,0,2067.707,32.3,
1550,1,SBT2050,2,3,,1,2821,2.859983,-2.6999,0,2070.707,32.3,
1550,1,SBT2050,2,3,,1,2825,2.85556,-2.7002,0,2073.707,32.3,
1550,1,SBT2050,2,3,,1,2829,2.851106,-2.6999,0,2076.707,32.3,
1550,1,SBT2050,2,3,,1,2833,2.84639,-2.7,0,2079.706,32.4,
1550,1,SBT2050,2,3,,1,2837,2.84167,-2.6998,0,2082.706,32.4,
1550,1,SBT2050,2,3,,1,2841,2.83732,-2.7001,0,2085.706,32.5,
1550,1,SBT2050,2,3,,1,2845,2.8326,-2.6998,0,2088.706,32.5,
1550,1,SBT2050,2,3,,1,2849,2.8277,-2.7,0,2091.706,32.5,
1550,1,SBT2050,2,3,,1,2853,2.82272,-2.6995,0,2094.706,32.5,
1550,1,SBT2050,2,3,,1,2857,2.81804,-2.7001,0,2097.706,32.6,
1550,1,SBT2050,2,3,,1,2861,2.81288,-2.7001,0,2100.706,32.6,
1550,1,SBT2050,2,3,,1,2865,2.807944,-2.7001,0,2103.706,32.6,
1550,1,SBT2050,2,3,,1,2869,2.8023,-2.7003,0,2106.706,32.6,
1550,1,SBT2050,2,3,,1,2873,2.7972,-2.7001,0,2109.706,32.7,
1550,1,SBT2050,2,3,,1,2877,2.79208,-2.6997,0,2112.706,32.7,
1550,1,SBT2050,2,3,,1,2881,2.78668,-2.7003,0,2115.706,32.7,
1550,1,SBT2050,2,3,,1,2885,2.78109,-2.6998,0,2118.706,32.8,
1550,1,SBT2050,2,3,,1,2889,2.77553,-2.7001,0,2121.706,32.8,
1550,1,SBT2050,2,3,,1,2893,2.76987,-2.6998,0,2124.706,32.9,
1550,1,SBT2050,2,3,,1,2897,2.76413,-2.7,0,2127.706,32.9,
1550,1,SBT2050,2,3,,1,2901,2.75827,-2.6997,0,2130.706,32.9,
1550,1,SBT2050,2,3,,1,2905,2.752446,-2.6998,0,2133.705,33,
1550,1,SBT2050,2,3,,1,2909,2.74643,-2.6998,0,2136.705,33,
1550,1,SBT2050,2,3,,1,2913,2.74008,-2.7001,0,2139.705,33,
1550,1,SBT2050,2,3,,1,2917,2.73387,-2.6997,0,2142.705,33.1,
1550,1,SBT2050,2,3,,1,2921,2.72733,-2.7001,0,2145.705,33.1,
1550,1,SBT2050,2,3,,1,2925,2.72093,-2.6999,0,2148.705,33.2,
1550,1,SBT2050,2,3,,1,2929,2.71414,-2.7004,0,2151.705,33.2,
1550,1,SBT2050,2,3,,1,2933,2.70748,-2.7,0,2154.705,33.3,
1550,1,SBT2050,2,3,,1,2937,2.70045,-2.6997,0,2157.705,33.3,
1550,1,SBT2050,2,3,,1,2941,2.693298,-2.7001,0,2160.705,33.4,
1550,1,SBT2050,2,3,,1,2945,2.68588,-2.7002,0,2163.705,33.4,
1550,1,SBT2050,2,3,,1,2949,2.67852,-2.6999,0,2166.705,33.5,
1550,1,SBT2050,2,3,,1,2953,2.67078,-2.6999,0,2169.705,33.5,
1550,1,SBT2050,2,3,,1,2957,2.662793,-2.7002,0,2172.705,33.5,
1550,1,SBT2050,2,3,,1,2961,2.65454,-2.6999,0,2175.705,33.6,
1550,1,SBT2050,2,3,,1,2965,2.64609,-2.6997,0,2178.704,33.6,
1550,1,SBT2050,2,3,,1,2969,2.637137,-2.6999,0,2181.704,33.7,
1550,1,SBT2050,2,3,,1,2973,2.6282,-2.7003,0,2184.704,33.7,
1550,1,SBT2050,2,3,,1,2977,2.618718,-2.7,0,2187.704,33.7,
1550,1,SBT2050,2,3,,1,2981,2.609176,-2.7,0,2190.704,33.8,
1550,1,SBT2050,2,3,,1,2985,2.5991,-2.7003,0,2193.704,33.9,
1550,1,SBT2050,2,3,,1,2989,2.588604,-2.7,0,2196.704,33.9,
1550,1,SBT2050,2,3,,1,2993,2.577907,-2.6996,0,2199.704,34,
1550,1,SBT2050,2,3,,1,2997,2.566618,-2.6996,0,2202.704,34,
1550,1,SBT2050,2,3,,1,3001,2.55486,-2.7003,0,2205.704,34.1,
1550,1,SBT2050,2,3,,1,3005,2.542818,-2.6997,0,2208.704,34.2,
1550,1,SBT2050,2,3,,1,3009,2.52995,-2.6998,0,2211.704,34.2,
1550,1,SBT2050,2,3,,1,3013,2.516772,-2.6997,0,2214.704,34.3,
1550,1,SBT2050,2,3,,1,3017,2.50319,-2.7001,0,2217.704,34.4,
1550,1,SBT2050,2,3,,2,3020,2.89111,0,0,2218.352,34.4,
1550,1,SBT2050,2,3,,2,3024,3.06166,0,0,2218.352,34.4,
1550,1,SBT2050,2,3,,2,3028,3.12393,0,0,2218.352,34.4,
1550,1,SBT2050,2,3,,2,3032,3.158753,0,0,2218.352,34.4,
1550,1,SBT2050,2,3,,2,3036,3.18207,0,0,2218.352,34.2,
1550,1,SBT2050,2,3,,2,3040,3.20004,0,0,2218.352,34.1,
1550,1,SBT2050,2,3,,2,3044,3.21447,0,0,2218.352,34,
1550,1,SBT2050,2,3,,2,3048,3.2263,0,0,2218.352,33.9,
1550,1,SBT2050,2,3,,2,3052,3.23652,0,0,2218.352,33.9,
1550,1,SBT2050,2,3,,2,3056,3.24544,0,0,2218.352,33.8,
1550,1,SBT2050,2,3,,2,3060,3.253347,0,0,2218.352,33.6,
1550,1,SBT2050,2,3,,2,3064,3.26036,0,0,2218.352,33.5,
1550,1,SBT2050,2,3,,2,3068,3.26669,0,0,2218.352,33.4,
1550,1,SBT2050,2,3,,2,3072,3.27282,0,0,2218.352,33.3,
1550,1,SBT2050,2,3,,2,3076,3.27795,0,0,2218.352,33.1,
1550,1,SBT2050,2,3,,2,3077.864,3.27967,-9.9E-05,0,2218.352,,