File: ORRG/Test1575.csv
Request Year:,2018,,,,,,,,,,,,
Test:,1575,,,,,,,,,,,,
Test Description:,,,,,,,,,,,,,
TestRegime Name:,Aging_test caseB_1,,,,,,,,,,,,
TestRegime Suffix:,SHP_LC,,,,,,,,,,,,
TestRegime CellSize:,18650,,,,,,,,,,,,
TestRegime Version:,3,,,,,,,,,,,,
Number Of Cells:,1,,,,,,,,,,,,
LotID:,,,,,,,,,,,,,
Lot Description:,,,,,,,,,,,,,
Date Made:,1/21/2003 12:00 AM,,,,,,,,,,,,
Origin:,Other,,,,,,,,,,,,
Requestor:,Admin,,,,,,,,,,,,
Product ID:,Default product,,,,,,,,,,,,
Storage Temp:,R.T./AMB,,,,,,,,,,,,
Storage Delay:,0 days,,,,,,,,,,,,
Test Temp:,R.T./AMB,,,,,,,,,,,,
Start Time:,4/27/2018 7:44 PM,,,,,,,,,,,,
End Time:,4/27/2018 9:03 PM,,,,,,,,,,,,
Operator Instructions:,,,,,,,,,,,,,
Test,Cell,Rack,Shelf,Position,Cell ID,Step,Total Time (Seconds),Voltage (V),Current (A),Charge Capacity (mAh),Discharge Capacity (mAh),Trs (Â°C),
1575,1,SBT2050,2,3,,0,0.1,3.314703,0,0,0,,
1575,1,SBT2050,2,3,,0,5.1,3.31473,0,0,0,,
1575,1,SBT2050,2,3,,0,10.1,3.314865,0,0,0,,
1575,1,SBT2050,2,3,,0,15.1,3.314553,0,0,0,,
1575,1,SBT2050,2,3,,0,20.1,3.31477,0,0,0,,
1575,1,SBT2050,2,3,,0,25.1,3.3147,0,0,0,,
1575,1,SBT2050,2,3,,0,30.1,3.31469,0,0,0,,
1575,1,SBT2050,2,3,,0,35.1,3.31474,0,0,0,,
1575,1,SBT2050,2,3,,0,40.1,3.314793,0,0,0,,
1575,1,SBT2050,2,3,,0,45.1,3.314641,0,0,0,,
1575,1,SBT2050,2,3,,0,50.1,3.31483,0,0,0,,
1575,1,SBT2050,2,3,,0,55.1,3.31454,0,0,0,,
1575,1,SBT2050,2,3,,0,60.1,3.31459,0,0,0,,
1575,1,SBT2050,2,3,,0,65.1,3.31457,0,0,0,,
1575,1,SBT2050,2,3,,0,70.1,3.314727,0,0,0,,
1575,1,SBT2050,2,3,,0,75.1,3.3149,0,0,0,,
1575,1,SBT2050,2,3,,0,80.1,3.3147,0,0,0,,
1575,1,SBT2050,2,3,,0,85.1,3.31498,0,0,0,,
1575,1,SBT2050,2,3,,0,90.1,3.31475,0,0,0,,
1575,1,SBT2050,2,3,,0,95.1,3.314865,0,0,0,,
1575,1,SBT2050,2,3,,0,100.1,3.31485,0,0,0,,
1575,1,SBT2050,2,3,,0,105.1,3.31498,0,0,0,,
1575,1,SBT2050,2,3,,0,110.1,3.314884,0,0,0,,
1575,1,SBT2050,2,3,,0,115.1,3.31477,0,0,0,,
1575,1,SBT2050,2,3,,0,120.1,3.31491,0,0,0,,
1575,1,SBT2050,2,3,,0,125.1,3.31459,0,0,0,,
1575,1,SBT2050,2,3,,0,130.1,3.314828,0,0,0,,
1575,1,SBT2050,2,3,,0,135.1,3.31454,0,0,0,,
1575,1,SBT2050,2,3,,0,140.1,3.31492,0,0,0,,
1575,1,SBT2050,2,3,,0,145.1,3.3148,0,0,0,,
1575,1,SBT2050,2,3,,0,150.1,3.31481,0,0,0,,
1575,1,SBT2050,2,3,,0,155.1,3.31476,0,0,0,,
1575,1,SBT2050,2,3,,0,160.1,3.31491,0,0,0,,
1575,1,SBT2050,2,3,,0,165.1,3.31465,0,0,0,,
1575,1,SBT2050,2,3,,0,170.1,3.314851,0,0,0,,
1575,1,SBT2050,2,3,,0,175.1,3.31496,0,0,0,,
1575,1,SBT2050,2,3,,0,180.1,3.315051,0,0,0,,
1575,1,SBT2050,2,3,,0,185.1,3.31487,0,0,0,,
1575,1,SBT2050,2,3,,0,190.1,3.31491,0,0,0,,
1575,1,SBT2050,2,3,,0,195.1,3.314909,0,0,0,,
1575,1,SBT2050,2,3,,0,200.1,3.314837,0,0,0,,
1575,1,SBT2050,2,3,,0,205.1,3.315033,0,0,0,,
1575,1,SBT2050,2,3,,0,210.1,3.315,0,0,0,,
1575,1,SBT2050,2,3,,0,215.1,3.3149,0,0,0,,
1575,1,SBT2050,2,3,,0,220.1,3.31499,0,0,0,,
1575,1,SBT2050,2,3,,0,225.1,3.31504,0,0,0,,
1575,1,SBT2050,2,3,,0,230.1,3.31484,0,0,0,,
1575,1,SBT2050,2,3,,0,235.1,3.314992,0,0,0,,
1575,1,SBT2050,2,3,,0,240.1,3.31509,0,0,0,,
1575,1,SBT2050,2,3,,0,245.1,3.31494,0,0,0,,
1575,1,SBT2050,2,3,,0,250.1,3.31501,0,0,0,,
1575,1,SBT2050,2,3,,0,255.1,3.31493,0,0,0,,
1575,1,SBT2050,2,3,,0,260.1,3.31509,0,0,0,,
1575,1,SBT2050,2,3,,0,265.1,3.31498,0,0,0,,
1575,1,SBT2050,2,3,,0,270.1,3.31494,0,0,0,,
1575,1,SBT2050,2,3,,0,275.1,3.314825,0,0,0,,
1575,1,SBT2050,2,3,,0,280.1,3.3149,0,0,0,,
1575,1,SBT2050,2,3,,0,285.1,3.31474,0,0,0,,
1575,1,SBT2050,2,3,,0,290.1,3.31479,0,0,0,,
1575,1,SBT2050,2,3,,0,295.1,3.3148,0,0,0,,
1575,1,SBT2050,2,3,,0,300.1,3.314969,0,0,0,,
1575,1,SBT2050,2,3,,0,305.1,3.314948,0,0,0,,
1575,1,SBT2050,2,3,,0,310.1,3.31504,0,0,0,,
1575,1,SBT2050,2,3,,0,315.1,3.314772,0,0,0,,
1575,1,SBT2050,2,3,,0,320.1,3.31477,0,0,0,,
1575,1,SBT2050,2,3,,0,325.1,3.31481,0,0,0,,
1575,1,SBT2050,2,3,,0,330.1,3.3147,0,0,0,,
1575,1,SBT2050,2,3,,0,335.1,3.31499,0,0,0,,
1575,1,SBT2050,2,3,,0,340.1,3.31482,0,0,0,,
1575,1,SBT2050,2,3,,0,345.1,3.31477,0,0,0,,
1575,1,SBT2050,2,3,,0,350.1,3.31494,0,0,0,,
1575,1,SBT2050,2,3,,0,355.1,3.31492,0,0,0,,
1575,1,SBT2050,2,3,,0,360.1,3.31478,0,0,0,,
1575,1,SBT2050,2,3,,0,365.1,3.31495,0,0,0,,
1575,1,SBT2050,2,3,,0,370.1,3.31486,0,0,0,,
1575,1,SBT2050,2,3,,0,375.1,3.3148,0,0,0,,
1575,1,SBT2050,2,3,,0,380.1,3.314841,0,0,0,,
1575,1,SBT2050,2,3,,0,385.1,3.31491,0,0,0,,
1575,1,SBT2050,2,3,,0,390.1,3.314605,0,0,0,,
1575,1,SBT2050,2,3,,0,395.1,3.314888,0,0,0,,
1575,1,SBT2050,2,3,,0,400.1,3.31501,0,0,0,,
1575,1,SBT2050,2,3,,0,405.1,3.31484,0,0,0,,
1575,1,SBT2050,2,3,,0,410.1,3.31486,0,0,0,,
1575,1,SBT2050,2,3,,0,415.1,3.31482,0,0,0,,
1575,1,SBT2050,2,3,,0,420.1,3.314783,0,0,0,,
1575,1,SBT2050,2,3,,0,425.1,3.31493,0,0,0,,
1575,1,SBT2050,2,3,,0,430.1,3.314611,0,0,0,,
1575,1,SBT2050,2,3,,0,435.1,3.314483,0,0,0,,
1575,1,SBT2050,2,3,,0,440.1,3.31467,0,0,0,,
1575,1,SBT2050,2,3,,0,445.1,3.31466,0,0,0,,
1575,1,SBT2050,2,3,,0,450.1,3.314777,0,0,0,,
1575,1,SBT2050,2,3,,0,455.1,3.31469,0,0,0,,
1575,1,SBT2050,2,3,,0,460.1,3.31445,0,0,0,,
1575,1,SBT2050,2,3,,0,465.1,3.31474,0,0,0,,
1575,1,SBT2050,2,3,,0,470.1,3.31465,0,0,0,,
1575,1,SBT2050,2,3,,0,475.1,3.314667,0,0,0,,
1575,1,SBT2050,2,3,,0,480.1,3.31492,0,0,0,,
1575,1,SBT2050,2,3,,0,485.1,3.31491,0,0,0,,
1575,1,SBT2050,2,3,,0,490.1,3.31476,0,0,0,,
1575,1,SBT2050,2,3,,0,495.1,3.31488,0,0,0,,
1575,1,SBT2050,2,3,,0,500.1,3.31481,0,0,0,,
1575,1,SBT2050,2,3,,0,505.1,3.31463,0,0,0,,
1575,1,SBT2050,2,3,,0,510.1,3.31488,0,0,0,,
1575,1,SBT2050,2,3,,0,515.1,3.31488,0,0,0,,
1575,1,SBT2050,2,3,,0,520.1,3.31472,0,0,0,,
1575,1,SBT2050,2,3,,0,525.1,3.31481,0,0,0,,
1575,1,SBT2050,2,3,,0,530.1,3.31488,0,0,0,,
1575,1,SBT2050,2,3,,0,535.1,3.31467,0,0,0,,
1575,1,SBT2050,2,3,,0,540.1,3.31485,0,0,0,,
1575,1,SBT2050,2,3,,0,545.1,3.31489,0,0,0,,
1575,1,SBT2050,2,3,,0,550.1,3.315,0,0,0,,
1575,1,SBT2050,2,3,,0,555.1,3.31496,0,0,0,,
1575,1,SBT2050,2,3,,0,560.1,3.31501,0,0,0,,
1575,1,SBT2050,2,3,,0,565.1,3.31481,0,0,0,,
1575,1,SBT2050,2,3,,0,570.1,3.314847,0,0,0,,
1575,1,SBT2050,2,3,,0,575.1,3.31476,0,0,0,,
1575,1,SBT2050,2,3,,0,580.1,3.3148,0,0,0,,
1575,1,SBT2050,2,3,,0,585.1,3.31489,0,0,0,,
1575,1,SBT2050,2,3,,0,590.1,3.31483,0,0,0,,
1575,1,SBT2050,2,3,,0,595.1,3.31489,0,0,0,,
1575,1,SBT2050,2,3,,0,600.1,3.314755,0,0,0,,
1575,1,SBT2050,2,3,,0,605.1,3.31456,0,0,0,,
1575,1,SBT2050,2,3,,0,610.1,3.314467,0,0,0,,
1575,1,SBT2050,2,3,,0,615.1,3.314897,0,0,0,,
1575,1,SBT2050,2,3,,0,620.1,3.31491,0,0,0,,
1575,1,SBT2050,2,3,,0,625.1,3.3148,0,0,0,,
1575,1,SBT2050,2,3,,0,630.1,3.31491,0,0,0,,
1575,1,SBT2050,2,3,,0,635.1,3.31449,0,0,0,,
1575,1,SBT2050,2,3,,0,640.1,3.31475,0,0,0,,
1575,1,SBT2050,2,3,,0,645.1,3.31485,0,0,0,,
1575,1,SBT2050,2,3,,0,650.1,3.315,0,0,0,,
1575,1,SBT2050,2,3,,0,655.1,3.31473,0,0,0,,
1575,1,SBT2050,2,3,,0,660.1,3.31465,0,0,0,,
1575,1,SBT2050,2,3,,0,665.1,3.31488,0,0,0,,
1575,1,SBT2050,2,3,,0,670.1,3.314889,0,0,0,,
1575,1,SBT2050,2,3,,0,675.1,3.31486,0,0,0,,
1575,1,SBT2050,2,3,,0,680.1,3.31499,0,0,0,,
1575,1,SBT2050,2,3,,0,685.1,3.31464,0,0,0,,
1575,1,SBT2050,2,3,,0,690.1,3.31497,0,0,0,,
1575,1,SBT2050,2,3,,0,695.1,3.31465,0,0,0,,
1575,1,SBT2050,2,3,,0,700.1,3.31498,0,0,0,,
1575,1,SBT2050,2,3,,0,705.1,3.31482,0,0,0,,
1575,1,SBT2050,2,3,,0,710.1,3.31477,0,0,0,,
1575,1,SBT2050,2,3,,0,715.1,3.314816,0,0,0,,
1575,1,SBT2050,2,3,,0,720.1,3.31476,0,0,0,,
1575,1,SBT2050,2,3,,0,725.1,3.314668,0,0,0,,
1575,1,SBT2050,2,3,,0,730.1,3.31477,0,0,0,,
1575,1,SBT2050,2,3,,0,735.1,3.31497,0,0,0,,
1575,1,SBT2050,2,3,,0,740.1,3.31467,0,0,0,,
1575,1,SBT2050,2,3,,0,745.1,3.31492,0,0,0,,
1575,1,SBT2050,2,3,,0,750.1,3.31454,0,0,0,,
1575,1,SBT2050,2,3,,0,755.1,3.31479,0,0,0,,
1575,1,SBT2050,2,3,,0,760.1,3.31486,0,0,0,,
1575,1,SBT2050,2,3,,0,765.1,3.314816,0,0,0,,
1575,1,SBT2050,2,3,,0,770.1,3.31495,0,0,0,,
1575,1,SBT2050,2,3,,0,775.1,3.31471,0,0,0,,
1575,1,SBT2050,2,3,,0,780.1,3.3148,0,0,0,,
1575,1,SBT2050,2,3,,0,785.1,3.31498,0,0,0,,
1575,1,SBT2050,2,3,,0,790.1,3.31488,0,0,0,,
1575,1,SBT2050,2,3,,0,795.1,3.3148,0,0,0,,
1575,1,SBT2050,2,3,,0,800.1,3.31479,0,0,0,,
1575,1,SBT2050,2,3,,0,805.1,3.31489,0,0,0,,
1575,1,SBT2050,2,3,,0,810.1,3.31475,0,0,0,,
1575,1,SBT2050,2,3,,0,815.1,3.31497,0,0,0,,
1575,1,SBT2050,2,3,,0,820.1,3.31493,0,0,0,,
1575,1,SBT2050,2,3,,0,825.1,3.314975,0,0,0,,
1575,1,SBT2050,2,3,,0,830.1,3.31512,0,0,0,,
1575,1,SBT2050,2,3,,0,835.1,3.31508,0,0,0,,
1575,1,SBT2050,2,3,,0,840.1,3.31501,0,0,0,,
1575,1,SBT2050,2,3,,0,845.1,3.31509,0,0,0,,
1575,1,SBT2050,2,3,,0,850.1,3.314986,0,0,0,,
1575,1,SBT2050,2,3,,0,855.1,3.31494,0,0,0,,
1575,1,SBT2050,2,3,,0,860.1,3.31484,0,0,0,,
1575,1,SBT2050,2,3,,0,865.1,3.31484,0,0,0,,
1575,1,SBT2050,2,3,,0,870.1,3.314996,0,0,0,,
1575,1,SBT2050,2,3,,0,875.1,3.315036,0,0,0,,
1575,1,SBT2050,2,3,,0,880.1,3.315189,0,0,0,,
1575,1,SBT2050,2,3,,0,885.1,3.31487,0,0,0,,
1575,1,SBT2050,2,3,,0,890.1,3.31485,0,0,0,,
1575,1,SBT2050,2,3,,0,895.1,3.31492,0,0,0,,
1575,1,SBT2050,2,3,,0,900.1,3.31485,0,0,0,,
1575,1,SBT2050,2,3,,0,905.1,3.314954,0,0,0,,
1575,1,SBT2050,2,3,,0,910.1,3.31487,0,0,0,,
1575,1,SBT2050,2,3,,0,915.1,3.31499,0,0,0,,
1575,1,SBT2050,2,3,,0,920.1,3.31489,0,0,0,,
1575,1,SBT2050,2,3,,0,925.1,3.31505,0,0,0,,
1575,1,SBT2050,2,3,,0,930.1,3.314849,0,0,0,,
1575,1,SBT2050,2,3,,0,935.1,3.31491,0,0,0,,
1575,1,SBT2050,2,3,,0,940.1,3.31483,0,0,0,,
1575,1,SBT2050,2,3,,0,945.1,3.31493,0,0,0,,
1575,1,SBT2050,2,3,,0,950.1,3.31491,0,0,0,,
1575,1,SBT2050,2,3,,0,955.1,3.31486,0,0,0,,
1575,1,SBT2050,2,3,,0,960.1,3.314964,0,0,0,,
1575,1,SBT2050,2,3,,0,965.1,3.31478,0,0,0,,
1575,1,SBT2050,2,3,,0,970.1,3.31501,0,0,0,,
1575,1,SBT2050,2,3,,0,975.1,3.31506,0,0,0,,
1575,1,SBT2050,2,3,,0,980.1,3.31488,0,0,0,,
1575,1,SBT2050,2,3,,0,985.1,3.31499,0,0,0,,
1575,1,SBT2050,2,3,,0,990.1,3.315,0,0,0,,
1575,1,SBT2050,2,3,,0,995.1,3.31481,0,0,0,,
1575,1,SBT2050,2,3,,0,1000.1,3.31494,0,0,0,,
1575,1,SBT2050,2,3,,0,1005.1,3.31498,0,0,0,,
1575,1,SBT2050,2,3,,0,1010.1,3.31505,0,0,0,,
1575,1,SBT2050,2,3,,0,1015.1,3.315,0,0,0,,
1575,1,SBT2050,2,3,,0,1020.1,3.31508,0,0,0,,
1575,1,SBT2050,2,3,,0,1025.1,3.31523,0,0,0,,
1575,1,SBT2050,2,3,,0,1030.1,3.31518,0,0,0,,
1575,1,SBT2050,2,3,,0,1035.1,3.31507,0,0,0,,
1575,1,SBT2050,2,3,,0,1040.1,3.3151,0,0,0,,
1575,1,SBT2050,2,3,,0,1045.1,3.31487,0,0,0,,
1575,1,SBT2050,2,3,,0,1050.1,3.31501,0,0,0,,
1575,1,SBT2050,2,3,,0,1055.1,3.3149,0,0,0,,
1575,1,SBT2050,2,3,,0,1060.1,3.31481,0,0,0,,
1575,1,SBT2050,2,3,,0,1065.1,3.31486,0,0,0,,
1575,1,SBT2050,2,3,,0,1070.1,3.314824,0,0,0,,
1575,1,SBT2050,2,3,,0,1075.1,3.31498,0,0,0,,
1575,1,SBT2050,2,3,,0,1080.1,3.31501,0,0,0,,
1575,1,SBT2050,2,3,,0,1085.1,3.315018,0,0,0,,
1575,1,SBT2050,2,3,,0,1090.1,3.31514,0,0,0,,
1575,1,SBT2050,2,3,,0,1095.1,3.31495,0,0,0,,
1575,1,SBT2050,2,3,,0,1100.1,3.31521,0,0,0,,
1575,1,SBT2050,2,3,,0,1105.1,3.31531,0,0,0,,
1575,1,SBT2050,2,3,,0,1110.1,3.31514,0,0,0,,
1575,1,SBT2050,2,3,,0,1115.1,3.315086,0,0,0,,
1575,1,SBT2050,2,3,,0,1120.1,3.31527,0,0,0,,
1575,1,SBT2050,2,3,,0,1125.1,3.31512,0,0,0,,
1575,1,SBT2050,2,3,,0,1130.1,3.31487,0,0,0,,
1575,1,SBT2050,2,3,,0,1135.1,3.31495,0,0,0,,
1575,1,SBT2050,2,3,,0,1140.1,3.31503,0,0,0,,
1575,1,SBT2050,2,3,,0,1145.1,3.314897,0,0,0,,
1575,1,SBT2050,2,3,,0,1150.1,3.31504,0,0,0,,
1575,1,SBT2050,2,3,,0,1155.1,3.31507,0,0,0,,
1575,1,SBT2050,2,3,,0,1160.1,3.31504,0,0,0,,
1575,1,SBT2050,2,3,,0,1165.1,3.31486,0,0,0,,
1575,1,SBT2050,2,3,,0,1170.1,3.31492,0,0,0,,
1575,1,SBT2050,2,3,,0,1175.1,3.31498,0,0,0,,
1575,1,SBT2050,2,3,,0,1180.1,3.314901,0,0,0,,
1575,1,SBT2050,2,3,,0,1185.1,3.31509,0,0,0,,
1575,1,SBT2050,2,3,,0,1190.1,3.31495,0,0,0,,
1575,1,SBT2050,2,3,,0,1195.1,3.31528,0,0,0,,
1575,1,SBT2050,2,3,,0,1200.1,3.31508,0,0,0,,
1575,1,SBT2050,2,3,,0,1205.1,3.31499,0,0,0,,
1575,1,SBT2050,2,3,,0,1210.1,3.315186,0,0,0,,
1575,1,SBT2050,2,3,,0,1215.1,3.31489,0,0,0,,
1575,1,SBT2050,2,3,,0,1220.1,3.31474,0,0,0,,
1575,1,SBT2050,2,3,,0,1225.1,3.31502,0,0,0,,
1575,1,SBT2050,2,3,,0,1230.1,3.31494,0,0,0,,
1575,1,SBT2050,2,3,,0,1235.1,3.31485,0,0,0,,
1575,1,SBT2050,2,3,,0,1240.1,3.314815,0,0,0,,
1575,1,SBT2050,2,3,,0,1245.1,3.31483,0,0,0,,
1575,1,SBT2050,2,3,,0,1250.1,3.31484,0,0,0,,
1575,1,SBT2050,2,3,,0,1255.1,3.31485,0,0,0,,
1575,1,SBT2050,2,3,,0,1260.1,3.31499,0,0,0,,
1575,1,SBT2050,2,3,,0,1265.1,3.3148,0,0,0,,
1575,1,SBT2050,2,3,,0,1270.1,3.314815,0,0,0,,
1575,1,SBT2050,2,3,,0,1275.1,3.31493,0,0,0,,
1575,1,SBT2050,2,3,,0,1280.1,3.31496,0,0,0,,
1575,1,SBT2050,2,3,,0,1285.1,3.31507,0,0,0,,
1575,1,SBT2050,2,3,,0,1290.1,3.31503,0,0,0,,
1575,1,SBT2050,2,3,,0,1295.1,3.3151,0,0,0,,
1575,1,SBT2050,2,3,,0,1300.1,3.31499,0,0,0,,
1575,1,SBT2050,2,3,,0,1305.1,3.31508,0,0,0,,
1575,1,SBT2050,2,3,,0,1310.1,3.3149,0,0,0,,
1575,1,SBT2050,2,3,,0,1315.1,3.314911,0,0,0,,
1575,1,SBT2050,2,3,,0,1320.1,3.31509,0,0,0,,
1575,1,SBT2050,2,3,,0,1325.1,3.31496,0,0,0,,
1575,1,SBT2050,2,3,,0,1330.1,3.315018,0,0,0,,
1575,1,SBT2050,2,3,,0,1335.1,3.315019,0,0,0,,
1575,1,SBT2050,2,3,,0,1340.1,3.31508,0,0,0,,
1575,1,SBT2050,2,3,,0,1345.1,3.31515,0,0,0,,
1575,1,SBT2050,2,3,,0,1350.1,3.31485,0,0,0,,
1575,1,SBT2050,2,3,,0,1355.1,3.31499,0,0,0,,
1575,1,SBT2050,2,3,,0,1360.1,3.315081,0,0,0,,
1575,1,SBT2050,2,3,,0,1365.1,3.315055,0,0,0,,
1575,1,SBT2050,2,3,,0,1370.1,3.31516,0,0,0,,
1575,1,SBT2050,2,3,,0,1375.1,3.31511,0,0,0,,
1575,1,SBT2050,2,3,,0,1380.1,3.31497,0,0,0,,
1575,1,SBT2050,2,3,,0,1385.1,3.31502,0,0,0,,
1575,1,SBT2050,2,3,,0,1390.1,3.31495,0,0,0,,
1575,1,SBT2050,2,3,,0,1395.1,3.31508,0,0,0,,
1575,1,SBT2050,2,3,,0,1400.1,3.31511,0,0,0,,
1575,1,SBT2050,2,3,,0,1405.1,3.315,0,0,0,,
1575,1,SBT2050,2,3,,0,1410.1,3.314916,0,0,0,,
1575,1,SBT2050,2,3,,0,1415.1,3.31501,0,0,0,,
1575,1,SBT2050,2,3,,0,1420.1,3.31526,0,0,0,,
1575,1,SBT2050,2,3,,0,1425.1,3.31505,0,0,0,,
1575,1,SBT2050,2,3,,0,1430.1,3.31496,0,0,0,,
1575,1,SBT2050,2,3,,0,1435.1,3.31504,0,0,0,,
1575,1,SBT2050,2,3,,0,1440.1,3.31508,0,0,0,,
1575,1,SBT2050,2,3,,0,1445.1,3.31505,0,0,0,,
1575,1,SBT2050,2,3,,0,1450.1,3.31483,0,0,0,,
1575,1,SBT2050,2,3,,0,1455.1,3.31518,0,0,0,,
1575,1,SBT2050,2,3,,0,1460.1,3.31532,0,0,0,,
1575,1,SBT2050,2,3,,0,1465.1,3.31481,0,0,0,,
1575,1,SBT2050,2,3,,0,1470.1,3.31502,0,0,0,,
1575,1,SBT2050,2,3,,0,1475.1,3.31518,0,0,0,,
1575,1,SBT2050,2,3,,0,1480.1,3.31527,0,0,0,,
1575,1,SBT2050,2,3,,0,1485.1,3.31514,0,0,0,,
1575,1,SBT2050,2,3,,0,1490.1,3.3152,0,0,0,,
1575,1,SBT2050,2,3,,0,1495.1,3.31505,0,0,0,,
1575,1,SBT2050,2,3,,0,1500.1,3.31538,0,0,0,,
1575,1,SBT2050,2,3,,0,1505.1,3.31518,0,0,0,,
1575,1,SBT2050,2,3,,0,1510.1,3.31519,0,0,0,,
1575,1,SBT2050,2,3,,0,1515.1,3.31519,0,0,0,,
1575,1,SBT2050,2,3,,0,1520.1,3.31518,0,0,0,,
1575,1,SBT2050,2,3,,0,1525.1,3.3154,0,0,0,,
1575,1,SBT2050,2,3,,0,1530.1,3.31505,0,0,0,,
1575,1,SBT2050,2,3,,0,1535.1,3.31504,0,0,0,,
1575,1,SBT2050,2,3,,0,1540.1,3.31516,0,0,0,,
1575,1,SBT2050,2,3,,0,1545.1,3.315152,0,0,0,,
1575,1,SBT2050,2,3,,0,1550.1,3.31517,0,0,0,,
1575,1,SBT2050,2,3,,0,1555.1,3.3149,0,0,0,,
1575,1,SBT2050,2,3,,0,1560.1,3.31504,0,0,0,,
1575,1,SBT2050,2,3,,0,1565.1,3.31521,0,0,0,,
1575,1,SBT2050,2,3,,0,1570.1,3.31508,0,0,0,,
1575,1,SBT2050,2,3,,0,1575.1,3.31507,0,0,0,,
1575,1,SBT2050,2,3,,0,1580.1,3.31488,0,0,0,,
1575,1,SBT2050,2,3,,0,1585.1,3.31504,0,0,0,,
1575,1,SBT2050,2,3,,0,1590.1,3.31528,0,0,0,,
1575,1,SBT2050,2,3,,0,1595.1,3.315045,0,0,0,,
1575,1,SBT2050,2,3,,0,1600.1,3.315136,0,0,0,,
1575,1,SBT2050,2,3,,0,1605.1,3.31509,0,0,0,,
1575,1,SBT2050,2,3,,0,1610.1,3.31479,0,0,0,,
1575,1,SBT2050,2,3,,0,1615.1,3.314819,0,0,0,,
1575,1,SBT2050,2,3,,0,1620.1,3.31481,0,0,0,,
1575,1,SBT2050,2,3,,0,1625.1,3.31491,0,0,0,,
1575,1,SBT2050,2,3,,0,1630.1,3.31504,0,0,0,,
1575,1,SBT2050,2,3,,0,1635.1,3.31504,0,0,0,,
1575,1,SBT2050,2,3,,0,1640.1,3.31501,0,0,0,,
1575,1,SBT2050,2,3,,0,1645.1,3.314858,0,0,0,,
1575,1,SBT2050,2,3,,0,1650.1,3.31487,0,0,0,,
1575,1,SBT2050,2,3,,0,1655.1,3.314969,0,0,0,,
1575,1,SBT2050,2,3,,0,1660.1,3.315012,0,0,0,,
1575,1,SBT2050,2,3,,0,1665.1,3.31504,0,0,0,,
1575,1,SBT2050,2,3,,0,1670.1,3.31501,0,0,0,,
1575,1,SBT2050,2,3,,0,1675.1,3.3151,0,0,0,,
1575,1,SBT2050,2,3,,0,1680.1,3.31516,0,0,0,,
1575,1,SBT2050,2,3,,0,1685.1,3.31528,0,0,0,,
1575,1,SBT2050,2,3,,0,1690.1,3.3152,0,0,0,,
1575,1,SBT2050,2,3,,0,1695.1,3.31529,0,0,0,,
1575,1,SBT2050,2,3,,0,1700.1,3.31521,0,0,0,,
1575,1,SBT2050,2,3,,0,1705.1,3.315,0,0,0,,
1575,1,SBT2050,2,3,,0,1710.1,3.31501,0,0,0,,
1575,1,SBT2050,2,3,,0,1715.1,3.31493,0,0,0,,
1575,1,SBT2050,2,3,,0,1720.1,3.31514,0,0,0,,
1575,1,SBT2050,2,3,,0,1725.1,3.31518,0,0,0,,
1575,1,SBT2050,2,3,,0,1730.1,3.31517,0,0,0,,
1575,1,SBT2050,2,3,,0,1735.1,3.315,0,0,0,,
1575,1,SBT2050,2,3,,0,1740.1,3.31496,0,0,0,,
1575,1,SBT2050,2,3,,0,1745.1,3.31477,0,0,0,,
1575,1,SBT2050,2,3,,0,1750.1,3.31503,0,0,0,,
1575,1,SBT2050,2,3,,0,1755.1,3.315029,0,0,0,,
1575,1,SBT2050,2,3,,0,1760.1,3.31511,0,0,0,,
1575,1,SBT2050,2,3,,0,1765.1,3.31494,0,0,0,,
1575,1,SBT2050,2,3,,0,1770.1,3.31498,0,0,0,,
1575,1,SBT2050,2,3,,0,1775.1,3.31502,0,0,0,,
1575,1,SBT2050,2,3,,0,1780.1,3.314953,0,0,0,,
1575,1,SBT2050,2,3,,0,1785.1,3.31511,0,0,0,,
1575,1,SBT2050,2,3,,0,1790.1,3.31506,0,0,0,,
1575,1,SBT2050,2,3,,0,1795.1,3.31524,0,0,0,,
1575,1,SBT2050,2,3,,5,1800.1,3.31478,0,0,0,,
1575,1,SBT2050,2,3,,7,1805,3.53413,2.4861,1.155,0,,
1575,1,SBT2050,2,3,,7,1810,3.73842,5.83,7.241,0,,
1575,1,SBT2050,2,3,,7,1814.9,3.86426,7.9,16.783,0,,
1575,1,SBT2050,2,3,,7,1819.9,3.94094,8.935,28.594,0,,
1575,1,SBT2050,2,3,,7,1824.8,3.97848,9.166,40.992,0,,
1575,1,SBT2050,2,3,,7,1829.7,3.98704,8.827,53.292,0,,
1575,1,SBT2050,2,3,,7,1834.7,3.983952,8.376,65.184,0,,
1575,1,SBT2050,2,3,,7,1839.6,3.99148,8.251,76.508,0,,
1575,1,SBT2050,2,3,,7,1844.6,3.997412,8.127,87.89,0,,
1575,1,SBT2050,2,3,,7,1849.5,4.00089,8,98.872,0,,
1575,1,SBT2050,2,3,,7,1854.5,4.00325,7.886,109.914,0,,
1575,1,SBT2050,2,3,,7,1859.4,4.00393,7.766,120.575,0,,
1575,1,SBT2050,2,3,,7,1864.4,4.00332,7.658,131.298,0,,
1575,1,SBT2050,2,3,,7,1869.3,4.0028,7.579,141.668,0,,
1575,1,SBT2050,2,3,,7,1874.3,4.00026,7.475,152.109,0,,
1575,1,SBT2050,2,3,,7,1879.2,3.99766,7.383,162.212,0,,
1575,1,SBT2050,2,3,,7,1884.1,3.99443,7.297,172.195,0,,
1575,1,SBT2050,2,3,,7,1889.1,3.99105,7.213,182.265,0,,
1575,1,SBT2050,2,3,,7,1894,3.98747,7.133,192.023,0,,
1575,1,SBT2050,2,3,,7,1899,3.98378,7.06,201.875,0,32.7,
1575,1,SBT2050,2,3,,7,1903.9,3.98035,6.988,211.433,0,,
1575,1,SBT2050,2,3,,7,1908.9,3.97641,6.92,221.09,0,,
1575,1,SBT2050,2,3,,7,1913.8,3.9728,6.856,230.466,0,,
1575,1,SBT2050,2,3,,7,1918.8,3.96961,6.797,239.949,0,,
1575,1,SBT2050,2,3,,7,1923.7,3.96641,6.742,249.164,0,,
1575,1,SBT2050,2,3,,7,1928.6,3.96343,6.689,258.308,0,,
1575,1,SBT2050,2,3,,7,1933.6,3.96092,6.642,267.567,0,,
1575,1,SBT2050,2,3,,7,1938.5,3.95803,6.593,276.581,0,,
1575,1,SBT2050,2,3,,7,1943.5,3.95566,6.546,285.711,0,,
1575,1,SBT2050,2,3,,7,1948.4,3.953788,6.507,294.601,0,,
1575,1,SBT2050,2,3,,7,1953.4,3.95148,6.47,303.617,0,,
1575,1,SBT2050,2,3,,7,1958.3,3.94999,6.441,312.402,0,,
1575,1,SBT2050,2,3,,7,1963.3,3.94799,6.399,321.315,0,,
1575,1,SBT2050,2,3,,7,1968.2,3.94645,6.366,330,0,,
1575,1,SBT2050,2,3,,7,1973.2,3.94519,6.338,338.821,0,,
1575,1,SBT2050,2,3,,7,1978.1,3.9443,6.309,347.427,0,,
1575,1,SBT2050,2,3,,7,1983,3.94341,6.286,355.999,0,36.7,
1575,1,SBT2050,2,3,,7,1988,3.94246,6.253,364.708,0,36.8,
1575,1,SBT2050,2,3,,7,1992.9,3.94126,6.219,373.195,0,,
1575,1,SBT2050,2,3,,7,1997.9,3.94058,6.201,381.822,0,,
1575,1,SBT2050,2,3,,7,2002.8,3.94016,6.171,390.243,0,,
1575,1,SBT2050,2,3,,7,2007.8,3.939682,6.151,398.801,0,,
1575,1,SBT2050,2,3,,7,2012.7,3.9395,6.127,407.155,0,,
1575,1,SBT2050,2,3,,7,2017.7,3.93907,6.098,415.644,0,,
1575,1,SBT2050,2,3,,7,2022.6,3.93822,6.061,423.925,0,,
1575,1,SBT2050,2,3,,7,2027.5,3.93818,6.046,432.167,0,,
1575,1,SBT2050,2,3,,7,2032.5,3.93812,6.026,440.552,0,,
1575,1,SBT2050,2,3,,7,2037.4,3.93802,5.995,448.741,0,,
1575,1,SBT2050,2,3,,7,2042.4,3.937662,5.973,457.051,0,,
1575,1,SBT2050,2,3,,7,2047.3,3.9381,5.955,465.166,0,,
1575,1,SBT2050,2,3,,7,2052.3,3.93818,5.94,473.422,0,,
1575,1,SBT2050,2,3,,7,2057.2,3.93836,5.91,481.485,0,,
1575,1,SBT2050,2,3,,7,2062.2,3.93841,5.89,489.674,0,,
1575,1,SBT2050,2,3,,7,2067.1,3.93881,5.868,497.673,0,,
1575,1,SBT2050,2,3,,7,2072.1,3.93935,5.856,505.813,0,,
1575,1,SBT2050,2,3,,7,2077,3.93928,5.83,513.767,0,,
1575,1,SBT2050,2,3,,7,2081.9,3.93934,5.797,521.68,0,,
1575,1,SBT2050,2,3,,7,2086.9,3.94014,5.785,529.726,0,,
1575,1,SBT2050,2,3,,7,2091.8,3.94022,5.753,537.578,0,,
1575,1,SBT2050,2,3,,7,2096.8,3.940272,5.724,545.549,0,,
1575,1,SBT2050,2,3,,7,2101.7,3.94113,5.706,553.333,0,,
1575,1,SBT2050,2,3,,7,2106.7,3.94172,5.683,561.245,0,,
1575,1,SBT2050,2,3,,7,2111.6,3.9418,5.654,568.963,0,,
1575,1,SBT2050,2,3,,7,2116.6,3.94201,5.628,576.8,0,,
1575,1,SBT2050,2,3,,7,2121.5,3.94319,5.616,584.456,0,,
1575,1,SBT2050,2,3,,7,2126.4,3.944254,5.59,592.087,0,,
1575,1,SBT2050,2,3,,7,2131.4,3.94466,5.563,599.837,0,,
1575,1,SBT2050,2,3,,7,2136.3,3.94505,5.543,607.397,0,,
1575,1,SBT2050,2,3,,7,2141.3,3.945494,5.517,615.075,0,,
1575,1,SBT2050,2,3,,7,2146.2,3.94639,5.491,622.564,0,,
1575,1,SBT2050,2,3,,7,2151.2,3.94667,5.466,630.171,0,,
1575,1,SBT2050,2,3,,7,2156.1,3.947856,5.455,637.607,0,,
1575,1,SBT2050,2,3,,7,2161.1,3.948286,5.42,645.159,0,,
1575,1,SBT2050,2,3,,7,2166,3.9492,5.403,652.521,0,,
1575,1,SBT2050,2,3,,7,2171,3.95004,5.379,660.013,0,,
1575,1,SBT2050,2,3,,7,2175.9,3.95035,5.344,667.309,0,,
1575,1,SBT2050,2,3,,7,2180.8,3.9514,5.333,674.573,0,,
1575,1,SBT2050,2,3,,7,2185.8,3.95269,5.312,681.967,0,,
1575,1,SBT2050,2,3,,7,2190.7,3.95303,5.28,689.175,0,,
1575,1,SBT2050,2,3,,7,2195.7,3.95366,5.251,696.488,0,,
1575,1,SBT2050,2,3,,7,2200.6,3.95447,5.227,703.622,0,,
1575,1,SBT2050,2,3,,7,2205.6,3.955212,5.207,710.87,0,,
1575,1,SBT2050,2,3,,7,2210.5,3.95633,5.183,717.943,0,,
1575,1,SBT2050,2,3,,7,2215.5,3.95689,5.151,725.126,0,,
1575,1,SBT2050,2,3,,7,2220.4,3.9576,5.124,732.121,0,,
1575,1,SBT2050,2,3,,7,2225.4,3.95854,5.101,739.226,0,,
1575,1,SBT2050,2,3,,7,2230.3,3.95986,5.084,746.159,0,,
1575,1,SBT2050,2,3,,7,2235.2,3.96052,5.065,753.065,0,,
1575,1,SBT2050,2,3,,7,2240.2,3.9614,5.039,760.079,0,,
1575,1,SBT2050,2,3,,7,2245.1,3.96215,5.01,766.92,0,,
1575,1,SBT2050,2,3,,7,2250.1,3.962838,4.987,773.86,0,,
1575,1,SBT2050,2,3,,7,2255,3.9638,4.964,780.631,0,,
1575,1,SBT2050,2,3,,7,2260,3.96489,4.944,787.511,0,,
1575,1,SBT2050,2,3,,7,2264.9,3.965494,4.916,794.224,0,,
1575,1,SBT2050,2,3,,7,2269.9,3.96671,4.891,801.038,0,,
1575,1,SBT2050,2,3,,7,2274.8,3.96726,4.868,807.681,0,,
1575,1,SBT2050,2,3,,7,2279.7,3.96771,4.838,814.287,0,,
1575,1,SBT2050,2,3,,7,2284.7,3.96861,4.814,820.99,0,,
1575,1,SBT2050,2,3,,7,2289.6,3.9696,4.794,827.531,0,,
1575,1,SBT2050,2,3,,7,2294.6,3.97058,4.773,834.177,0,,
1575,1,SBT2050,2,3,,7,2299.5,3.97158,4.7471,840.662,0,,
1575,1,SBT2050,2,3,,7,2304.5,3.97251,4.7228,847.238,0,,
1575,1,SBT2050,2,3,,7,2309.4,3.972946,4.6932,853.651,0,,
1575,1,SBT2050,2,3,,7,2314.4,3.97391,4.6703,860.155,0,,
1575,1,SBT2050,2,3,,7,2319.3,3.97514,4.6548,866.5,0,,
1575,1,SBT2050,2,3,,7,2324.3,3.97568,4.6237,872.937,0,,
1575,1,SBT2050,2,3,,7,2329.2,3.97672,4.6036,879.214,0,,
1575,1,SBT2050,2,3,,7,2334.1,3.977706,4.5834,885.465,0,,
1575,1,SBT2050,2,3,,7,2339.1,3.97858,4.5541,891.807,0,,
1575,1,SBT2050,2,3,,7,2344,3.97923,4.5338,897.99,0,37.8,
1575,1,SBT2050,2,3,,7,2349,3.97984,4.5054,904.267,0,,
1575,1,SBT2050,2,3,,7,2353.9,3.98088,4.4843,910.385,0,,
1575,1,SBT2050,2,3,,7,2358.9,3.9819,4.4595,916.598,0,,
1575,1,SBT2050,2,3,,7,2363.8,3.98281,4.4363,922.651,0,,
1575,1,SBT2050,2,3,,7,2368.8,3.98384,4.4164,928.799,0,,
1575,1,SBT2050,2,3,,7,2373.7,3.98437,4.3889,934.793,0,,
1575,1,SBT2050,2,3,,7,2378.6,3.98538,4.369,940.754,0,,
1575,1,SBT2050,2,3,,7,2383.6,3.985966,4.3438,946.808,0,,
1575,1,SBT2050,2,3,,7,2388.5,3.98677,4.3209,952.706,0,,
1575,1,SBT2050,2,3,,7,2393.5,3.98776,4.2962,958.694,0,,
1575,1,SBT2050,2,3,,7,2398.4,3.98847,4.2773,964.528,0,,
1575,1,SBT2050,2,3,,7,2403.4,3.98927,4.2577,970.453,0,,
1575,1,SBT2050,2,3,,7,2408.3,3.99,4.233,976.23,0,,
1575,1,SBT2050,2,3,,7,2413.3,3.99121,4.2173,982.095,0,,
1575,1,SBT2050,2,3,,7,2418.2,3.99217,4.2,987.82,0,,
1575,1,SBT2050,2,3,,7,2423.2,3.993464,4.1823,993.641,0,,
1575,1,SBT2050,2,3,,7,2428.1,3.99485,4.176,999.327,0,,
1575,1,SBT2050,2,3,,7,2433,3.99643,4.1635,1005.002,0,,
1575,1,SBT2050,2,3,,7,2438,3.99784,4.1518,1010.775,0,,
1575,1,SBT2050,2,3,,7,2442.9,3.998936,4.1346,1016.416,0,,
1575,1,SBT2050,2,3,,7,2447.9,4.00028,4.1206,1022.15,0,,
1575,1,SBT2050,2,3,,7,2452.8,4.00138,4.105,1027.747,0,,
1575,1,SBT2050,2,3,,7,2457.8,4.00293,4.0942,1033.441,0,,
1575,1,SBT2050,2,3,,7,2462.7,4.00439,4.0848,1039.008,0,,
1575,1,SBT2050,2,3,,7,2467.7,4.0057,4.0667,1044.669,0,,
1575,1,SBT2050,2,3,,7,2472.6,4.00673,4.0494,1050.195,0,,
1575,1,SBT2050,2,3,,7,2477.5,4.00804,4.0297,1055.697,0,,
1575,1,SBT2050,2,3,,7,2482.5,4.0097,4.0172,1061.286,0,,
1575,1,SBT2050,2,3,,7,2487.4,4.010732,4.0051,1066.747,0,,
1575,1,SBT2050,2,3,,7,2492.4,4.011844,3.9906,1072.296,0,,
1575,1,SBT2050,2,3,,7,2497.3,4.0136,3.9814,1077.72,0,,
1575,1,SBT2050,2,3,,7,2502.3,4.0148,3.9686,1083.241,0,,
1575,1,SBT2050,2,3,,7,2507.2,4.01619,3.9527,1088.63,0,,
1575,1,SBT2050,2,3,,7,2512.2,4.01778,3.9425,1094.112,0,,
1575,1,SBT2050,2,3,,7,2517.1,4.01874,3.9242,1099.463,0,,
1575,1,SBT2050,2,3,,7,2522.1,4.02012,3.9108,1104.905,0,,
1575,1,SBT2050,2,3,,7,2527,4.021186,3.8935,1110.215,0,,
1575,1,SBT2050,2,3,,7,2531.9,4.02254,3.8851,1115.509,0,,
1575,1,SBT2050,2,3,,7,2536.9,4.02393,3.8718,1120.898,0,,
1575,1,SBT2050,2,3,,7,2541.8,4.02529,3.8569,1126.157,0,,
1575,1,SBT2050,2,3,,7,2546.8,4.0268,3.842,1131.505,0,,
1575,1,SBT2050,2,3,,7,2551.7,4.02757,3.8276,1136.724,0,,
1575,1,SBT2050,2,3,,7,2556.7,4.02903,3.8147,1142.033,0,,
1575,1,SBT2050,2,3,,7,2561.6,4.03012,3.7984,1147.214,0,,
1575,1,SBT2050,2,3,,7,2566.6,4.0318,3.7891,1152.484,0,,
1575,1,SBT2050,2,3,,7,2571.5,4.03307,3.7744,1157.635,0,,
1575,1,SBT2050,2,3,,7,2576.483,4.03434,3.7605,1162.852,0,,
1575,1,SBT2050,2,3,,7,2581.4,4.03522,3.7456,1167.978,0,,
1575,1,SBT2050,2,3,,7,2586.3,4.03677,3.7371,1173.072,0,,
1575,1,SBT2050,2,3,,7,2591.3,4.03812,3.724,1178.252,0,,
1575,1,SBT2050,2,3,,7,2596.2,4.0392,3.7075,1183.31,0,,
1575,1,SBT2050,2,3,,7,2601.2,4.04019,3.6905,1188.448,0,,
1575,1,SBT2050,2,3,,7,2606.1,4.04152,3.6762,1193.46,0,,
1575,1,SBT2050,2,3,,7,2611.1,4.0427,3.6668,1198.559,0,,
1575,1,SBT2050,2,3,,7,2616,4.0439,3.651,1203.54,0,,
1575,1,SBT2050,2,3,,7,2621,4.04503,3.6385,1208.601,0,,
1575,1,SBT2050,2,3,,7,2625.9,4.04668,3.6295,1213.548,0,,
1575,1,SBT2050,2,3,,7,2630.8,4.04764,3.6116,1218.475,0,,
1575,1,SBT2050,2,3,,7,2635.8,4.048996,3.6007,1223.484,0,,
1575,1,SBT2050,2,3,,7,2640.7,4.0501,3.5848,1228.377,0,,
1575,1,SBT2050,2,3,,7,2645.7,4.05108,3.5732,1233.348,0,,
1575,1,SBT2050,2,3,,7,2650.6,4.0525,3.5641,1238.206,0,,
1575,1,SBT2050,2,3,,7,2655.6,4.05371,3.5506,1243.15,0,,
1575,1,SBT2050,2,3,,7,2660.5,4.05462,3.536,1247.974,0,,
1575,1,SBT2050,2,3,,7,2665.5,4.05632,3.5265,1252.88,0,,
1575,1,SBT2050,2,3,,7,2670.4,4.05735,3.5154,1257.674,0,,
1575,1,SBT2050,2,3,,7,2675.4,4.05814,3.5014,1262.543,0,,
1575,1,SBT2050,2,3,,7,2680.3,4.05946,3.4837,1267.297,0,,
1575,1,SBT2050,2,3,,7,2685.2,4.06052,3.4721,1272.029,0,,
1575,1,SBT2050,2,3,,7,2690.2,4.06193,3.4633,1276.845,0,,
1575,1,SBT2050,2,3,,7,2695.1,4.06295,3.4456,1281.547,0,,
1575,1,SBT2050,2,3,,7,2700.1,4.063918,3.4345,1286.324,0,,
1575,1,SBT2050,2,3,,7,2705,4.06487,3.4243,1290.99,0,,
1575,1,SBT2050,2,3,,7,2710,4.066,3.4073,1295.732,0,,
1575,1,SBT2050,2,3,,7,2714.9,4.067,3.3964,1300.361,0,,
1575,1,SBT2050,2,3,,7,2719.9,4.06794,3.3771,1305.064,0,,
1575,1,SBT2050,2,3,,7,2724.8,4.06932,3.3663,1309.653,0,,
1575,1,SBT2050,2,3,,7,2729.7,4.07022,3.3525,1314.229,0,,
1575,1,SBT2050,2,3,,7,2734.7,4.07132,3.3378,1318.874,0,,
1575,1,SBT2050,2,3,,7,2739.6,4.07237,3.3253,1323.411,0,,
1575,1,SBT2050,2,3,,7,2744.6,4.07294,3.3083,1328.018,0,,
1575,1,SBT2050,2,3,,7,2749.5,4.074422,3.2997,1332.516,0,,
1575,1,SBT2050,2,3,,7,2754.5,4.075178,3.2798,1337.085,0,,
1575,1,SBT2050,2,3,,7,2759.4,4.07638,3.2718,1341.543,0,,
1575,1,SBT2050,2,3,,7,2764.4,4.07711,3.2571,1346.078,0,,
1575,1,SBT2050,2,3,,7,2769.3,4.077844,3.2428,1350.498,0,,
1575,1,SBT2050,2,3,,7,2774.3,4.07917,3.2383,1354.997,0,,
1575,1,SBT2050,2,3,,7,2779.2,4.08041,3.2281,1359.397,0,,
1575,1,SBT2050,2,3,,7,2784.1,4.0812,3.2082,1363.775,0,,
1575,1,SBT2050,2,3,,7,2789.1,4.082148,3.1982,1368.223,0,,
1575,1,SBT2050,2,3,,7,2794,4.083,3.18,1372.564,0,,
1575,1,SBT2050,2,3,,7,2799,4.08405,3.1692,1376.971,0,,
1575,1,SBT2050,2,3,,7,2803.9,4.08477,3.1542,1381.272,0,,
1575,1,SBT2050,2,3,,7,2808.9,4.08528,3.1391,1385.641,0,,
1575,1,SBT2050,2,3,,7,2813.8,4.08664,3.1307,1389.908,0,,
1575,1,SBT2050,2,3,,7,2818.8,4.08753,3.117,1394.25,0,,
1575,1,SBT2050,2,3,,7,2823.7,4.08838,3.1014,1398.481,0,,
1575,1,SBT2050,2,3,,7,2828.6,4.08941,3.0891,1402.696,0,,
1575,1,SBT2050,2,3,,7,2833.6,4.08988,3.0698,1406.974,0,,
1575,1,SBT2050,2,3,,7,2838.5,4.09049,3.0614,1411.147,0,,
1575,1,SBT2050,2,3,,7,2843.5,4.09199,3.0554,1415.395,0,,
1575,1,SBT2050,2,3,,7,2848.4,4.09293,3.0441,1419.548,0,,
1575,1,SBT2050,2,3,,7,2853.4,4.09361,3.0289,1423.761,0,,
1575,1,SBT2050,2,3,,7,2858.3,4.09474,3.0213,1427.877,0,,
1575,1,SBT2050,2,3,,7,2863.3,4.09531,3.0019,1432.059,0,,
1575,1,SBT2050,2,3,,7,2868.2,4.09637,2.9919,1436.136,0,,
1575,1,SBT2050,2,3,,7,2873.2,4.09713,2.9794,1440.285,0,,
1575,1,SBT2050,2,3,,7,2878.1,4.09799,2.9647,1444.327,0,,
1575,1,SBT2050,2,3,,7,2883,4.0991,2.9608,1448.358,0,,
1575,1,SBT2050,2,3,,7,2888,4.10037,2.953,1452.466,0,33.3,
1575,1,SBT2050,2,3,,7,2892.9,4.1011,2.9391,1456.477,0,,
1575,1,SBT2050,2,3,,7,2897.9,4.10231,2.9326,1460.553,0,,
1575,1,SBT2050,2,3,,7,2902.8,4.10339,2.9217,1464.541,0,,
1575,1,SBT2050,2,3,,7,2907.8,4.10368,2.9046,1468.588,0,,
1575,1,SBT2050,2,3,,7,2912.7,4.104594,2.8867,1472.527,0,,
1575,1,SBT2050,2,3,,7,2917.7,4.10568,2.8817,1476.532,0,,
1575,1,SBT2050,2,3,,7,2922.6,4.10678,2.8764,1480.45,0,,
1575,1,SBT2050,2,3,,7,2927.561,4.10826,2.8722,1484.417,0,,
1575,1,SBT2050,2,3,,7,2932.5,4.109176,2.8601,1488.349,0,,
1575,1,SBT2050,2,3,,7,2937.4,4.11037,2.8566,1492.239,0,,
1575,1,SBT2050,2,3,,7,2942.4,4.1111,2.8376,1496.188,0,,
1575,1,SBT2050,2,3,,7,2947.3,4.11232,2.8308,1500.044,0,,
1575,1,SBT2050,2,3,,7,2952.3,4.11332,2.8238,1503.972,0,,
1575,1,SBT2050,2,3,,7,2957.2,4.11395,2.8089,1507.802,0,,
1575,1,SBT2050,2,3,,7,2962.2,4.11516,2.8034,1511.698,0,,
1575,1,SBT2050,2,3,,7,2967.1,4.11592,2.7866,1515.502,0,,
1575,1,SBT2050,2,3,,7,2972.1,4.11681,2.7782,1519.364,0,,
1575,1,SBT2050,2,3,,7,2977,4.11808,2.7749,1523.143,0,,
1575,1,SBT2050,2,3,,7,2981.9,4.119244,2.7727,1526.918,0,,
1575,1,SBT2050,2,3,,7,2986.9,4.12112,2.7718,1530.768,0,,
1575,1,SBT2050,2,3,,7,2991.8,4.12162,2.7547,1534.531,0,,
1575,1,SBT2050,2,3,,7,2996.8,4.12247,2.7418,1538.35,0,,
1575,1,SBT2050,2,3,,7,3001.7,4.1229,2.7248,1542.069,0,,
1575,1,SBT2050,2,3,,7,3006.7,4.123802,2.7195,1545.849,0,,
1575,1,SBT2050,2,3,,7,3011.6,4.12507,2.7169,1549.549,0,,
1575,1,SBT2050,2,3,,7,3016.6,4.12627,2.7107,1553.321,0,,
1575,1,SBT2050,2,3,,7,3021.5,4.12717,2.696,1557,0,,
1575,1,SBT2050,2,3,,7,3026.5,4.12812,2.6904,1560.741,0,,
1575,1,SBT2050,2,3,,7,3031.4,4.12935,2.6882,1564.401,0,,
1575,1,SBT2050,2,3,,7,3036.3,4.13001,2.6724,1568.048,0,,
1575,1,SBT2050,2,3,,7,3041.3,4.13105,2.6599,1571.752,0,,
1575,1,SBT2050,2,3,,7,3046.2,4.131662,2.6439,1575.358,0,,
1575,1,SBT2050,2,3,,7,3051.2,4.13254,2.6387,1579.026,0,,
1575,1,SBT2050,2,3,,7,3056.1,4.13322,2.6288,1582.613,0,,
1575,1,SBT2050,2,3,,7,3061.1,4.13419,2.6166,1586.253,0,,
1575,1,SBT2050,2,3,,7,3066,4.13526,2.6117,1589.81,0,,
1575,1,SBT2050,2,3,,7,3071,4.13657,2.61,1593.437,0,,
1575,1,SBT2050,2,3,,7,3075.9,4.13763,2.6069,1596.987,0,,
1575,1,SBT2050,2,3,,7,3080.8,4.13831,2.5915,1600.527,0,,
1575,1,SBT2050,2,3,,7,3085.8,4.1396,2.5836,1604.12,0,,
1575,1,SBT2050,2,3,,7,3090.7,4.13996,2.5657,1607.624,0,,
1575,1,SBT2050,2,3,,7,3095.7,4.14102,2.5584,1611.182,0,,
1575,1,SBT2050,2,3,,7,3100.6,4.14217,2.5555,1614.663,0,,
1575,1,SBT2050,2,3,,7,3105.6,4.14273,2.5423,1618.207,0,,
1575,1,SBT2050,2,3,,7,3110.5,4.14351,2.5332,1621.661,0,,
1575,1,SBT2050,2,3,,7,3115.5,4.144668,2.5289,1625.176,0,,
1575,1,SBT2050,2,3,,7,3120.4,4.14574,2.5189,1628.613,0,,
1575,1,SBT2050,2,3,,7,3125.4,4.14614,2.5072,1632.101,0,,
1575,1,SBT2050,2,3,,7,3130.3,4.14725,2.5027,1635.51,0,,
1575,1,SBT2050,2,3,,7,3135.2,4.1482,2.4997,1638.914,0,,
1575,1,SBT2050,2,3,,7,3140.2,4.14885,2.4828,1642.37,0,,
1575,1,SBT2050,2,3,,7,3145.1,4.14987,2.4763,1645.745,0,,
1575,1,SBT2050,2,3,,7,3150.1,4.150904,2.4729,1649.181,0,,
1575,1,SBT2050,2,3,,7,3155,4.1521,2.4694,1652.545,0,31.5,
1575,1,SBT2050,2,3,,7,3160,4.15307,2.4544,1655.964,0,,
1575,1,SBT2050,2,3,,7,3164.9,4.1536,2.447,1659.299,0,,
1575,1,SBT2050,2,3,,7,3169.9,4.15464,2.4402,1662.691,0,,
1575,1,SBT2050,2,3,,7,3174.8,4.15554,2.429,1666.008,0,,
1575,1,SBT2050,2,3,,7,3179.7,4.156292,2.4241,1669.309,0,,
1575,1,SBT2050,2,3,,7,3184.7,4.157556,2.4171,1672.671,0,,
1575,1,SBT2050,2,3,,7,3189.6,4.158532,2.4128,1675.958,0,,
1575,1,SBT2050,2,3,,7,3194.6,4.159232,2.3997,1679.303,0,,
1575,1,SBT2050,2,3,,7,3199.5,4.16004,2.3906,1682.563,0,,
1575,1,SBT2050,2,3,,7,3204.5,4.16117,2.3859,1685.88,0,,
1575,1,SBT2050,2,3,,7,3209.4,4.16207,2.3831,1689.126,0,,
1575,1,SBT2050,2,3,,7,3214.4,4.16322,2.3796,1692.433,0,,
1575,1,SBT2050,2,3,,7,3219.3,4.16363,2.3633,1695.657,0,,
1575,1,SBT2050,2,3,,7,3224.3,4.16456,2.3569,1698.934,0,,
1575,1,SBT2050,2,3,,7,3229.2,4.16535,2.3493,1702.138,0,,
1575,1,SBT2050,2,3,,7,3234.1,4.16604,2.3392,1705.33,0,,
1575,1,SBT2050,2,3,,7,3239.1,4.16693,2.331,1708.572,0,,
1575,1,SBT2050,2,3,,7,3244,4.16803,2.3263,1711.741,0,,
1575,1,SBT2050,2,3,,7,3249,4.16865,2.3167,1714.967,0,,
1575,1,SBT2050,2,3,,7,3253.9,4.16909,2.3052,1718.111,0,,
1575,1,SBT2050,2,3,,7,3258.9,4.17046,2.3001,1721.309,0,,
1575,1,SBT2050,2,3,,7,3263.8,4.171328,2.2937,1724.436,0,,
1575,1,SBT2050,2,3,,7,3268.8,4.17218,2.2834,1727.617,0,,
1575,1,SBT2050,2,3,,7,3273.7,4.17277,2.2752,1730.719,0,,
1575,1,SBT2050,2,3,,7,3278.639,4.17395,2.2702,1733.838,0,,
1575,1,SBT2050,2,3,,7,3283.6,4.17517,2.267,1736.964,0,,
1575,1,SBT2050,2,3,,7,3288.5,4.17605,2.2599,1740.048,0,,
1575,1,SBT2050,2,3,,7,3293.5,4.17657,2.2468,1743.177,0,,
1575,1,SBT2050,2,3,,7,3298.4,4.1775,2.2423,1746.232,0,,
1575,1,SBT2050,2,3,,7,3303.4,4.17865,2.2377,1749.343,0,,
1575,1,SBT2050,2,3,,7,3308.3,4.17872,2.2229,1752.375,0,,
1575,1,SBT2050,2,3,,7,3313.3,4.179806,2.216,1755.456,0,,
1575,1,SBT2050,2,3,,7,3318.2,4.180702,2.2124,1758.469,0,,
1575,1,SBT2050,2,3,,7,3323.2,4.18171,2.2084,1761.539,0,,
1575,1,SBT2050,2,3,,7,3328.1,4.18269,2.2054,1764.542,0,,
1575,1,SBT2050,2,3,,7,3333,4.1832,2.1908,1767.534,0,,
1575,1,SBT2050,2,3,,7,3338,4.18402,2.1832,1770.571,0,,
1575,1,SBT2050,2,3,,7,3342.9,4.18492,2.1792,1773.54,0,,
1575,1,SBT2050,2,3,,7,3347.9,4.185882,2.1725,1776.564,0,,
1575,1,SBT2050,2,3,,7,3352.8,4.18629,2.1595,1779.51,0,,
1575,1,SBT2050,2,3,,7,3357.8,4.186966,2.1539,1782.505,0,,
1575,1,SBT2050,2,3,,7,3362.7,4.188,2.1502,1785.434,0,,
1575,1,SBT2050,2,3,,7,3367.7,4.18934,2.1459,1788.418,0,,
1575,1,SBT2050,2,3,,7,3372.6,4.18989,2.1388,1791.336,0,,
1575,1,SBT2050,2,3,,7,3377.6,4.19051,2.1266,1794.298,0,,
1575,1,SBT2050,2,3,,7,3382.5,4.19167,2.1213,1797.189,0,,
1575,1,SBT2050,2,3,,7,3387.4,4.19223,2.1175,1800.073,0,,
1575,1,SBT2050,2,3,,7,3392.4,4.19336,2.1061,1803.006,0,,
1575,1,SBT2050,2,3,,7,3397.3,4.19384,2.0982,1805.865,0,,
1575,1,SBT2050,2,3,,7,3402.3,4.19448,2.0924,1808.774,0,,
1575,1,SBT2050,2,3,,7,3407.2,4.19546,2.0885,1811.619,0,,
1575,1,SBT2050,2,3,,7,3412.2,4.19614,2.0754,1814.51,0,,
1575,1,SBT2050,2,3,,7,3417.1,4.19692,2.0677,1817.329,0,,
1575,1,SBT2050,2,3,,7,3422.1,4.197858,2.063,1820.198,0,,
1575,1,SBT2050,2,3,,7,3427,4.19884,2.0598,1823.004,0,,
1575,1,SBT2050,2,3,,7,3431.9,4.199698,2.0565,1825.805,0,,
1575,1,SBT2050,2,3,,7,3436.9,4.20024,2.0464,1828.657,0,,
1575,1,SBT2050,2,3,,7,3441.8,4.200882,2.0363,1831.434,0,,
1575,1,SBT2050,2,3,,7,3446.8,4.20158,2.0313,1834.259,0,,
1575,1,SBT2050,2,3,,7,3451.7,4.20265,2.0272,1837.022,0,,
1575,1,SBT2050,2,3,,7,3456.7,4.20311,2.0183,1839.834,0,,
1575,1,SBT2050,2,3,,7,3461.6,4.20411,2.011,1842.573,0,,
1575,1,SBT2050,2,3,,7,3466.6,4.20481,2.0035,1845.362,0,,
1575,1,SBT2050,2,3,,7,3471.5,4.20551,1.9988,1848.086,0,,
1575,1,SBT2050,2,3,,7,3476.5,4.20653,1.9949,1850.86,0,,
1575,1,SBT2050,2,3,,7,3481.4,4.20684,1.9852,1853.569,0,,
1575,1,SBT2050,2,3,,7,3486.3,4.20754,1.9761,1856.263,0,,
1575,1,SBT2050,2,3,,7,3491.3,4.20845,1.9715,1859.004,0,,
1575,1,SBT2050,2,3,,7,3496.2,4.20958,1.9674,1861.684,0,,
1575,1,SBT2050,2,3,,7,3501.2,4.210188,1.9638,1864.414,0,,
1575,1,SBT2050,2,3,,7,3506.1,4.21071,1.9509,1867.078,0,,
1575,1,SBT2050,2,3,,7,3511.1,4.21144,1.9441,1869.782,0,,
1575,1,SBT2050,2,3,,7,3516,4.21249,1.9395,1872.424,0,,
1575,1,SBT2050,2,3,,7,3521,4.2133,1.9357,1875.115,0,,
1575,1,SBT2050,2,3,,7,3525.9,4.21399,1.932,1877.747,0,,
1575,1,SBT2050,2,3,,7,3530.8,4.21483,1.9206,1880.371,0,,
1575,1,SBT2050,2,3,,7,3535.8,4.21534,1.9121,1883.033,0,,
1575,1,SBT2050,2,3,,7,3540.7,4.21624,1.9077,1885.633,0,,
1575,1,SBT2050,2,3,,7,3545.7,4.21701,1.9039,1888.28,0,,
1575,1,SBT2050,2,3,,7,3550.6,4.2182,1.9001,1890.869,0,,
1575,1,SBT2050,2,3,,7,3555.6,4.21831,1.8862,1893.499,0,,
1575,1,SBT2050,2,3,,7,3560.5,4.21895,1.88,1896.062,0,,
1575,1,SBT2050,2,3,,7,3565.5,4.21981,1.8762,1898.672,0,,
1575,1,SBT2050,2,3,,7,3570.4,4.22117,1.8729,1901.223,0,,
1575,1,SBT2050,2,3,,7,3575.4,4.221908,1.8694,1903.822,0,,
1575,1,SBT2050,2,3,,7,3580.3,4.222352,1.8629,1906.363,0,,
1575,1,SBT2050,2,3,,7,3585.2,4.22307,1.8508,1908.888,0,,
1575,1,SBT2050,2,3,,7,3590.2,4.22363,1.8456,1911.455,0,,
1575,1,SBT2050,2,3,,7,3595.1,4.22463,1.8417,1913.965,0,,
1575,1,SBT2050,2,3,,7,3600.1,4.22543,1.8377,1916.52,0,,
1575,1,SBT2050,2,3,,7,3605,4.226116,1.8313,1919.019,0,,
1575,1,SBT2050,2,3,,7,3610,4.2266,1.8197,1921.554,0,,
1575,1,SBT2050,2,3,,7,3614.9,4.22748,1.8149,1924.027,0,,
1575,1,SBT2050,2,3,,7,3619.9,4.22809,1.8108,1926.545,0,,
1575,1,SBT2050,2,3,,7,3624.8,4.2289,1.807,1929.007,0,,
1575,1,SBT2050,2,3,,7,3629.717,4.229874,1.803,1931.473,0,,
1575,1,SBT2050,2,3,,7,3634.7,4.230728,1.7991,1933.966,0,,
1575,1,SBT2050,2,3,,7,3639.6,4.23132,1.7941,1936.411,0,,
1575,1,SBT2050,2,3,,7,3644.6,4.23223,1.7859,1938.901,0,,
1575,1,SBT2050,2,3,,7,3649.5,4.23287,1.7783,1941.326,0,,
1575,1,SBT2050,2,3,,7,3654.5,4.2336,1.7728,1943.791,0,,
1575,1,SBT2050,2,3,,7,3659.4,4.233976,1.7692,1946.201,0,,
1575,1,SBT2050,2,3,,7,3664.4,4.23526,1.7618,1948.651,0,,
1575,1,SBT2050,2,3,,7,3669.3,4.23578,1.7583,1951.044,0,,
1575,1,SBT2050,2,3,,7,3674.3,4.23653,1.7477,1953.477,0,,
1575,1,SBT2050,2,3,,7,3679.2,4.23695,1.7421,1955.852,0,,
1575,1,SBT2050,2,3,,7,3684.1,4.23789,1.7383,1958.221,0,,
1575,1,SBT2050,2,3,,7,3689.1,4.23868,1.7345,1960.633,0,,
1575,1,SBT2050,2,3,,7,3694,4.23933,1.7281,1962.991,0,,
1575,1,SBT2050,2,3,,7,3699,4.23958,1.7175,1965.382,0,,
1575,1,SBT2050,2,3,,7,3703.9,4.24015,1.7118,1967.716,0,,
1575,1,SBT2050,2,3,,7,3708.9,4.24149,1.7082,1970.091,0,,
1575,1,SBT2050,2,3,,7,3713.8,4.241986,1.7042,1972.413,0,,
1575,1,SBT2050,2,3,,7,3718.8,4.24283,1.7003,1974.778,0,,
1575,1,SBT2050,2,3,,7,3723.7,4.24373,1.6956,1977.089,0,,
1575,1,SBT2050,2,3,,7,3728.7,4.24438,1.6862,1979.44,0,,
1575,1,SBT2050,2,3,,7,3733.6,4.24464,1.6784,1981.73,0,,
1575,1,SBT2050,2,3,,7,3738.5,4.24562,1.6749,1984.013,0,,
1575,1,SBT2050,2,3,,7,3743.5,4.24662,1.6713,1986.336,0,,
1575,1,SBT2050,2,3,,7,3748.4,4.24733,1.6678,1988.608,0,,
1575,1,SBT2050,2,3,,7,3753.4,4.24786,1.6573,1990.918,0,,
1575,1,SBT2050,2,3,,7,3758.3,4.24825,1.6494,1993.167,0,,
1575,1,SBT2050,2,3,,7,3763.3,4.24913,1.6449,1995.454,0,,
1575,1,SBT2050,2,3,,7,3768.2,4.2501,1.6412,1997.691,0,,
1575,1,SBT2050,2,3,,7,3773.2,4.25106,1.6379,1999.968,0,,
1575,1,SBT2050,2,3,,7,3778.1,4.251,1.6279,2002.192,0,,
1575,1,SBT2050,2,3,,7,3783,4.25197,1.6245,2004.407,0,,
1575,1,SBT2050,2,3,,7,3788,4.25224,1.617,2006.657,0,,
1575,1,SBT2050,2,3,,7,3792.9,4.25288,1.6121,2008.855,0,,
1575,1,SBT2050,2,3,,7,3797.9,4.25383,1.6088,2011.091,0,,
1575,1,SBT2050,2,3,,7,3802.8,4.25487,1.6053,2013.279,0,,
1575,1,SBT2050,2,3,,7,3807.8,4.2554,1.6015,2015.506,0,,
1575,1,SBT2050,2,3,,7,3812.7,4.25622,1.5983,2017.684,0,,
1575,1,SBT2050,2,3,,7,3817.7,4.25682,1.5864,2019.897,0,,
1575,1,SBT2050,2,3,,7,3822.6,4.25707,1.5801,2022.052,0,,
1575,1,SBT2050,2,3,,7,3827.6,4.25774,1.576,2024.244,0,,
1575,1,SBT2050,2,3,,7,3832.5,4.258472,1.5732,2026.387,0,,
1575,1,SBT2050,2,3,,7,3837.4,4.25934,1.5696,2028.526,0,,
1575,1,SBT2050,2,3,,7,3842.4,4.260152,1.5662,2030.703,0,,
1575,1,SBT2050,2,3,,7,3847.3,4.261166,1.5629,2032.833,0,,
1575,1,SBT2050,2,3,,7,3852.3,4.26206,1.5596,2035.001,0,,
1575,1,SBT2050,2,3,,7,3857.2,4.262278,1.5494,2037.118,0,,
1575,1,SBT2050,2,3,,7,3862.2,4.2625,1.5417,2039.263,0,,
1575,1,SBT2050,2,3,,7,3867.1,4.26325,1.5374,2041.358,0,,
1575,1,SBT2050,2,3,,7,3872.1,4.2642,1.5337,2043.491,0,,
1575,1,SBT2050,2,3,,7,3877,4.264822,1.5303,2045.577,0,,
1575,1,SBT2050,2,3,,7,3881.9,4.26604,1.5273,2047.658,0,,
1575,1,SBT2050,2,3,,7,3886.9,4.26641,1.5238,2049.777,0,,
1575,1,SBT2050,2,3,,7,3891.8,4.26731,1.5203,2051.849,0,,
1575,1,SBT2050,2,3,,7,3896.8,4.26795,1.5171,2053.959,0,,
1575,1,SBT2050,2,3,,7,3901.7,4.26899,1.5138,2056.022,0,,
1575,1,SBT2050,2,3,,7,3906.7,4.27014,1.5104,2058.123,0,,
1575,1,SBT2050,2,3,,7,3911.6,4.27061,1.507,2060.177,0,,
1575,1,SBT2050,2,3,,7,3916.6,4.27129,1.4967,2062.266,0,,
1575,1,SBT2050,2,3,,7,3921.5,4.27137,1.4898,2064.298,0,,
1575,1,SBT2050,2,3,,7,3926.5,4.27194,1.4856,2066.364,0,,
1575,1,SBT2050,2,3,,7,3931.4,4.27264,1.4823,2068.383,0,,
1575,1,SBT2050,2,3,,7,3936.3,4.273416,1.4789,2070.399,0,,
1575,1,SBT2050,2,3,,7,3941.3,4.274136,1.4759,2072.45,0,,
1575,1,SBT2050,2,3,,7,3946.2,4.27504,1.4725,2074.457,0,,
1575,1,SBT2050,2,3,,7,3951.2,4.276172,1.4692,2076.5,0,,
1575,1,SBT2050,2,3,,7,3956.1,4.276494,1.4657,2078.497,0,,
1575,1,SBT2050,2,3,,7,3961.1,4.27715,1.4622,2080.531,0,,
1575,1,SBT2050,2,3,,7,3966,4.27781,1.4539,2082.518,0,,
1575,1,SBT2050,2,3,,7,3971,4.27841,1.4518,2084.538,0,28.4,
1575,1,SBT2050,2,3,,7,3975.9,4.278712,1.4436,2086.509,0,,
1575,1,SBT2050,2,3,,7,3980.8,4.27905,1.4383,2088.47,0,,
1575,1,SBT2050,2,3,,7,3985.8,4.27985,1.4345,2090.465,0,,
1575,1,SBT2050,2,3,,7,3990.7,4.28048,1.4313,2092.416,0,,
1575,1,SBT2050,2,3,,7,3995.7,4.281262,1.4284,2094.402,0,,
1575,1,SBT2050,2,3,,7,4000.6,4.28158,1.4202,2096.343,0,,
1575,1,SBT2050,2,3,,7,4005.6,4.28184,1.4113,2098.31,0,,
1575,1,SBT2050,2,3,,7,4010.5,4.28267,1.4128,2100.23,0,,
1575,1,SBT2050,2,3,,7,4015.5,4.28333,1.4079,2102.188,0,,
1575,1,SBT2050,2,3,,7,4020.4,4.28458,1.4107,2104.106,0,,
1575,1,SBT2050,2,3,,7,4025.4,4.28523,1.4096,2106.064,0,,
1575,1,SBT2050,2,3,,7,4030.3,4.28551,1.4004,2107.972,0,,
1575,1,SBT2050,2,3,,7,4035.2,4.2864,1.3965,2109.877,0,,
1575,1,SBT2050,2,3,,7,4040.2,4.28661,1.3903,2111.81,0,,
1575,1,SBT2050,2,3,,7,4045.1,4.28758,1.3863,2113.7,0,,
1575,1,SBT2050,2,3,,7,4050.1,4.28785,1.3828,2115.623,0,,
1575,1,SBT2050,2,3,,7,4055,4.28832,1.3772,2117.502,0,,
1575,1,SBT2050,2,3,,7,4060,4.28948,1.3763,2119.414,0,,
1575,1,SBT2050,2,3,,7,4064.9,4.29021,1.3734,2121.286,0,,
1575,1,SBT2050,2,3,,7,4069.9,4.290796,1.3705,2123.191,0,,
1575,1,SBT2050,2,3,,7,4074.8,4.29139,1.3672,2125.054,0,,
1575,1,SBT2050,2,3,,7,4079.8,4.29225,1.3638,2126.951,0,,
1575,1,SBT2050,2,3,,7,4084.7,4.29243,1.3594,2128.804,0,,
1575,1,SBT2050,2,3,,7,4089.6,4.29278,1.3507,2130.651,0,,
1575,1,SBT2050,2,3,,7,4094.6,4.29325,1.3496,2132.523,0,,
1575,1,SBT2050,2,3,,7,4099.5,4.29436,1.351,2134.362,0,,
1575,1,SBT2050,2,3,,7,4104.5,4.29496,1.3486,2136.237,0,,
1575,1,SBT2050,2,3,,7,4109.4,4.29487,1.3372,2138.062,0,,
1575,1,SBT2050,2,3,,7,4114.4,4.29536,1.3328,2139.915,0,,
1575,1,SBT2050,2,3,,7,4119.3,4.29586,1.3296,2141.726,0,,
1575,1,SBT2050,2,3,,7,4124.3,4.29617,1.3265,2143.571,0,,
1575,1,SBT2050,2,3,,7,4129.2,4.2966,1.3235,2145.374,0,,
1575,1,SBT2050,2,3,,7,4134.1,4.29731,1.3205,2147.173,0,,
1575,1,SBT2050,2,3,,7,4139.1,4.29779,1.3176,2149.005,0,,
1575,1,SBT2050,2,3,,7,4144,4.2981,1.3146,2150.796,0,,
1575,1,SBT2050,2,3,,7,4149,4.29869,1.3116,2152.62,0,,
1575,1,SBT2050,2,3,,7,4153.9,4.299182,1.3087,2154.404,0,,
1575,1,SBT2050,2,3,,7,4158.9,4.30005,1.3055,2156.219,0,,
1575,1,SBT2050,2,3,,7,4163.8,4.300196,1.3022,2157.994,0,,
1575,1,SBT2050,2,3,,7,4168.8,4.30083,1.299,2159.801,0,,
1575,1,SBT2050,2,3,,7,4173.7,4.30136,1.2961,2161.567,0,,
1575,1,SBT2050,2,3,,7,4178.7,4.30218,1.2996,2163.369,0,,
1575,1,SBT2050,2,3,,7,4183.6,4.30323,1.2964,2165.136,0,,
1575,1,SBT2050,2,3,,7,4188.5,4.30327,1.2937,2166.898,0,,
1575,1,SBT2050,2,3,,7,4193.5,4.303632,1.2904,2168.692,0,,
1575,1,SBT2050,2,3,,7,4198.4,4.30439,1.287,2170.446,0,,
1575,1,SBT2050,2,3,,7,4203.4,4.30466,1.284,2172.231,0,,
1575,1,SBT2050,2,3,,7,4208.3,4.305,1.2806,2173.976,0,,
1575,1,SBT2050,2,3,,7,4213.3,4.30559,1.2773,2175.753,0,,
1575,1,SBT2050,2,3,,7,4218.2,4.3057,1.2738,2177.489,0,,
1575,1,SBT2050,2,3,,7,4223.2,4.30616,1.2706,2179.256,0,,
1575,1,SBT2050,2,3,,7,4228.1,4.30659,1.2671,2180.983,0,,
1575,1,SBT2050,2,3,,7,4233,4.307014,1.2642,2182.706,0,,
1575,1,SBT2050,2,3,,7,4238,4.30737,1.2638,2184.461,0,,
1575,1,SBT2050,2,3,,7,4242.9,4.307622,1.2601,2186.179,0,,
1575,1,SBT2050,2,3,,7,4247.9,4.30779,1.2571,2187.927,0,,
1575,1,SBT2050,2,3,,7,4252.8,4.30814,1.2541,2189.637,0,,
1575,1,SBT2050,2,3,,7,4257.8,4.30851,1.251,2191.376,0,,
1575,1,SBT2050,2,3,,7,4262.7,4.30847,1.248,2193.077,0,,
1575,1,SBT2050,2,3,,7,4267.7,4.30894,1.2448,2194.809,0,,
1575,1,SBT2050,2,3,,7,4272.6,4.30896,1.2418,2196.502,0,,
1575,1,SBT2050,2,3,,7,4277.6,4.30939,1.2415,2198.225,0,,
1575,1,SBT2050,2,3,,7,4282.5,4.309764,1.2391,2199.913,0,,
1575,1,SBT2050,2,3,,7,4287.4,4.30978,1.2365,2201.598,0,,
1575,1,SBT2050,2,3,,7,4292.4,4.31052,1.2335,2203.313,0,,
1575,1,SBT2050,2,3,,7,4297.3,4.31034,1.2309,2204.99,0,,
1575,1,SBT2050,2,3,,7,4302.3,4.31036,1.2277,2206.697,0,,
1575,1,SBT2050,2,3,,7,4307.2,4.31102,1.2282,2208.368,0,,
1575,1,SBT2050,2,3,,7,4312.2,4.31139,1.2251,2210.071,0,,
1575,1,SBT2050,2,3,,7,4317.1,4.31165,1.2221,2211.736,0,,
1575,1,SBT2050,2,3,,7,4322.1,4.31179,1.2197,2213.431,0,,
1575,1,SBT2050,2,3,,7,4327,4.31215,1.2168,2215.09,0,,
1575,1,SBT2050,2,3,,7,4331.9,4.31196,1.2144,2216.744,0,,
1575,1,SBT2050,2,3,,7,4336.9,4.312068,1.2154,2218.43,0,,
1575,1,SBT2050,2,3,,7,4341.8,4.31243,1.2121,2220.082,0,,
1575,1,SBT2050,2,3,,7,4346.8,4.31226,1.2103,2221.762,0,,
1575,1,SBT2050,2,3,,7,4351.7,4.31265,1.2069,2223.407,0,,
1575,1,SBT2050,2,3,,7,4356.7,4.31246,1.2045,2225.082,0,,
1575,1,SBT2050,2,3,,7,4361.6,4.31297,1.2021,2226.72,0,,
1575,1,SBT2050,2,3,,7,4366.6,4.31265,1.1996,2228.388,0,,
1575,1,SBT2050,2,3,,7,4371.5,4.31354,1.2004,2230.02,0,,
1575,1,SBT2050,2,3,,7,4376.5,4.31325,1.198,2231.686,0,,
1575,1,SBT2050,2,3,,7,4381.4,4.31339,1.1957,2233.315,0,,
1575,1,SBT2050,2,3,,7,4386.3,4.31339,1.1934,2234.94,0,,
1575,1,SBT2050,2,3,,7,4391.3,4.31334,1.1909,2236.596,0,,
1575,1,SBT2050,2,3,,7,4396.2,4.31367,1.192,2238.218,0,,
1575,1,SBT2050,2,3,,7,4401.2,4.31343,1.1894,2239.871,0,,
1575,1,SBT2050,2,3,,7,4406.1,4.31371,1.187,2241.488,0,,
1575,1,SBT2050,2,3,,7,4411.1,4.3142,1.1877,2243.14,0,,
1575,1,SBT2050,2,3,,7,4416,4.31378,1.1854,2244.755,0,,
1575,1,SBT2050,2,3,,7,4421,4.31396,1.1839,2246.4,0,,
1575,1,SBT2050,2,3,,7,4425.9,4.31418,1.1853,2248.012,0,,
1575,1,SBT2050,2,3,,7,4430.895,4.31418,1.1825,2249.655,0,,
1575,1,SBT2050,2,3,,7,4435.8,4.31378,1.1804,2251.265,0,,
1575,1,SBT2050,2,3,,7,4440.7,4.31394,1.1786,2252.87,0,,
1575,1,SBT2050,2,3,,7,4445.7,4.31428,1.1794,2254.509,0,,
1575,1,SBT2050,2,3,,7,4450.6,4.314202,1.1775,2256.113,0,,
1575,1,SBT2050,2,3,,7,4455.6,4.31402,1.1757,2257.748,0,,
1575,1,SBT2050,2,3,,7,4460.5,4.31427,1.1771,2259.351,0,,
1575,1,SBT2050,2,3,,7,4465.5,4.31418,1.1751,2260.984,0,,
1575,1,SBT2050,2,3,,7,4470.4,4.31496,1.1778,2262.586,0,,
1575,1,SBT2050,2,3,,7,4475.4,4.31438,1.1746,2264.218,0,,
1575,1,SBT2050,2,3,,7,4480.3,4.314376,1.1731,2265.816,0,,
1575,1,SBT2050,2,3,,7,4485.2,4.31416,1.1715,2267.412,0,,
1575,1,SBT2050,2,3,,7,4490.2,4.31435,1.1727,2269.042,0,,
1575,1,SBT2050,2,3,,7,4495.1,4.31451,1.174,2270.638,0,,
1575,1,SBT2050,2,3,,7,4500.1,4.31444,1.1724,2272.269,0,,
1575,1,SBT2050,2,3,,7,4505,4.31428,1.1712,2273.863,0,,
1575,1,SBT2050,2,3,,7,4510,4.31391,1.1695,2275.489,0,29.7,
1575,1,SBT2050,2,3,,7,4514.9,4.31453,1.1728,2277.084,0,,
1575,1,SBT2050,2,3,,7,4519.9,4.31424,1.1698,2278.71,0,,
1575,1,SBT2050,2,3,,7,4524.8,4.31437,1.1736,2280.303,0,,
1575,1,SBT2050,2,3,,7,4529.8,4.31419,1.1724,2281.93,0,,
1575,1,SBT2050,2,3,,7,4534.7,4.31419,1.1716,2283.528,0,,
1575,1,SBT2050,2,3,,7,4539.6,4.31422,1.1703,2285.122,0,,
1575,1,SBT2050,2,3,,7,4544.6,4.3145,1.1736,2286.748,0,,
1575,1,SBT2050,2,3,,7,4549.5,4.314472,1.1718,2288.345,0,,
1575,1,SBT2050,2,3,,7,4554.5,4.314112,1.1699,2289.971,0,,
1575,1,SBT2050,2,3,,7,4559.4,4.31487,1.1751,2291.567,0,,
1575,1,SBT2050,2,3,,7,4564.4,4.31404,1.1704,2293.195,0,,
1575,1,SBT2050,2,3,,7,4569.3,4.31441,1.1742,2294.79,0,,
1575,1,SBT2050,2,3,,7,4574.3,4.31395,1.1722,2296.421,0,,
1575,1,SBT2050,2,3,,7,4579.2,4.31458,1.1772,2298.018,0,,
1575,1,SBT2050,2,3,,7,4584.1,4.31452,1.174,2299.62,0,,
1575,1,SBT2050,2,3,,7,4589.1,4.31434,1.1743,2301.249,0,,
1575,1,SBT2050,2,3,,7,4594,4.31484,1.1781,2302.851,0,,
1575,1,SBT2050,2,3,,7,4599,4.3139,1.1728,2304.483,0,30.5,
1575,1,SBT2050,2,3,,7,4603.9,4.314604,1.18,2306.084,0,,
1575,1,SBT2050,2,3,,7,4608.9,4.31469,1.1793,2307.722,0,,
1575,1,SBT2050,2,3,,7,4613.8,4.31445,1.1784,2309.328,0,,
1575,1,SBT2050,2,3,,7,4618.8,4.314,1.176,2310.962,0,,
1575,1,SBT2050,2,3,,7,4623.7,4.315,1.1848,2312.569,0,,
1575,1,SBT2050,2,3,,7,4628.7,4.31514,1.1854,2314.215,0,,
1575,1,SBT2050,2,3,,7,4633.6,4.31508,1.1884,2315.831,0,,
1575,1,SBT2050,2,3,,7,4638.5,4.31503,1.1852,2317.447,0,,
1575,1,SBT2050,2,3,,7,4643.5,4.31543,1.1892,2319.097,0,,
1575,1,SBT2050,2,3,,7,4648.4,4.31578,1.1946,2320.718,0,,
1575,1,SBT2050,2,3,,7,4653.4,4.3161,1.1993,2322.382,0,,
1575,1,SBT2050,2,3,,7,4658.3,4.31664,1.2062,2324.018,0,,
1575,1,SBT2050,2,3,,7,4663.3,4.31824,1.2186,2325.701,0,,
1575,1,SBT2050,2,3,,7,4668.2,4.31949,1.232,2327.371,0,,
1575,1,SBT2050,2,3,,7,4673.2,4.32036,1.2388,2329.088,0,,
1575,1,SBT2050,2,3,,7,4678.1,4.32203,1.2537,2330.785,0,,
1575,1,SBT2050,2,3,,7,4683,4.32344,1.2646,2332.499,0,,
1575,1,SBT2050,2,3,,7,4688,4.32505,1.2808,2334.268,0,,
1575,1,SBT2050,2,3,,7,4692.9,4.32688,1.2955,2336.019,0,,
1575,1,SBT2050,2,3,,7,4697.9,4.32895,1.3122,2337.831,0,,
1575,1,SBT2050,2,3,,7,4702.8,4.33094,1.3301,2339.626,0,,
1575,1,SBT2050,2,3,,7,4707.8,4.33404,1.3518,2341.486,0,,
1575,1,SBT2050,2,3,,7,4712.7,4.33671,1.3737,2343.34,0,,
1575,1,SBT2050,2,3,,7,4717.7,4.33981,1.4009,2345.266,0,,
1575,1,SBT2050,2,3,,7,4722.6,4.34385,1.4297,2347.188,0,,
1575,1,SBT2050,2,3,,7,4726.842,4.34608,1.4478,2348.883,0,,