File: ORRG/Test1557.csv
Request Year:,2018,,,,,,,,,,,,
Test:,1557,,,,,,,,,,,,
Test Description:,,,,,,,,,,,,,
TestRegime Name:,Dchg_1C,,,,,,,,,,,,
TestRegime Suffix:,SHP_LC,,,,,,,,,,,,
TestRegime CellSize:,18650,,,,,,,,,,,,
TestRegime Version:,1,,,,,,,,,,,,
Number Of Cells:,1,,,,,,,,,,,,
LotID:,,,,,,,,,,,,,
Lot Description:,,,,,,,,,,,,,
Date Made:,1/21/2003 12:00 AM,,,,,,,,,,,,
Origin:,Other,,,,,,,,,,,,
Requestor:,Admin,,,,,,,,,,,,
Product ID:,Default product,,,,,,,,,,,,
Storage Temp:,R.T./AMB,,,,,,,,,,,,
Storage Delay:,0 days,,,,,,,,,,,,
Test Temp:,R.T./AMB,,,,,,,,,,,,
Start Time:,4/25/2018 8:40 PM,,,,,,,,,,,,
End Time:,4/25/2018 9:31 PM,,,,,,,,,,,,
Operator Instructions:,,,,,,,,,,,,,
Test,Cell,Rack,Shelf,Position,Cell ID,Step,Total Time (Seconds),Voltage (V),Current (A),Charge Capacity (mAh),Discharge Capacity (mAh),TC1 (Â°C),
1557,1,SBT2050,2,3,,0,1,4.17915,0,0,0,26.8,
1557,1,SBT2050,2,3,,0,5,4.17863,0,0,0,26.8,
1557,1,SBT2050,2,3,,0,9,4.17821,0,0,0,26.8,
1557,1,SBT2050,2,3,,0,13,4.177592,0,0,0,26.8,
1557,1,SBT2050,2,3,,0,17,4.17712,0,0,0,26.8,
1557,1,SBT2050,2,3,,0,21,4.17662,0,0,0,26.7,
1557,1,SBT2050,2,3,,0,25,4.17623,0,0,0,26.7,
1557,1,SBT2050,2,3,,0,29,4.17567,0,0,0,26.7,
1557,1,SBT2050,2,3,,0,33,4.175084,0,0,0,26.7,
1557,1,SBT2050,2,3,,0,37,4.17494,0,0,0,26.7,
1557,1,SBT2050,2,3,,0,41,4.17444,0,0,0,26.7,
1557,1,SBT2050,2,3,,0,45,4.173814,0,0,0,26.7,
1557,1,SBT2050,2,3,,0,49,4.17367,0,0,0,26.6,
1557,1,SBT2050,2,3,,0,53,4.173374,0,0,0,26.6,
1557,1,SBT2050,2,3,,0,57,4.17287,0,0,0,26.6,
1557,1,SBT2050,2,3,,1,61,3.941504,-2.7003,0,0.749,26.6,
1557,1,SBT2050,2,3,,1,65,3.91311,-2.7,0,3.749,26.6,
1557,1,SBT2050,2,3,,1,69,3.89879,-2.6996,0,6.749,26.6,
1557,1,SBT2050,2,3,,1,73,3.88743,-2.6996,0,9.749,26.6,
1557,1,SBT2050,2,3,,1,77,3.87839,-2.6999,0,12.749,26.7,
1557,1,SBT2050,2,3,,1,81,3.86988,-2.6999,0,15.748,26.7,
1557,1,SBT2050,2,3,,1,85,3.86281,-2.7,0,18.748,26.8,
1557,1,SBT2050,2,3,,1,89,3.85669,-2.6999,0,21.748,26.8,
1557,1,SBT2050,2,3,,1,93,3.85096,-2.7002,0,24.748,26.9,
1557,1,SBT2050,2,3,,1,97,3.84582,-2.6999,0,27.748,26.9,
1557,1,SBT2050,2,3,,1,101,3.8412,-2.6996,0,30.748,27,
1557,1,SBT2050,2,3,,1,105,3.83669,-2.6999,0,33.748,27.1,
1557,1,SBT2050,2,3,,1,109,3.83257,-2.6998,0,36.748,27.1,
1557,1,SBT2050,2,3,,1,113,3.82916,-2.6999,0,39.748,27.2,
1557,1,SBT2050,2,3,,1,117,3.82512,-2.6997,0,42.748,27.2,
1557,1,SBT2050,2,3,,1,121,3.822006,-2.7,0,45.748,27.2,
1557,1,SBT2050,2,3,,1,125,3.81861,-2.6999,0,48.748,27.3,
1557,1,SBT2050,2,3,,1,129,3.81561,-2.7,0,51.748,27.4,
1557,1,SBT2050,2,3,,1,133,3.8127,-2.6999,0,54.748,27.4,
1557,1,SBT2050,2,3,,1,137,3.81003,-2.6997,0,57.748,27.5,
1557,1,SBT2050,2,3,,1,141,3.80705,-2.6997,0,60.747,27.5,
1557,1,SBT2050,2,3,,1,145,3.80457,-2.7,0,63.747,27.6,
1557,1,SBT2050,2,3,,1,149,3.80198,-2.7,0,66.747,27.6,
1557,1,SBT2050,2,3,,1,153,3.799702,-2.7001,0,69.747,27.6,
1557,1,SBT2050,2,3,,1,157,3.79726,-2.6999,0,72.747,27.7,
1557,1,SBT2050,2,3,,1,161,3.79502,-2.6998,0,75.747,27.7,
1557,1,SBT2050,2,3,,1,165,3.79282,-2.6999,0,78.747,27.8,
1557,1,SBT2050,2,3,,1,169,3.79071,-2.6999,0,81.747,27.8,
1557,1,SBT2050,2,3,,1,173,3.78871,-2.6999,0,84.747,27.9,
1557,1,SBT2050,2,3,,1,177,3.78662,-2.7002,0,87.747,27.9,
1557,1,SBT2050,2,3,,1,181,3.78479,-2.6998,0,90.747,28,
1557,1,SBT2050,2,3,,1,185,3.78287,-2.6996,0,93.747,28,
1557,1,SBT2050,2,3,,1,189,3.78111,-2.6998,0,96.747,28.1,
1557,1,SBT2050,2,3,,1,193,3.77943,-2.7001,0,99.747,28.1,
1557,1,SBT2050,2,3,,1,197,3.77738,-2.7001,0,102.747,28.1,
1557,1,SBT2050,2,3,,1,201,3.77581,-2.6998,0,105.747,28.2,
1557,1,SBT2050,2,3,,1,205,3.77411,-2.7001,0,108.746,28.2,
1557,1,SBT2050,2,3,,1,209,3.77257,-2.7001,0,111.746,28.2,
1557,1,SBT2050,2,3,,1,213,3.7711,-2.6997,0,114.746,28.3,
1557,1,SBT2050,2,3,,1,217,3.76934,-2.7,0,117.746,28.3,
1557,1,SBT2050,2,3,,1,221,3.76799,-2.6997,0,120.746,28.4,
1557,1,SBT2050,2,3,,1,225,3.76645,-2.7,0,123.746,28.4,
1557,1,SBT2050,2,3,,1,229,3.76523,-2.6997,0,126.746,28.4,
1557,1,SBT2050,2,3,,1,233,3.76329,-2.7,0,129.746,28.5,
1557,1,SBT2050,2,3,,1,237,3.76215,-2.6999,0,132.746,28.5,
1557,1,SBT2050,2,3,,1,241,3.76085,-2.6997,0,135.746,28.5,
1557,1,SBT2050,2,3,,1,245,3.75965,-2.6997,0,138.746,28.5,
1557,1,SBT2050,2,3,,1,249,3.75823,-2.6997,0,141.746,28.6,
1557,1,SBT2050,2,3,,1,253,3.75684,-2.6999,0,144.746,28.6,
1557,1,SBT2050,2,3,,1,257,3.75573,-2.7,0,147.746,28.6,
1557,1,SBT2050,2,3,,1,261,3.75454,-2.6999,0,150.746,28.7,
1557,1,SBT2050,2,3,,1,265,3.75321,-2.7001,0,153.746,28.7,
1557,1,SBT2050,2,3,,1,269,3.75189,-2.7,0,156.746,28.7,
1557,1,SBT2050,2,3,,1,273,3.75055,-2.6997,0,159.746,28.7,
1557,1,SBT2050,2,3,,1,277,3.74947,-2.6997,0,162.746,28.8,
1557,1,SBT2050,2,3,,1,281,3.74812,-2.7,0,165.745,28.8,
1557,1,SBT2050,2,3,,1,285,3.74724,-2.7,0,168.745,28.8,
1557,1,SBT2050,2,3,,1,289,3.74604,-2.6999,0,171.745,28.9,
1557,1,SBT2050,2,3,,1,293,3.74481,-2.7005,0,174.745,28.9,
1557,1,SBT2050,2,3,,1,297,3.74365,-2.7,0,177.745,28.9,
1557,1,SBT2050,2,3,,1,301,3.74258,-2.7,0,180.745,28.9,
1557,1,SBT2050,2,3,,1,305,3.74154,-2.7,0,183.745,28.9,
1557,1,SBT2050,2,3,,1,309,3.74041,-2.7003,0,186.745,29,
1557,1,SBT2050,2,3,,1,313,3.73951,-2.6994,0,189.745,29,
1557,1,SBT2050,2,3,,1,317,3.73844,-2.6996,0,192.745,29,
1557,1,SBT2050,2,3,,1,321,3.73726,-2.6998,0,195.745,29,
1557,1,SBT2050,2,3,,1,325,3.73653,-2.7002,0,198.745,29,
1557,1,SBT2050,2,3,,1,329,3.73523,-2.6999,0,201.745,29.1,
1557,1,SBT2050,2,3,,1,333,3.734148,-2.6996,0,204.745,29.1,
1557,1,SBT2050,2,3,,1,337,3.73291,-2.6999,0,207.745,29.1,
1557,1,SBT2050,2,3,,1,341,3.73181,-2.7002,0,210.744,29.1,
1557,1,SBT2050,2,3,,1,345,3.730782,-2.6998,0,213.744,29.1,
1557,1,SBT2050,2,3,,1,349,3.72992,-2.6996,0,216.744,29.1,
1557,1,SBT2050,2,3,,1,353,3.7288,-2.7001,0,219.744,29.1,
1557,1,SBT2050,2,3,,1,357,3.72786,-2.7001,0,222.744,29.2,
1557,1,SBT2050,2,3,,1,361,3.72663,-2.7001,0,225.744,29.2,
1557,1,SBT2050,2,3,,1,365,3.725674,-2.7001,0,228.744,29.2,
1557,1,SBT2050,2,3,,1,369,3.72454,-2.7002,0,231.744,29.2,
1557,1,SBT2050,2,3,,1,373,3.7234,-2.7001,0,234.744,29.3,
1557,1,SBT2050,2,3,,1,377,3.72229,-2.7,0,237.744,29.3,
1557,1,SBT2050,2,3,,1,381,3.72122,-2.6997,0,240.744,29.3,
1557,1,SBT2050,2,3,,1,385,3.72017,-2.6997,0,243.744,29.3,
1557,1,SBT2050,2,3,,1,389,3.71904,-2.7,0,246.744,29.3,
1557,1,SBT2050,2,3,,1,393,3.71793,-2.7003,0,249.744,29.3,
1557,1,SBT2050,2,3,,1,397,3.71707,-2.6996,0,252.744,29.3,
1557,1,SBT2050,2,3,,1,401,3.71609,-2.7002,0,255.743,29.3,
1557,1,SBT2050,2,3,,1,405,3.71504,-2.6997,0,258.743,29.3,
1557,1,SBT2050,2,3,,1,409,3.71389,-2.7002,0,261.743,29.4,
1557,1,SBT2050,2,3,,1,413,3.71258,-2.7001,0,264.743,29.4,
1557,1,SBT2050,2,3,,1,417,3.71176,-2.6996,0,267.743,29.4,
1557,1,SBT2050,2,3,,1,421,3.710628,-2.6999,0,270.743,29.4,
1557,1,SBT2050,2,3,,1,425,3.70976,-2.7001,0,273.743,29.4,
1557,1,SBT2050,2,3,,1,429,3.70851,-2.6999,0,276.743,29.4,
1557,1,SBT2050,2,3,,1,433,3.70749,-2.6996,0,279.743,29.4,
1557,1,SBT2050,2,3,,1,437,3.706334,-2.7001,0,282.743,29.5,
1557,1,SBT2050,2,3,,1,441,3.70561,-2.6998,0,285.743,29.5,
1557,1,SBT2050,2,3,,1,445,3.70468,-2.6999,0,288.743,29.5,
1557,1,SBT2050,2,3,,1,449,3.70334,-2.7002,0,291.743,29.5,
1557,1,SBT2050,2,3,,1,453,3.70237,-2.7003,0,294.743,29.5,
1557,1,SBT2050,2,3,,1,457,3.70138,-2.7,0,297.743,29.5,
1557,1,SBT2050,2,3,,1,461,3.70032,-2.6998,0,300.743,29.5,
1557,1,SBT2050,2,3,,1,465,3.699134,-2.6998,0,303.743,29.5,
1557,1,SBT2050,2,3,,1,469,3.69803,-2.7001,0,306.742,29.5,
1557,1,SBT2050,2,3,,1,473,3.69708,-2.6998,0,309.742,29.5,
1557,1,SBT2050,2,3,,1,477,3.696188,-2.7001,0,312.742,29.6,
1557,1,SBT2050,2,3,,1,481,3.69507,-2.6997,0,315.742,29.6,
1557,1,SBT2050,2,3,,1,485,3.69408,-2.6998,0,318.742,29.6,
1557,1,SBT2050,2,3,,1,489,3.69311,-2.6997,0,321.742,29.6,
1557,1,SBT2050,2,3,,1,493,3.69164,-2.6995,0,324.742,29.6,
1557,1,SBT2050,2,3,,1,497,3.69085,-2.6998,0,327.742,29.6,
1557,1,SBT2050,2,3,,1,501,3.689722,-2.7003,0,330.742,29.6,
1557,1,SBT2050,2,3,,1,505,3.68859,-2.6999,0,333.742,29.6,
1557,1,SBT2050,2,3,,1,509,3.68787,-2.7003,0,336.742,29.6,
1557,1,SBT2050,2,3,,1,513,3.68667,-2.7003,0,339.742,29.6,
1557,1,SBT2050,2,3,,1,517,3.68553,-2.7001,0,342.742,29.6,
1557,1,SBT2050,2,3,,1,521,3.6845,-2.7001,0,345.742,29.6,
1557,1,SBT2050,2,3,,1,525,3.683458,-2.6999,0,348.742,29.6,
1557,1,SBT2050,2,3,,1,529,3.68254,-2.6996,0,351.742,29.6,
1557,1,SBT2050,2,3,,1,533,3.68165,-2.6998,0,354.742,29.6,
1557,1,SBT2050,2,3,,1,537,3.68038,-2.7001,0,357.741,29.6,
1557,1,SBT2050,2,3,,1,541,3.67923,-2.7004,0,360.741,29.6,
1557,1,SBT2050,2,3,,1,545,3.67821,-2.6999,0,363.741,29.6,
1557,1,SBT2050,2,3,,1,549,3.677252,-2.6998,0,366.741,29.7,
1557,1,SBT2050,2,3,,1,553,3.676,-2.7,0,369.741,29.7,
1557,1,SBT2050,2,3,,1,557,3.67533,-2.6995,0,372.741,29.7,
1557,1,SBT2050,2,3,,1,561,3.67404,-2.6999,0,375.741,29.7,
1557,1,SBT2050,2,3,,1,565,3.67307,-2.6999,0,378.741,29.7,
1557,1,SBT2050,2,3,,1,569,3.67207,-2.7001,0,381.741,29.7,
1557,1,SBT2050,2,3,,1,573,3.670912,-2.6999,0,384.741,29.7,
1557,1,SBT2050,2,3,,1,577,3.6698,-2.7003,0,387.741,29.7,
1557,1,SBT2050,2,3,,1,581,3.6688,-2.6999,0,390.741,29.7,
1557,1,SBT2050,2,3,,1,585,3.667548,-2.7,0,393.741,29.7,
1557,1,SBT2050,2,3,,1,589,3.66658,-2.6998,0,396.741,29.7,
1557,1,SBT2050,2,3,,1,593,3.66543,-2.6999,0,399.741,29.7,
1557,1,SBT2050,2,3,,1,597,3.6647,-2.6998,0,402.741,29.7,
1557,1,SBT2050,2,3,,1,601,3.66354,-2.7003,0,405.741,29.7,
1557,1,SBT2050,2,3,,1,605,3.66259,-2.6999,0,408.741,29.7,
1557,1,SBT2050,2,3,,1,609,3.66117,-2.6999,0,411.74,29.7,
1557,1,SBT2050,2,3,,1,613,3.66026,-2.6997,0,414.74,29.7,
1557,1,SBT2050,2,3,,1,617,3.65914,-2.6999,0,417.74,29.7,
1557,1,SBT2050,2,3,,1,621,3.658332,-2.7004,0,420.74,29.7,
1557,1,SBT2050,2,3,,1,625,3.65706,-2.6998,0,423.74,29.7,
1557,1,SBT2050,2,3,,1,629,3.6561,-2.7001,0,426.74,29.7,
1557,1,SBT2050,2,3,,1,633,3.655,-2.6998,0,429.74,29.7,
1557,1,SBT2050,2,3,,1,637,3.65374,-2.6995,0,432.74,29.7,
1557,1,SBT2050,2,3,,1,641,3.653104,-2.6998,0,435.74,29.7,
1557,1,SBT2050,2,3,,1,645,3.65174,-2.7002,0,438.74,29.7,
1557,1,SBT2050,2,3,,1,649,3.65063,-2.7,0,441.74,29.7,
1557,1,SBT2050,2,3,,1,653,3.64958,-2.7,0,444.74,29.7,
1557,1,SBT2050,2,3,,1,657,3.64867,-2.7002,0,447.74,29.7,
1557,1,SBT2050,2,3,,1,661,3.64737,-2.7005,0,450.74,29.7,
1557,1,SBT2050,2,3,,1,665,3.6463,-2.6999,0,453.74,29.7,
1557,1,SBT2050,2,3,,1,669,3.64531,-2.6999,0,456.74,29.7,
1557,1,SBT2050,2,3,,1,673,3.64439,-2.6996,0,459.74,29.7,
1557,1,SBT2050,2,3,,1,677,3.64323,-2.7,0,462.739,29.7,
1557,1,SBT2050,2,3,,1,681,3.6422,-2.7002,0,465.739,29.7,
1557,1,SBT2050,2,3,,1,685,3.64114,-2.7003,0,468.739,29.7,
1557,1,SBT2050,2,3,,1,689,3.64003,-2.7005,0,471.739,29.7,
1557,1,SBT2050,2,3,,1,693,3.63895,-2.7002,0,474.739,29.7,
1557,1,SBT2050,2,3,,1,697,3.63793,-2.7003,0,477.739,29.7,
1557,1,SBT2050,2,3,,1,701,3.63683,-2.7003,0,480.739,29.7,
1557,1,SBT2050,2,3,,1,705,3.6358,-2.6997,0,483.739,29.8,
1557,1,SBT2050,2,3,,1,709,3.6347,-2.6997,0,486.739,29.8,
1557,1,SBT2050,2,3,,1,713,3.63371,-2.7001,0,489.739,29.7,
1557,1,SBT2050,2,3,,1,717,3.63266,-2.6999,0,492.739,29.7,
1557,1,SBT2050,2,3,,1,721,3.6315,-2.7003,0,495.739,29.8,
1557,1,SBT2050,2,3,,1,725,3.6305,-2.7003,0,498.739,29.8,
1557,1,SBT2050,2,3,,1,729,3.62958,-2.7003,0,501.739,29.8,
1557,1,SBT2050,2,3,,1,733,3.62846,-2.6998,0,504.739,29.8,
1557,1,SBT2050,2,3,,1,737,3.62709,-2.6996,0,507.739,29.8,
1557,1,SBT2050,2,3,,1,741,3.62635,-2.6996,0,510.739,29.8,
1557,1,SBT2050,2,3,,1,745,3.625092,-2.6999,0,513.739,29.8,
1557,1,SBT2050,2,3,,1,749,3.62368,-2.6998,0,516.738,29.8,
1557,1,SBT2050,2,3,,1,753,3.62285,-2.6999,0,519.738,29.7,
1557,1,SBT2050,2,3,,1,757,3.62207,-2.6996,0,522.738,29.7,
1557,1,SBT2050,2,3,,1,761,3.6211,-2.7002,0,525.738,29.7,
1557,1,SBT2050,2,3,,1,765,3.61971,-2.6996,0,528.738,29.8,
1557,1,SBT2050,2,3,,1,769,3.61882,-2.6998,0,531.738,29.8,
1557,1,SBT2050,2,3,,1,773,3.61773,-2.7004,0,534.738,29.8,
1557,1,SBT2050,2,3,,1,777,3.61665,-2.7002,0,537.738,29.8,
1557,1,SBT2050,2,3,,1,781,3.615554,-2.6996,0,540.738,29.8,
1557,1,SBT2050,2,3,,1,785,3.61456,-2.6998,0,543.738,29.8,
1557,1,SBT2050,2,3,,1,789,3.61335,-2.7001,0,546.738,29.8,
1557,1,SBT2050,2,3,,1,793,3.612396,-2.7001,0,549.738,29.8,
1557,1,SBT2050,2,3,,1,797,3.61139,-2.7002,0,552.738,29.8,
1557,1,SBT2050,2,3,,1,801,3.61024,-2.7001,0,555.737,29.8,
1557,1,SBT2050,2,3,,1,805,3.60903,-2.6999,0,558.737,29.8,
1557,1,SBT2050,2,3,,1,809,3.608066,-2.7001,0,561.737,29.8,
1557,1,SBT2050,2,3,,1,813,3.607298,-2.6998,0,564.737,29.8,
1557,1,SBT2050,2,3,,1,817,3.606148,-2.6999,0,567.737,29.8,
1557,1,SBT2050,2,3,,1,821,3.604652,-2.6998,0,570.737,29.8,
1557,1,SBT2050,2,3,,1,825,3.60377,-2.7001,0,573.737,29.8,
1557,1,SBT2050,2,3,,1,829,3.60242,-2.6998,0,576.737,29.8,
1557,1,SBT2050,2,3,,1,833,3.6014,-2.6998,0,579.737,29.8,
1557,1,SBT2050,2,3,,1,837,3.60031,-2.6999,0,582.737,29.8,
1557,1,SBT2050,2,3,,1,841,3.5995,-2.6996,0,585.737,29.8,
1557,1,SBT2050,2,3,,1,845,3.598298,-2.6999,0,588.737,29.8,
1557,1,SBT2050,2,3,,1,849,3.59694,-2.7001,0,591.737,29.8,
1557,1,SBT2050,2,3,,1,853,3.59593,-2.7,0,594.737,29.8,
1557,1,SBT2050,2,3,,1,857,3.59484,-2.6999,0,597.737,29.8,
1557,1,SBT2050,2,3,,1,861,3.59365,-2.7003,0,600.736,29.8,
1557,1,SBT2050,2,3,,1,865,3.59271,-2.6998,0,603.736,29.8,
1557,1,SBT2050,2,3,,1,869,3.59131,-2.6999,0,606.736,29.8,
1557,1,SBT2050,2,3,,1,873,3.590474,-2.6998,0,609.736,29.9,
1557,1,SBT2050,2,3,,1,877,3.58935,-2.6996,0,612.736,29.9,
1557,1,SBT2050,2,3,,1,881,3.58828,-2.7003,0,615.736,29.9,
1557,1,SBT2050,2,3,,1,885,3.587308,-2.6998,0,618.736,29.9,
1557,1,SBT2050,2,3,,1,889,3.58597,-2.7001,0,621.736,29.9,
1557,1,SBT2050,2,3,,1,893,3.58504,-2.6995,0,624.736,29.9,
1557,1,SBT2050,2,3,,1,897,3.58394,-2.7002,0,627.736,29.9,
1557,1,SBT2050,2,3,,1,901,3.58285,-2.6996,0,630.736,29.9,
1557,1,SBT2050,2,3,,1,905,3.58175,-2.6996,0,633.736,29.8,
1557,1,SBT2050,2,3,,1,909,3.58061,-2.7001,0,636.736,29.9,
1557,1,SBT2050,2,3,,1,913,3.57963,-2.6999,0,639.736,29.9,
1557,1,SBT2050,2,3,,1,917,3.578536,-2.7002,0,642.736,29.8,
1557,1,SBT2050,2,3,,1,921,3.57743,-2.7003,0,645.735,29.8,
1557,1,SBT2050,2,3,,1,925,3.576304,-2.7002,0,648.735,29.8,
1557,1,SBT2050,2,3,,1,929,3.57513,-2.7002,0,651.735,29.9,
1557,1,SBT2050,2,3,,1,933,3.57415,-2.7,0,654.735,29.9,
1557,1,SBT2050,2,3,,1,937,3.57267,-2.7001,0,657.735,29.9,
1557,1,SBT2050,2,3,,1,941,3.57171,-2.6999,0,660.735,29.9,
1557,1,SBT2050,2,3,,1,945,3.57037,-2.6996,0,663.735,29.9,
1557,1,SBT2050,2,3,,1,949,3.56919,-2.7002,0,666.735,29.9,
1557,1,SBT2050,2,3,,1,953,3.56827,-2.6997,0,669.735,29.9,
1557,1,SBT2050,2,3,,1,957,3.56735,-2.6999,0,672.735,29.9,
1557,1,SBT2050,2,3,,1,961,3.56573,-2.7,0,675.735,29.9,
1557,1,SBT2050,2,3,,1,965,3.56468,-2.7,0,678.735,29.9,
1557,1,SBT2050,2,3,,1,969,3.56364,-2.7,0,681.735,29.9,
1557,1,SBT2050,2,3,,1,973,3.56248,-2.7001,0,684.735,29.9,
1557,1,SBT2050,2,3,,1,977,3.56119,-2.6998,0,687.735,29.9,
1557,1,SBT2050,2,3,,1,981,3.56017,-2.7001,0,690.735,29.9,
1557,1,SBT2050,2,3,,1,985,3.55917,-2.7005,0,693.734,29.9,
1557,1,SBT2050,2,3,,1,989,3.55791,-2.7002,0,696.734,29.9,
1557,1,SBT2050,2,3,,1,993,3.55693,-2.7,0,699.734,29.9,
1557,1,SBT2050,2,3,,1,997,3.55564,-2.7,0,702.734,29.9,
1557,1,SBT2050,2,3,,1,1001,3.55452,-2.7003,0,705.734,29.9,
1557,1,SBT2050,2,3,,1,1005,3.55344,-2.6999,0,708.734,29.9,
1557,1,SBT2050,2,3,,1,1009,3.55219,-2.6999,0,711.734,29.9,
1557,1,SBT2050,2,3,,1,1013,3.55132,-2.6996,0,714.734,29.9,
1557,1,SBT2050,2,3,,1,1017,3.55031,-2.6996,0,717.734,29.9,
1557,1,SBT2050,2,3,,1,1021,3.54909,-2.6999,0,720.734,29.9,
1557,1,SBT2050,2,3,,1,1025,3.54821,-2.6999,0,723.734,29.9,
1557,1,SBT2050,2,3,,1,1029,3.54701,-2.7,0,726.734,29.9,
1557,1,SBT2050,2,3,,1,1033,3.54578,-2.6999,0,729.734,29.9,
1557,1,SBT2050,2,3,,1,1037,3.544542,-2.6997,0,732.734,29.9,
1557,1,SBT2050,2,3,,1,1041,3.54372,-2.6997,0,735.733,29.9,
1557,1,SBT2050,2,3,,1,1045,3.54244,-2.7002,0,738.733,29.9,
1557,1,SBT2050,2,3,,1,1049,3.54137,-2.6994,0,741.733,29.9,
1557,1,SBT2050,2,3,,1,1053,3.54039,-2.7,0,744.733,29.9,
1557,1,SBT2050,2,3,,1,1057,3.53924,-2.7,0,747.733,29.9,
1557,1,SBT2050,2,3,,1,1061,3.53799,-2.7002,0,750.733,29.9,
1557,1,SBT2050,2,3,,1,1065,3.53665,-2.7,0,753.733,29.9,
1557,1,SBT2050,2,3,,1,1069,3.53571,-2.7,0,756.733,29.9,
1557,1,SBT2050,2,3,,1,1073,3.53472,-2.7002,0,759.733,29.9,
1557,1,SBT2050,2,3,,1,1077,3.53354,-2.7002,0,762.733,29.9,
1557,1,SBT2050,2,3,,1,1081,3.53243,-2.7,0,765.733,29.9,
1557,1,SBT2050,2,3,,1,1085,3.53128,-2.7001,0,768.733,29.9,
1557,1,SBT2050,2,3,,1,1089,3.52991,-2.7003,0,771.733,30,
1557,1,SBT2050,2,3,,1,1093,3.52904,-2.6999,0,774.733,30,
1557,1,SBT2050,2,3,,1,1097,3.52772,-2.6999,0,777.733,29.9,
1557,1,SBT2050,2,3,,1,1101,3.52666,-2.7002,0,780.732,30,
1557,1,SBT2050,2,3,,1,1105,3.525652,-2.7003,0,783.732,30,
1557,1,SBT2050,2,3,,1,1109,3.524454,-2.7003,0,786.732,29.9,
1557,1,SBT2050,2,3,,1,1113,3.522928,-2.6996,0,789.732,30,
1557,1,SBT2050,2,3,,1,1117,3.521994,-2.7,0,792.732,30,
1557,1,SBT2050,2,3,,1,1121,3.52108,-2.6997,0,795.732,30,
1557,1,SBT2050,2,3,,1,1125,3.51997,-2.6997,0,798.732,30,
1557,1,SBT2050,2,3,,1,1129,3.5189,-2.6999,0,801.732,30,
1557,1,SBT2050,2,3,,1,1133,3.51763,-2.6999,0,804.732,30,
1557,1,SBT2050,2,3,,1,1137,3.51633,-2.6997,0,807.732,30,
1557,1,SBT2050,2,3,,1,1141,3.51532,-2.7,0,810.732,30,
1557,1,SBT2050,2,3,,1,1145,3.51429,-2.7,0,813.732,30,
1557,1,SBT2050,2,3,,1,1149,3.513172,-2.7,0,816.732,30,
1557,1,SBT2050,2,3,,1,1153,3.51189,-2.7002,0,819.732,30,
1557,1,SBT2050,2,3,,1,1157,3.51085,-2.6999,0,822.732,30,
1557,1,SBT2050,2,3,,1,1161,3.50974,-2.6995,0,825.731,30,
1557,1,SBT2050,2,3,,1,1165,3.50854,-2.7,0,828.731,30,
1557,1,SBT2050,2,3,,1,1169,3.50742,-2.7001,0,831.731,30,
1557,1,SBT2050,2,3,,1,1173,3.506378,-2.7,0,834.731,30,
1557,1,SBT2050,2,3,,1,1177,3.5049,-2.6997,0,837.731,30,
1557,1,SBT2050,2,3,,1,1181,3.50404,-2.7,0,840.731,30,
1557,1,SBT2050,2,3,,1,1185,3.50316,-2.6996,0,843.731,30,
1557,1,SBT2050,2,3,,1,1189,3.502024,-2.7,0,846.731,30,
1557,1,SBT2050,2,3,,1,1193,3.500866,-2.6999,0,849.731,30,
1557,1,SBT2050,2,3,,1,1197,3.49953,-2.6997,0,852.731,30,
1557,1,SBT2050,2,3,,1,1201,3.49848,-2.7,0,855.731,30,
1557,1,SBT2050,2,3,,1,1205,3.497238,-2.6998,0,858.731,30,
1557,1,SBT2050,2,3,,1,1209,3.496028,-2.6998,0,861.731,30,
1557,1,SBT2050,2,3,,1,1213,3.49512,-2.6998,0,864.731,30,
1557,1,SBT2050,2,3,,1,1217,3.49384,-2.6998,0,867.731,30,
1557,1,SBT2050,2,3,,1,1221,3.49297,-2.7001,0,870.73,30,
1557,1,SBT2050,2,3,,1,1225,3.4916,-2.6998,0,873.73,30,
1557,1,SBT2050,2,3,,1,1229,3.49041,-2.7001,0,876.73,30,
1557,1,SBT2050,2,3,,1,1233,3.48965,-2.6995,0,879.73,30,
1557,1,SBT2050,2,3,,1,1237,3.4883,-2.6999,0,882.73,30,
1557,1,SBT2050,2,3,,1,1241,3.48745,-2.7001,0,885.73,30,
1557,1,SBT2050,2,3,,1,1245,3.48614,-2.6999,0,888.73,30,
1557,1,SBT2050,2,3,,1,1249,3.48507,-2.6999,0,891.73,30,
1557,1,SBT2050,2,3,,1,1253,3.48396,-2.6998,0,894.73,30,
1557,1,SBT2050,2,3,,1,1257,3.48276,-2.7001,0,897.73,30,
1557,1,SBT2050,2,3,,1,1261,3.48157,-2.7004,0,900.73,30,
1557,1,SBT2050,2,3,,1,1265,3.48047,-2.7002,0,903.73,30,
1557,1,SBT2050,2,3,,1,1269,3.47919,-2.6997,0,906.73,30,
1557,1,SBT2050,2,3,,1,1273,3.47811,-2.6997,0,909.73,30,
1557,1,SBT2050,2,3,,1,1277,3.47703,-2.7,0,912.729,30,
1557,1,SBT2050,2,3,,1,1281,3.47598,-2.6999,0,915.729,30,
1557,1,SBT2050,2,3,,1,1285,3.47477,-2.6997,0,918.729,30.1,
1557,1,SBT2050,2,3,,1,1289,3.473686,-2.7002,0,921.729,30.1,
1557,1,SBT2050,2,3,,1,1293,3.47241,-2.6999,0,924.729,30,
1557,1,SBT2050,2,3,,1,1297,3.47146,-2.7002,0,927.729,30.1,
1557,1,SBT2050,2,3,,1,1301,3.47034,-2.6997,0,930.729,30.1,
1557,1,SBT2050,2,3,,1,1305,3.46894,-2.6999,0,933.729,30.1,
1557,1,SBT2050,2,3,,1,1309,3.46795,-2.7,0,936.729,30,
1557,1,SBT2050,2,3,,1,1313,3.466838,-2.6997,0,939.729,30,
1557,1,SBT2050,2,3,,1,1317,3.4655,-2.6999,0,942.729,30,
1557,1,SBT2050,2,3,,1,1321,3.4646,-2.6997,0,945.729,30,
1557,1,SBT2050,2,3,,1,1325,3.46343,-2.7001,0,948.729,30,
1557,1,SBT2050,2,3,,1,1329,3.46232,-2.6999,0,951.729,30,
1557,1,SBT2050,2,3,,1,1333,3.461236,-2.6998,0,954.729,30.1,
1557,1,SBT2050,2,3,,1,1337,3.4602,-2.6999,0,957.728,30,
1557,1,SBT2050,2,3,,1,1341,3.45921,-2.6999,0,960.728,30,
1557,1,SBT2050,2,3,,1,1345,3.45798,-2.6999,0,963.728,30.1,
1557,1,SBT2050,2,3,,1,1349,3.45699,-2.7,0,966.728,30,
1557,1,SBT2050,2,3,,1,1353,3.45593,-2.7001,0,969.728,30.1,
1557,1,SBT2050,2,3,,1,1357,3.45485,-2.6995,0,972.728,30.1,
1557,1,SBT2050,2,3,,1,1361,3.45353,-2.7001,0,975.728,30.1,
1557,1,SBT2050,2,3,,1,1365,3.45239,-2.7,0,978.728,30.1,
1557,1,SBT2050,2,3,,1,1369,3.45151,-2.6998,0,981.728,30,
1557,1,SBT2050,2,3,,1,1373,3.45032,-2.7003,0,984.728,30,
1557,1,SBT2050,2,3,,1,1377,3.44905,-2.7001,0,987.728,30,
1557,1,SBT2050,2,3,,1,1381,3.44792,-2.7001,0,990.728,30,
1557,1,SBT2050,2,3,,1,1385,3.44703,-2.7001,0,993.728,30.1,
1557,1,SBT2050,2,3,,1,1389,3.445762,-2.7,0,996.728,30,
1557,1,SBT2050,2,3,,1,1393,3.444746,-2.6997,0,999.728,30.1,
1557,1,SBT2050,2,3,,1,1397,3.44357,-2.7,0,1002.728,30.1,
1557,1,SBT2050,2,3,,1,1401,3.44259,-2.6997,0,1005.728,30.1,
1557,1,SBT2050,2,3,,1,1405,3.441384,-2.7002,0,1008.728,30.1,
1557,1,SBT2050,2,3,,1,1409,3.440282,-2.7,0,1011.728,30.1,
1557,1,SBT2050,2,3,,1,1413,3.43912,-2.7001,0,1014.728,30.1,
1557,1,SBT2050,2,3,,1,1417,3.438096,-2.7,0,1017.728,30.1,
1557,1,SBT2050,2,3,,1,1421,3.43676,-2.7,0,1020.727,30.1,
1557,1,SBT2050,2,3,,1,1425,3.435908,-2.6999,0,1023.727,30.1,
1557,1,SBT2050,2,3,,1,1429,3.43472,-2.6999,0,1026.727,30.1,
1557,1,SBT2050,2,3,,1,1433,3.43342,-2.7003,0,1029.727,30.1,
1557,1,SBT2050,2,3,,1,1437,3.43239,-2.7002,0,1032.727,30.1,
1557,1,SBT2050,2,3,,1,1441,3.43144,-2.6999,0,1035.727,30.1,
1557,1,SBT2050,2,3,,1,1445,3.43021,-2.7002,0,1038.727,30.1,
1557,1,SBT2050,2,3,,1,1449,3.42897,-2.7005,0,1041.727,30.1,
1557,1,SBT2050,2,3,,1,1453,3.42782,-2.6996,0,1044.727,30.1,
1557,1,SBT2050,2,3,,1,1457,3.426946,-2.7,0,1047.727,30.1,
1557,1,SBT2050,2,3,,1,1461,3.425826,-2.6999,0,1050.727,30.1,
1557,1,SBT2050,2,3,,1,1465,3.42481,-2.6999,0,1053.727,30.1,
1557,1,SBT2050,2,3,,1,1469,3.42341,-2.6994,0,1056.727,30.1,
1557,1,SBT2050,2,3,,1,1473,3.42257,-2.7002,0,1059.727,30.1,
1557,1,SBT2050,2,3,,1,1477,3.42138,-2.6996,0,1062.727,30.1,
1557,1,SBT2050,2,3,,1,1481,3.42075,-2.7003,0,1065.726,30.1,
1557,1,SBT2050,2,3,,1,1485,3.41916,-2.7002,0,1068.726,30.1,
1557,1,SBT2050,2,3,,1,1489,3.41835,-2.7002,0,1071.726,30.1,
1557,1,SBT2050,2,3,,1,1493,3.4169,-2.6999,0,1074.726,30.1,
1557,1,SBT2050,2,3,,1,1497,3.41596,-2.7,0,1077.726,30.1,
1557,1,SBT2050,2,3,,1,1501,3.41493,-2.6997,0,1080.726,30.1,
1557,1,SBT2050,2,3,,1,1505,3.41378,-2.6997,0,1083.726,30.1,
1557,1,SBT2050,2,3,,1,1509,3.412658,-2.7006,0,1086.726,30.1,
1557,1,SBT2050,2,3,,1,1513,3.411742,-2.6997,0,1089.726,30.1,
1557,1,SBT2050,2,3,,1,1517,3.41058,-2.7,0,1092.726,30.1,
1557,1,SBT2050,2,3,,1,1521,3.40953,-2.6997,0,1095.726,30.1,
1557,1,SBT2050,2,3,,1,1525,3.40873,-2.7,0,1098.726,30.1,
1557,1,SBT2050,2,3,,1,1529,3.40747,-2.6996,0,1101.726,30.1,
1557,1,SBT2050,2,3,,1,1533,3.40624,-2.7003,0,1104.726,30.1,
1557,1,SBT2050,2,3,,1,1537,3.40527,-2.6999,0,1107.726,30.1,
1557,1,SBT2050,2,3,,1,1541,3.404178,-2.7003,0,1110.725,30.1,
1557,1,SBT2050,2,3,,1,1545,3.40312,-2.6996,0,1113.725,30.1,
1557,1,SBT2050,2,3,,1,1549,3.401794,-2.7004,0,1116.725,30.1,
1557,1,SBT2050,2,3,,1,1553,3.401,-2.7001,0,1119.725,30.1,
1557,1,SBT2050,2,3,,1,1557,3.399772,-2.7001,0,1122.725,30.1,
1557,1,SBT2050,2,3,,1,1561,3.39861,-2.7001,0,1125.725,30.1,
1557,1,SBT2050,2,3,,1,1565,3.39786,-2.6997,0,1128.725,30.1,
1557,1,SBT2050,2,3,,1,1569,3.39642,-2.6995,0,1131.725,30.1,
1557,1,SBT2050,2,3,,1,1573,3.39529,-2.7,0,1134.725,30.1,
1557,1,SBT2050,2,3,,1,1577,3.394194,-2.7001,0,1137.725,30.1,
1557,1,SBT2050,2,3,,1,1581,3.39333,-2.7003,0,1140.725,30.1,
1557,1,SBT2050,2,3,,1,1585,3.3921,-2.7001,0,1143.725,30.1,
1557,1,SBT2050,2,3,,1,1589,3.39091,-2.7001,0,1146.725,30.1,
1557,1,SBT2050,2,3,,1,1593,3.389882,-2.6997,0,1149.725,30.1,
1557,1,SBT2050,2,3,,1,1597,3.38874,-2.6998,0,1152.725,30.1,
1557,1,SBT2050,2,3,,1,1601,3.3875,-2.7,0,1155.725,30.1,
1557,1,SBT2050,2,3,,1,1605,3.386512,-2.7,0,1158.725,30.1,
1557,1,SBT2050,2,3,,1,1609,3.38537,-2.7,0,1161.725,30.1,
1557,1,SBT2050,2,3,,1,1613,3.38442,-2.7,0,1164.725,30.1,
1557,1,SBT2050,2,3,,1,1617,3.38319,-2.6997,0,1167.725,30.1,
1557,1,SBT2050,2,3,,1,1621,3.38216,-2.7003,0,1170.724,30.1,
1557,1,SBT2050,2,3,,1,1625,3.38104,-2.7003,0,1173.724,30.1,
1557,1,SBT2050,2,3,,1,1629,3.37998,-2.7,0,1176.724,30.1,
1557,1,SBT2050,2,3,,1,1633,3.37868,-2.6998,0,1179.724,30.1,
1557,1,SBT2050,2,3,,1,1637,3.377786,-2.7,0,1182.724,30.1,
1557,1,SBT2050,2,3,,1,1641,3.37675,-2.7002,0,1185.724,30.1,
1557,1,SBT2050,2,3,,1,1645,3.37557,-2.7,0,1188.724,30.1,
1557,1,SBT2050,2,3,,1,1649,3.37426,-2.7001,0,1191.724,30.1,
1557,1,SBT2050,2,3,,1,1653,3.37327,-2.7002,0,1194.724,30.1,
1557,1,SBT2050,2,3,,1,1657,3.37205,-2.6999,0,1197.724,30.1,
1557,1,SBT2050,2,3,,1,1661,3.37111,-2.7002,0,1200.724,30.1,
1557,1,SBT2050,2,3,,1,1665,3.370006,-2.6999,0,1203.724,30.1,
1557,1,SBT2050,2,3,,1,1669,3.36882,-2.6997,0,1206.724,30.1,
1557,1,SBT2050,2,3,,1,1673,3.367728,-2.7,0,1209.724,30.1,
1557,1,SBT2050,2,3,,1,1677,3.36673,-2.7002,0,1212.724,30.1,
1557,1,SBT2050,2,3,,1,1681,3.36547,-2.7003,0,1215.724,30.2,
1557,1,SBT2050,2,3,,1,1685,3.3645,-2.6998,0,1218.723,30.2,
1557,1,SBT2050,2,3,,1,1689,3.363254,-2.7,0,1221.723,30.2,
1557,1,SBT2050,2,3,,1,1693,3.36216,-2.6999,0,1224.723,30.2,
1557,1,SBT2050,2,3,,1,1697,3.36096,-2.7003,0,1227.723,30.1,
1557,1,SBT2050,2,3,,1,1701,3.360098,-2.7,0,1230.723,30.2,
1557,1,SBT2050,2,3,,1,1705,3.35904,-2.7002,0,1233.723,30.2,
1557,1,SBT2050,2,3,,1,1709,3.35766,-2.7,0,1236.723,30.2,
1557,1,SBT2050,2,3,,1,1713,3.35672,-2.7,0,1239.723,30.2,
1557,1,SBT2050,2,3,,1,1717,3.355564,-2.7002,0,1242.723,30.2,
1557,1,SBT2050,2,3,,1,1721,3.35473,-2.7003,0,1245.723,30.2,
1557,1,SBT2050,2,3,,1,1725,3.35321,-2.7,0,1248.723,30.1,
1557,1,SBT2050,2,3,,1,1729,3.35215,-2.7,0,1251.723,30.2,
1557,1,SBT2050,2,3,,1,1733,3.351043,-2.7,0,1254.723,30.2,
1557,1,SBT2050,2,3,,1,1737,3.34996,-2.6998,0,1257.723,30.2,
1557,1,SBT2050,2,3,,1,1741,3.348909,-2.6999,0,1260.723,30.2,
1557,1,SBT2050,2,3,,1,1745,3.3477,-2.7,0,1263.723,30.2,
1557,1,SBT2050,2,3,,1,1749,3.34679,-2.6998,0,1266.723,30.2,
1557,1,SBT2050,2,3,,1,1753,3.34552,-2.7,0,1269.723,30.2,
1557,1,SBT2050,2,3,,1,1757,3.34447,-2.7002,0,1272.722,30.2,
1557,1,SBT2050,2,3,,1,1761,3.34333,-2.6996,0,1275.722,30.2,
1557,1,SBT2050,2,3,,1,1765,3.34219,-2.6997,0,1278.722,30.2,
1557,1,SBT2050,2,3,,1,1769,3.341097,-2.7,0,1281.722,30.2,
1557,1,SBT2050,2,3,,1,1773,3.33986,-2.6999,0,1284.722,30.2,
1557,1,SBT2050,2,3,,1,1777,3.33884,-2.6997,0,1287.722,30.2,
1557,1,SBT2050,2,3,,1,1781,3.33738,-2.7,0,1290.722,30.2,
1557,1,SBT2050,2,3,,1,1785,3.33637,-2.7001,0,1293.722,30.2,
1557,1,SBT2050,2,3,,1,1789,3.33541,-2.6997,0,1296.722,30.2,
1557,1,SBT2050,2,3,,1,1793,3.33426,-2.7003,0,1299.722,30.2,
1557,1,SBT2050,2,3,,1,1797,3.333059,-2.7,0,1302.722,30.2,
1557,1,SBT2050,2,3,,1,1801,3.33173,-2.7004,0,1305.722,30.2,
1557,1,SBT2050,2,3,,1,1805,3.33071,-2.6997,0,1308.722,30.2,
1557,1,SBT2050,2,3,,1,1809,3.32946,-2.7001,0,1311.722,30.2,
1557,1,SBT2050,2,3,,1,1813,3.32824,-2.7,0,1314.722,30.2,
1557,1,SBT2050,2,3,,1,1817,3.327172,-2.7,0,1317.722,30.2,
1557,1,SBT2050,2,3,,1,1821,3.3262,-2.6997,0,1320.722,30.2,
1557,1,SBT2050,2,3,,1,1825,3.32484,-2.6999,0,1323.722,30.3,
1557,1,SBT2050,2,3,,1,1829,3.32405,-2.6997,0,1326.722,30.3,
1557,1,SBT2050,2,3,,1,1833,3.32284,-2.7001,0,1329.722,30.3,
1557,1,SBT2050,2,3,,1,1837,3.32165,-2.6998,0,1332.721,30.3,
1557,1,SBT2050,2,3,,1,1841,3.320487,-2.7,0,1335.721,30.3,
1557,1,SBT2050,2,3,,1,1845,3.31925,-2.7004,0,1338.721,30.3,
1557,1,SBT2050,2,3,,1,1849,3.318147,-2.6999,0,1341.721,30.3,
1557,1,SBT2050,2,3,,1,1853,3.31675,-2.6999,0,1344.721,30.3,
1557,1,SBT2050,2,3,,1,1857,3.31574,-2.6997,0,1347.721,30.3,
1557,1,SBT2050,2,3,,1,1861,3.31475,-2.6996,0,1350.721,30.3,
1557,1,SBT2050,2,3,,1,1865,3.31358,-2.6997,0,1353.721,30.3,
1557,1,SBT2050,2,3,,1,1869,3.3125,-2.6998,0,1356.721,30.3,
1557,1,SBT2050,2,3,,1,1873,3.3111,-2.6998,0,1359.721,30.4,
1557,1,SBT2050,2,3,,1,1877,3.31017,-2.7001,0,1362.721,30.3,
1557,1,SBT2050,2,3,,1,1881,3.30894,-2.7004,0,1365.721,30.3,
1557,1,SBT2050,2,3,,1,1885,3.30759,-2.7,0,1368.721,30.4,
1557,1,SBT2050,2,3,,1,1889,3.30654,-2.7001,0,1371.721,30.4,
1557,1,SBT2050,2,3,,1,1893,3.30537,-2.6999,0,1374.721,30.4,
1557,1,SBT2050,2,3,,1,1897,3.303928,-2.7,0,1377.721,30.4,
1557,1,SBT2050,2,3,,1,1901,3.30306,-2.6999,0,1380.721,30.3,
1557,1,SBT2050,2,3,,1,1905,3.30171,-2.6994,0,1383.721,30.4,
1557,1,SBT2050,2,3,,1,1909,3.30062,-2.6999,0,1386.721,30.4,
1557,1,SBT2050,2,3,,1,1913,3.29953,-2.7004,0,1389.72,30.4,
1557,1,SBT2050,2,3,,1,1917,3.29803,-2.6997,0,1392.72,30.4,
1557,1,SBT2050,2,3,,1,1921,3.2969,-2.6999,0,1395.72,30.4,
1557,1,SBT2050,2,3,,1,1925,3.2956,-2.7002,0,1398.72,30.4,
1557,1,SBT2050,2,3,,1,1929,3.29465,-2.7,0,1401.72,30.4,
1557,1,SBT2050,2,3,,1,1933,3.293385,-2.7,0,1404.72,30.4,
1557,1,SBT2050,2,3,,1,1937,3.292484,-2.7004,0,1407.72,30.4,
1557,1,SBT2050,2,3,,1,1941,3.291,-2.6999,0,1410.72,30.4,
1557,1,SBT2050,2,3,,1,1945,3.28958,-2.6999,0,1413.72,30.4,
1557,1,SBT2050,2,3,,1,1949,3.28859,-2.6996,0,1416.72,30.4,
1557,1,SBT2050,2,3,,1,1953,3.287455,-2.7003,0,1419.72,30.4,
1557,1,SBT2050,2,3,,1,1957,3.28611,-2.6999,0,1422.72,30.4,
1557,1,SBT2050,2,3,,1,1961,3.28502,-2.6994,0,1425.72,30.4,
1557,1,SBT2050,2,3,,1,1965,3.28384,-2.7002,0,1428.72,30.4,
1557,1,SBT2050,2,3,,1,1969,3.28252,-2.6999,0,1431.719,30.4,
1557,1,SBT2050,2,3,,1,1973,3.28119,-2.7002,0,1434.719,30.4,
1557,1,SBT2050,2,3,,1,1977,3.28008,-2.7002,0,1437.719,30.4,
1557,1,SBT2050,2,3,,1,1981,3.2789,-2.7002,0,1440.719,30.4,
1557,1,SBT2050,2,3,,1,1985,3.27756,-2.7,0,1443.719,30.4,
1557,1,SBT2050,2,3,,1,1989,3.27635,-2.7,0,1446.719,30.4,
1557,1,SBT2050,2,3,,1,1993,3.27515,-2.6999,0,1449.719,30.4,
1557,1,SBT2050,2,3,,1,1997,3.27406,-2.6997,0,1452.719,30.5,
1557,1,SBT2050,2,3,,1,2001,3.27291,-2.6999,0,1455.719,30.5,
1557,1,SBT2050,2,3,,1,2005,3.27126,-2.6997,0,1458.719,30.5,
1557,1,SBT2050,2,3,,1,2009,3.270254,-2.7,0,1461.719,30.5,
1557,1,SBT2050,2,3,,1,2013,3.268803,-2.6997,0,1464.719,30.5,
1557,1,SBT2050,2,3,,1,2017,3.26755,-2.6999,0,1467.719,30.4,
1557,1,SBT2050,2,3,,1,2021,3.26606,-2.7,0,1470.719,30.5,
1557,1,SBT2050,2,3,,1,2025,3.264923,-2.7,0,1473.719,30.5,
1557,1,SBT2050,2,3,,1,2029,3.26369,-2.6997,0,1476.718,30.5,
1557,1,SBT2050,2,3,,1,2033,3.26228,-2.6998,0,1479.718,30.5,
1557,1,SBT2050,2,3,,1,2037,3.26108,-2.6998,0,1482.718,30.5,
1557,1,SBT2050,2,3,,1,2041,3.25968,-2.6996,0,1485.718,30.5,
1557,1,SBT2050,2,3,,1,2045,3.258402,-2.7,0,1488.718,30.5,
1557,1,SBT2050,2,3,,1,2049,3.25696,-2.7,0,1491.718,30.5,
1557,1,SBT2050,2,3,,1,2053,3.255792,-2.7001,0,1494.718,30.5,
1557,1,SBT2050,2,3,,1,2057,3.25461,-2.7001,0,1497.718,30.5,
1557,1,SBT2050,2,3,,1,2061,3.25302,-2.6996,0,1500.718,30.5,
1557,1,SBT2050,2,3,,1,2065,3.25188,-2.7,0,1503.718,30.5,
1557,1,SBT2050,2,3,,1,2069,3.25048,-2.7,0,1506.718,30.5,
1557,1,SBT2050,2,3,,1,2073,3.24913,-2.6998,0,1509.718,30.6,
1557,1,SBT2050,2,3,,1,2077,3.24788,-2.7001,0,1512.718,30.5,
1557,1,SBT2050,2,3,,1,2081,3.24655,-2.7002,0,1515.718,30.5,
1557,1,SBT2050,2,3,,1,2085,3.24515,-2.7002,0,1518.718,30.6,
1557,1,SBT2050,2,3,,1,2089,3.24383,-2.7002,0,1521.718,30.6,
1557,1,SBT2050,2,3,,1,2093,3.24249,-2.6999,0,1524.718,30.6,
1557,1,SBT2050,2,3,,1,2097,3.24116,-2.7,0,1527.718,30.6,
1557,1,SBT2050,2,3,,1,2101,3.239639,-2.7003,0,1530.718,30.6,
1557,1,SBT2050,2,3,,1,2105,3.23822,-2.6999,0,1533.717,30.6,
1557,1,SBT2050,2,3,,1,2109,3.23689,-2.6997,0,1536.717,30.6,
1557,1,SBT2050,2,3,,1,2113,3.235432,-2.6999,0,1539.717,30.6,
1557,1,SBT2050,2,3,,1,2117,3.23419,-2.6999,0,1542.717,30.6,
1557,1,SBT2050,2,3,,1,2121,3.232958,-2.7001,0,1545.717,30.6,
1557,1,SBT2050,2,3,,1,2125,3.23167,-2.7,0,1548.717,30.6,
1557,1,SBT2050,2,3,,1,2129,3.22997,-2.7,0,1551.717,30.6,
1557,1,SBT2050,2,3,,1,2133,3.22859,-2.7004,0,1554.717,30.6,
1557,1,SBT2050,2,3,,1,2137,3.22755,-2.6999,0,1557.717,30.7,
1557,1,SBT2050,2,3,,1,2141,3.22578,-2.6999,0,1560.717,30.7,
1557,1,SBT2050,2,3,,1,2145,3.22472,-2.7,0,1563.717,30.7,
1557,1,SBT2050,2,3,,1,2149,3.22321,-2.7,0,1566.717,30.7,
1557,1,SBT2050,2,3,,1,2153,3.221695,-2.7003,0,1569.717,30.7,
1557,1,SBT2050,2,3,,1,2157,3.22051,-2.7002,0,1572.717,30.7,
1557,1,SBT2050,2,3,,1,2161,3.219028,-2.7006,0,1575.717,30.7,
1557,1,SBT2050,2,3,,1,2165,3.2177,-2.6997,0,1578.717,30.7,
1557,1,SBT2050,2,3,,1,2169,3.21624,-2.6999,0,1581.717,30.7,
1557,1,SBT2050,2,3,,1,2173,3.21489,-2.7,0,1584.717,30.7,
1557,1,SBT2050,2,3,,1,2177,3.2135,-2.6997,0,1587.716,30.7,
1557,1,SBT2050,2,3,,1,2181,3.211938,-2.6997,0,1590.716,30.8,
1557,1,SBT2050,2,3,,1,2185,3.21061,-2.7001,0,1593.716,30.8,
1557,1,SBT2050,2,3,,1,2189,3.20921,-2.7,0,1596.716,30.8,
1557,1,SBT2050,2,3,,1,2193,3.20754,-2.7,0,1599.716,30.8,
1557,1,SBT2050,2,3,,1,2197,3.20604,-2.6995,0,1602.716,30.8,
1557,1,SBT2050,2,3,,1,2201,3.204474,-2.7,0,1605.716,30.8,
1557,1,SBT2050,2,3,,1,2205,3.202757,-2.7004,0,1608.716,30.8,
1557,1,SBT2050,2,3,,1,2209,3.201663,-2.7003,0,1611.716,30.8,
1557,1,SBT2050,2,3,,1,2213,3.20013,-2.7001,0,1614.716,30.9,
1557,1,SBT2050,2,3,,1,2217,3.19832,-2.6997,0,1617.716,30.8,
1557,1,SBT2050,2,3,,1,2221,3.19683,-2.7,0,1620.716,30.9,
1557,1,SBT2050,2,3,,1,2225,3.19522,-2.6998,0,1623.716,30.9,
1557,1,SBT2050,2,3,,1,2229,3.19386,-2.7,0,1626.716,30.9,
1557,1,SBT2050,2,3,,1,2233,3.19224,-2.7,0,1629.716,30.9,
1557,1,SBT2050,2,3,,1,2237,3.19065,-2.6997,0,1632.716,30.9,
1557,1,SBT2050,2,3,,1,2241,3.189053,-2.6997,0,1635.716,30.9,
1557,1,SBT2050,2,3,,1,2245,3.18757,-2.6999,0,1638.716,30.9,
1557,1,SBT2050,2,3,,1,2249,3.18592,-2.6999,0,1641.716,30.9,
1557,1,SBT2050,2,3,,1,2253,3.18444,-2.6997,0,1644.715,30.9,
1557,1,SBT2050,2,3,,1,2257,3.18295,-2.7001,0,1647.715,30.9,
1557,1,SBT2050,2,3,,1,2261,3.181329,-2.6996,0,1650.715,30.9,
1557,1,SBT2050,2,3,,1,2265,3.179601,-2.6999,0,1653.715,31,
1557,1,SBT2050,2,3,,1,2269,3.17794,-2.6997,0,1656.715,30.9,
1557,1,SBT2050,2,3,,1,2273,3.17632,-2.7,0,1659.715,31,
1557,1,SBT2050,2,3,,1,2277,3.17465,-2.6996,0,1662.715,31,
1557,1,SBT2050,2,3,,1,2281,3.17295,-2.7,0,1665.715,31,
1557,1,SBT2050,2,3,,1,2285,3.171266,-2.7,0,1668.715,31,
1557,1,SBT2050,2,3,,1,2289,3.169955,-2.7001,0,1671.715,31,
1557,1,SBT2050,2,3,,1,2293,3.16799,-2.7001,0,1674.715,31,
1557,1,SBT2050,2,3,,1,2297,3.16637,-2.6999,0,1677.715,31,
1557,1,SBT2050,2,3,,1,2301,3.16465,-2.7002,0,1680.715,31,
1557,1,SBT2050,2,3,,1,2305,3.162964,-2.6999,0,1683.715,31.1,
1557,1,SBT2050,2,3,,1,2309,3.16124,-2.6997,0,1686.715,31.1,
1557,1,SBT2050,2,3,,1,2313,3.15944,-2.7001,0,1689.715,31,
1557,1,SBT2050,2,3,,1,2317,3.15773,-2.6998,0,1692.715,31,
1557,1,SBT2050,2,3,,1,2321,3.15592,-2.6998,0,1695.715,31,
1557,1,SBT2050,2,3,,1,2325,3.15416,-2.7,0,1698.715,31.1,
1557,1,SBT2050,2,3,,1,2329,3.1525,-2.7001,0,1701.714,31.1,
1557,1,SBT2050,2,3,,1,2333,3.15063,-2.7001,0,1704.714,31.1,
1557,1,SBT2050,2,3,,1,2337,3.14868,-2.7003,0,1707.714,31.1,
1557,1,SBT2050,2,3,,1,2341,3.14706,-2.7,0,1710.714,31.1,
1557,1,SBT2050,2,3,,1,2345,3.14524,-2.7,0,1713.714,31.2,
1557,1,SBT2050,2,3,,1,2349,3.143533,-2.7,0,1716.714,31.2,
1557,1,SBT2050,2,3,,1,2353,3.14183,-2.7003,0,1719.714,31.2,
1557,1,SBT2050,2,3,,1,2357,3.1401,-2.7,0,1722.714,31.2,
1557,1,SBT2050,2,3,,1,2361,3.13798,-2.7,0,1725.714,31.2,
1557,1,SBT2050,2,3,,1,2365,3.13631,-2.6999,0,1728.714,31.2,
1557,1,SBT2050,2,3,,1,2369,3.13439,-2.7003,0,1731.714,31.2,
1557,1,SBT2050,2,3,,1,2373,3.132435,-2.6997,0,1734.714,31.2,
1557,1,SBT2050,2,3,,1,2377,3.13077,-2.7,0,1737.714,31.2,
1557,1,SBT2050,2,3,,1,2381,3.12896,-2.6999,0,1740.714,31.2,
1557,1,SBT2050,2,3,,1,2385,3.12707,-2.6997,0,1743.714,31.3,
1557,1,SBT2050,2,3,,1,2389,3.12493,-2.7002,0,1746.714,31.3,
1557,1,SBT2050,2,3,,1,2393,3.12316,-2.7002,0,1749.714,31.3,
1557,1,SBT2050,2,3,,1,2397,3.12114,-2.6999,0,1752.714,31.3,
1557,1,SBT2050,2,3,,1,2401,3.11919,-2.6999,0,1755.714,31.3,
1557,1,SBT2050,2,3,,1,2405,3.11739,-2.7003,0,1758.713,31.3,
1557,1,SBT2050,2,3,,1,2409,3.11519,-2.6996,0,1761.713,31.3,
1557,1,SBT2050,2,3,,1,2413,3.11313,-2.7001,0,1764.713,31.3,
1557,1,SBT2050,2,3,,1,2417,3.11116,-2.6999,0,1767.713,31.4,
1557,1,SBT2050,2,3,,1,2421,3.109078,-2.6994,0,1770.713,31.4,
1557,1,SBT2050,2,3,,1,2425,3.10713,-2.6997,0,1773.713,31.4,
1557,1,SBT2050,2,3,,1,2429,3.10537,-2.6997,0,1776.713,31.4,
1557,1,SBT2050,2,3,,1,2433,3.10319,-2.6999,0,1779.713,31.4,
1557,1,SBT2050,2,3,,1,2437,3.10112,-2.6999,0,1782.713,31.4,
1557,1,SBT2050,2,3,,1,2441,3.09895,-2.7002,0,1785.713,31.5,
1557,1,SBT2050,2,3,,1,2445,3.09717,-2.7,0,1788.713,31.5,
1557,1,SBT2050,2,3,,1,2449,3.09475,-2.6999,0,1791.713,31.5,
1557,1,SBT2050,2,3,,1,2453,3.092785,-2.6999,0,1794.713,31.5,
1557,1,SBT2050,2,3,,1,2457,3.090658,-2.7,0,1797.713,31.5,
1557,1,SBT2050,2,3,,1,2461,3.088592,-2.6997,0,1800.713,31.6,
1557,1,SBT2050,2,3,,1,2465,3.08639,-2.7003,0,1803.712,31.6,
1557,1,SBT2050,2,3,,1,2469,3.08429,-2.6997,0,1806.712,31.5,
1557,1,SBT2050,2,3,,1,2473,3.082075,-2.6998,0,1809.712,31.6,
1557,1,SBT2050,2,3,,1,2477,3.07966,-2.7003,0,1812.712,31.6,
1557,1,SBT2050,2,3,,1,2481,3.077516,-2.7003,0,1815.712,31.6,
1557,1,SBT2050,2,3,,1,2485,3.07543,-2.6997,0,1818.712,31.6,
1557,1,SBT2050,2,3,,1,2489,3.07334,-2.7001,0,1821.712,31.6,
1557,1,SBT2050,2,3,,1,2493,3.07061,-2.6999,0,1824.712,31.6,
1557,1,SBT2050,2,3,,1,2497,3.06842,-2.7001,0,1827.712,31.6,
1557,1,SBT2050,2,3,,1,2501,3.06605,-2.7002,0,1830.712,31.6,
1557,1,SBT2050,2,3,,1,2505,3.06396,-2.6999,0,1833.712,31.7,
1557,1,SBT2050,2,3,,1,2509,3.06159,-2.6998,0,1836.712,31.7,
1557,1,SBT2050,2,3,,1,2513,3.059334,-2.7,0,1839.712,31.7,
1557,1,SBT2050,2,3,,1,2517,3.05669,-2.7,0,1842.712,31.7,
1557,1,SBT2050,2,3,,1,2521,3.05442,-2.6997,0,1845.712,31.7,
1557,1,SBT2050,2,3,,1,2525,3.052111,-2.7001,0,1848.712,31.8,
1557,1,SBT2050,2,3,,1,2529,3.0498,-2.7,0,1851.712,31.8,
1557,1,SBT2050,2,3,,1,2533,3.0473,-2.7,0,1854.712,31.8,
1557,1,SBT2050,2,3,,1,2537,3.04508,-2.7001,0,1857.712,31.8,
1557,1,SBT2050,2,3,,1,2541,3.04243,-2.6997,0,1860.712,31.8,
1557,1,SBT2050,2,3,,1,2545,3.03991,-2.7003,0,1863.712,31.9,
1557,1,SBT2050,2,3,,1,2549,3.037497,-2.6998,0,1866.711,31.9,
1557,1,SBT2050,2,3,,1,2553,3.03488,-2.6995,0,1869.711,31.9,
1557,1,SBT2050,2,3,,1,2557,3.03224,-2.6998,0,1872.711,31.9,
1557,1,SBT2050,2,3,,1,2561,3.02982,-2.6997,0,1875.711,31.9,
1557,1,SBT2050,2,3,,1,2565,3.027216,-2.7001,0,1878.711,31.9,
1557,1,SBT2050,2,3,,1,2569,3.02444,-2.6996,0,1881.711,31.9,
1557,1,SBT2050,2,3,,1,2573,3.02174,-2.7003,0,1884.711,32,
1557,1,SBT2050,2,3,,1,2577,3.01912,-2.7002,0,1887.711,32,
1557,1,SBT2050,2,3,,1,2581,3.0163,-2.7,0,1890.711,32,
1557,1,SBT2050,2,3,,1,2585,3.0136,-2.7002,0,1893.711,32,
1557,1,SBT2050,2,3,,1,2589,3.01104,-2.6996,0,1896.711,32,
1557,1,SBT2050,2,3,,1,2593,3.00819,-2.7004,0,1899.711,32.1,
1557,1,SBT2050,2,3,,1,2597,3.00557,-2.7,0,1902.711,32.1,
1557,1,SBT2050,2,3,,1,2601,3.00279,-2.6999,0,1905.711,32.1,
1557,1,SBT2050,2,3,,1,2605,2.99999,-2.6997,0,1908.711,32.1,
1557,1,SBT2050,2,3,,1,2609,2.99707,-2.7002,0,1911.711,32.1,
1557,1,SBT2050,2,3,,1,2613,2.99448,-2.7002,0,1914.711,32.1,
1557,1,SBT2050,2,3,,1,2617,2.99145,-2.6996,0,1917.711,32.2,
1557,1,SBT2050,2,3,,1,2621,2.98853,-2.7001,0,1920.71,32.2,
1557,1,SBT2050,2,3,,1,2625,2.98561,-2.7002,0,1923.71,32.2,
1557,1,SBT2050,2,3,,1,2629,2.982789,-2.7004,0,1926.71,32.2,
1557,1,SBT2050,2,3,,1,2633,2.97963,-2.7002,0,1929.71,32.3,
1557,1,SBT2050,2,3,,1,2637,2.97673,-2.6997,0,1932.71,32.3,
1557,1,SBT2050,2,3,,1,2641,2.97386,-2.6999,0,1935.71,32.3,
1557,1,SBT2050,2,3,,1,2645,2.970691,-2.7002,0,1938.71,32.3,
1557,1,SBT2050,2,3,,1,2649,2.96762,-2.6999,0,1941.71,32.3,
1557,1,SBT2050,2,3,,1,2653,2.96475,-2.6997,0,1944.71,32.4,
1557,1,SBT2050,2,3,,1,2657,2.96151,-2.6999,0,1947.71,32.4,
1557,1,SBT2050,2,3,,1,2661,2.9582,-2.6998,0,1950.71,32.4,
1557,1,SBT2050,2,3,,1,2665,2.95483,-2.6996,0,1953.71,32.5,
1557,1,SBT2050,2,3,,1,2669,2.95171,-2.7,0,1956.71,32.5,
1557,1,SBT2050,2,3,,1,2673,2.94837,-2.6999,0,1959.71,32.5,
1557,1,SBT2050,2,3,,1,2677,2.94499,-2.6997,0,1962.71,32.5,
1557,1,SBT2050,2,3,,1,2681,2.94181,-2.7002,0,1965.71,32.5,
1557,1,SBT2050,2,3,,1,2685,2.93819,-2.7,0,1968.709,32.5,
1557,1,SBT2050,2,3,,1,2689,2.93473,-2.7,0,1971.709,32.5,
1557,1,SBT2050,2,3,,1,2693,2.93134,-2.6999,0,1974.709,32.6,
1557,1,SBT2050,2,3,,1,2697,2.9276,-2.7,0,1977.709,32.6,
1557,1,SBT2050,2,3,,1,2701,2.92425,-2.6999,0,1980.709,32.6,
1557,1,SBT2050,2,3,,1,2705,2.920537,-2.6999,0,1983.709,32.6,
1557,1,SBT2050,2,3,,1,2709,2.91671,-2.7,0,1986.709,32.7,
1557,1,SBT2050,2,3,,1,2713,2.91284,-2.7,0,1989.709,32.7,
1557,1,SBT2050,2,3,,1,2717,2.90921,-2.7002,0,1992.709,32.7,
1557,1,SBT2050,2,3,,1,2721,2.905376,-2.6996,0,1995.709,32.7,
1557,1,SBT2050,2,3,,1,2725,2.90141,-2.6999,0,1998.709,32.8,
1557,1,SBT2050,2,3,,1,2729,2.89727,-2.7,0,2001.709,32.8,
1557,1,SBT2050,2,3,,1,2733,2.89344,-2.6999,0,2004.709,32.8,
1557,1,SBT2050,2,3,,1,2737,2.88921,-2.7002,0,2007.709,32.8,
1557,1,SBT2050,2,3,,1,2741,2.885293,-2.6998,0,2010.709,32.8,
1557,1,SBT2050,2,3,,1,2745,2.881,-2.7,0,2013.709,32.9,
1557,1,SBT2050,2,3,,1,2749,2.87689,-2.6998,0,2016.709,32.9,
1557,1,SBT2050,2,3,,1,2753,2.87253,-2.7004,0,2019.708,33,
1557,1,SBT2050,2,3,,1,2757,2.86831,-2.7003,0,2022.708,33,
1557,1,SBT2050,2,3,,1,2761,2.86372,-2.7006,0,2025.708,33,
1557,1,SBT2050,2,3,,1,2765,2.85925,-2.6998,0,2028.708,33,
1557,1,SBT2050,2,3,,1,2769,2.85501,-2.6998,0,2031.708,33.1,
1557,1,SBT2050,2,3,,1,2773,2.85012,-2.7001,0,2034.708,33.1,
1557,1,SBT2050,2,3,,1,2777,2.84562,-2.7001,0,2037.708,33.1,
1557,1,SBT2050,2,3,,1,2781,2.84081,-2.7,0,2040.708,33.1,
1557,1,SBT2050,2,3,,1,2785,2.83585,-2.7001,0,2043.708,33.2,
1557,1,SBT2050,2,3,,1,2789,2.83089,-2.6998,0,2046.708,33.2,
1557,1,SBT2050,2,3,,1,2793,2.825686,-2.6998,0,2049.708,33.3,
1557,1,SBT2050,2,3,,1,2797,2.820574,-2.6998,0,2052.708,33.3,
1557,1,SBT2050,2,3,,1,2801,2.81532,-2.6997,0,2055.708,33.3,
1557,1,SBT2050,2,3,,1,2805,2.81016,-2.7003,0,2058.708,33.3,
1557,1,SBT2050,2,3,,1,2809,2.804818,-2.7,0,2061.708,33.4,
1557,1,SBT2050,2,3,,1,2813,2.79925,-2.7,0,2064.708,33.4,
1557,1,SBT2050,2,3,,1,2817,2.79341,-2.6999,0,2067.708,33.5,
1557,1,SBT2050,2,3,,1,2821,2.78794,-2.6998,0,2070.708,33.5,
1557,1,SBT2050,2,3,,1,2825,2.782249,-2.7001,0,2073.708,33.5,
1557,1,SBT2050,2,3,,1,2829,2.77646,-2.6997,0,2076.708,33.6,
1557,1,SBT2050,2,3,,1,2833,2.77037,-2.7002,0,2079.708,33.6,
1557,1,SBT2050,2,3,,1,2837,2.76427,-2.7001,0,2082.708,33.6,
1557,1,SBT2050,2,3,,1,2841,2.758231,-2.6997,0,2085.708,33.7,
1557,1,SBT2050,2,3,,1,2845,2.75199,-2.6999,0,2088.707,33.7,
1557,1,SBT2050,2,3,,1,2849,2.74588,-2.7001,0,2091.707,33.8,
1557,1,SBT2050,2,3,,1,2853,2.73921,-2.6999,0,2094.707,33.8,
1557,1,SBT2050,2,3,,1,2857,2.73276,-2.7003,0,2097.707,33.9,
1557,1,SBT2050,2,3,,1,2861,2.72601,-2.7,0,2100.707,33.9,
1557,1,SBT2050,2,3,,1,2865,2.7192,-2.6998,0,2103.707,34,
1557,1,SBT2050,2,3,,1,2869,2.71226,-2.7001,0,2106.707,34,
1557,1,SBT2050,2,3,,1,2873,2.70525,-2.7001,0,2109.707,34.1,
1557,1,SBT2050,2,3,,1,2877,2.697782,-2.7001,0,2112.707,34.1,
1557,1,SBT2050,2,3,,1,2881,2.69054,-2.6996,0,2115.707,34.1,
1557,1,SBT2050,2,3,,1,2885,2.68292,-2.7001,0,2118.707,34.2,
1557,1,SBT2050,2,3,,1,2889,2.67518,-2.7002,0,2121.707,34.2,
1557,1,SBT2050,2,3,,1,2893,2.66712,-2.7001,0,2124.707,34.3,
1557,1,SBT2050,2,3,,1,2897,2.65911,-2.6998,0,2127.707,34.3,
1557,1,SBT2050,2,3,,1,2901,2.650529,-2.7,0,2130.707,34.3,
1557,1,SBT2050,2,3,,1,2905,2.64198,-2.7001,0,2133.707,34.4,
1557,1,SBT2050,2,3,,1,2909,2.632993,-2.7,0,2136.706,34.5,
1557,1,SBT2050,2,3,,1,2913,2.62372,-2.6998,0,2139.706,34.5,
1557,1,SBT2050,2,3,,1,2917,2.614264,-2.7,0,2142.706,34.6,
1557,1,SBT2050,2,3,,1,2921,2.604598,-2.7001,0,2145.706,34.6,
1557,1,SBT2050,2,3,,1,2925,2.59461,-2.6996,0,2148.706,34.6,
1557,1,SBT2050,2,3,,1,2929,2.584073,-2.6999,0,2151.706,34.7,
1557,1,SBT2050,2,3,,1,2933,2.573124,-2.6999,0,2154.706,34.8,
1557,1,SBT2050,2,3,,1,2937,2.561826,-2.7001,0,2157.706,34.8,
1557,1,SBT2050,2,3,,1,2941,2.550315,-2.6998,0,2160.706,34.9,
1557,1,SBT2050,2,3,,1,2945,2.53788,-2.6997,0,2163.706,35,
1557,1,SBT2050,2,3,,1,2949,2.52537,-2.6999,0,2166.706,35,
1557,1,SBT2050,2,3,,1,2953,2.51214,-2.7001,0,2169.706,35.1,
1557,1,SBT2050,2,3,,1,2956.518,2.499555,-2.7007,0,2172.345,,
1557,1,SBT2050,2,3,,2,2960,2.9762,0,0,2172.345,35.2,
1557,1,SBT2050,2,3,,2,2964,3.08952,0,0,2172.345,35.2,
1557,1,SBT2050,2,3,,2,2968,3.13889,0,0,2172.345,35.2,
1557,1,SBT2050,2,3,,2,2972,3.16897,0,0,2172.345,35.2,
1557,1,SBT2050,2,3,,2,2976,3.19002,0,0,2172.345,35,
1557,1,SBT2050,2,3,,2,2980,3.20668,0,0,2172.345,34.9,
1557,1,SBT2050,2,3,,2,2984,3.21987,0,0,2172.345,34.8,
1557,1,SBT2050,2,3,,2,2988,3.23136,0,0,2172.345,34.7,
1557,1,SBT2050,2,3,,2,2992,3.24139,0,0,2172.345,34.6,
1557,1,SBT2050,2,3,,2,2996,3.24997,0,0,2172.345,34.5,
1557,1,SBT2050,2,3,,2,3000,3.25768,0,0,2172.345,34.4,
1557,1,SBT2050,2,3,,2,3004,3.26432,0,0,2172.345,34.3,
1557,1,SBT2050,2,3,,2,3008,3.2707,0,0,2172.345,34.1,
1557,1,SBT2050,2,3,,2,3012,3.27618,0,0,2172.345,34,
1557,1,SBT2050,2,3,,2,3016,3.281564,0,0,2172.345,33.9,
1557,1,SBT2050,2,3,,2,3016.518,3.28026,-0.0001,0,2172.345,,