File: ORRG/Test1576.csv
Request Year:,2018,,,,,,,,,,,,
Test:,1576,,,,,,,,,,,,
Test Description:,,,,,,,,,,,,,
TestRegime Name:,Dchg_1C,,,,,,,,,,,,
TestRegime Suffix:,SHP_LC,,,,,,,,,,,,
TestRegime CellSize:,18650,,,,,,,,,,,,
TestRegime Version:,1,,,,,,,,,,,,
Number Of Cells:,1,,,,,,,,,,,,
LotID:,,,,,,,,,,,,,
Lot Description:,,,,,,,,,,,,,
Date Made:,1/21/2003 12:00 AM,,,,,,,,,,,,
Origin:,Other,,,,,,,,,,,,
Requestor:,Admin,,,,,,,,,,,,
Product ID:,Default product,,,,,,,,,,,,
Storage Temp:,R.T./AMB,,,,,,,,,,,,
Storage Delay:,0 days,,,,,,,,,,,,
Test Temp:,R.T./AMB,,,,,,,,,,,,
Start Time:,4/27/2018 9:06 PM,,,,,,,,,,,,
End Time:,4/27/2018 9:55 PM,,,,,,,,,,,,
Operator Instructions:,,,,,,,,,,,,,
Test,Cell,Rack,Shelf,Position,Cell ID,Step,Total Time (Seconds),Voltage (V),Current (A),Charge Capacity (mAh),Discharge Capacity (mAh),TC1 (Â°C),
1576,1,SBT2050,2,3,,0,1,4.111568,0,0,0,32.1,
1576,1,SBT2050,2,3,,0,5,4.11073,0,0,0,32.1,
1576,1,SBT2050,2,3,,0,9,4.109924,0,0,0,32.1,
1576,1,SBT2050,2,3,,0,13,4.10902,0,0,0,32.1,
1576,1,SBT2050,2,3,,0,17,4.1079,0,0,0,32.1,
1576,1,SBT2050,2,3,,0,21,4.10729,0,0,0,32.1,
1576,1,SBT2050,2,3,,0,25,4.10653,0,0,0,32,
1576,1,SBT2050,2,3,,0,29,4.10524,0,0,0,32.1,
1576,1,SBT2050,2,3,,0,33,4.10468,0,0,0,32.1,
1576,1,SBT2050,2,3,,0,37,4.1038,0,0,0,32.1,
1576,1,SBT2050,2,3,,0,41,4.10326,0,0,0,32.1,
1576,1,SBT2050,2,3,,0,45,4.1022,0,0,0,32,
1576,1,SBT2050,2,3,,0,49,4.10147,0,0,0,32,
1576,1,SBT2050,2,3,,0,53,4.10077,0,0,0,32,
1576,1,SBT2050,2,3,,0,57,4.09984,0,0,0,32,
1576,1,SBT2050,2,3,,1,61,3.93416,-2.7,0,0.749,32.1,
1576,1,SBT2050,2,3,,1,65,3.91172,-2.7002,0,3.749,32.1,
1576,1,SBT2050,2,3,,1,69,3.89889,-2.6999,0,6.749,32,
1576,1,SBT2050,2,3,,1,73,3.88908,-2.6999,0,9.749,32.1,
1576,1,SBT2050,2,3,,1,77,3.88098,-2.7001,0,12.749,32.1,
1576,1,SBT2050,2,3,,1,81,3.873784,-2.7001,0,15.749,32.2,
1576,1,SBT2050,2,3,,1,85,3.86797,-2.7001,0,18.748,32.2,
1576,1,SBT2050,2,3,,1,89,3.86307,-2.6999,0,21.748,32.1,
1576,1,SBT2050,2,3,,1,93,3.858116,-2.6999,0,24.748,32.2,
1576,1,SBT2050,2,3,,1,97,3.85379,-2.7001,0,27.748,32.2,
1576,1,SBT2050,2,3,,1,101,3.84997,-2.7,0,30.748,32.3,
1576,1,SBT2050,2,3,,1,105,3.846388,-2.6998,0,33.748,32.2,
1576,1,SBT2050,2,3,,1,109,3.84287,-2.6999,0,36.748,32.2,
1576,1,SBT2050,2,3,,1,113,3.83976,-2.6999,0,39.748,32.2,
1576,1,SBT2050,2,3,,1,117,3.836788,-2.6999,0,42.748,32.2,
1576,1,SBT2050,2,3,,1,121,3.83383,-2.7003,0,45.748,32.2,
1576,1,SBT2050,2,3,,1,125,3.8312,-2.6998,0,48.748,32.2,
1576,1,SBT2050,2,3,,1,129,3.82872,-2.7001,0,51.748,32.2,
1576,1,SBT2050,2,3,,1,133,3.826484,-2.6999,0,54.748,32.2,
1576,1,SBT2050,2,3,,1,137,3.82423,-2.7001,0,57.748,32.2,
1576,1,SBT2050,2,3,,1,141,3.82204,-2.7001,0,60.748,32.2,
1576,1,SBT2050,2,3,,1,145,3.81972,-2.7001,0,63.748,32.2,
1576,1,SBT2050,2,3,,1,149,3.81766,-2.7001,0,66.748,32.1,
1576,1,SBT2050,2,3,,1,153,3.81557,-2.6999,0,69.748,32.1,
1576,1,SBT2050,2,3,,1,157,3.81378,-2.6996,0,72.748,32.1,
1576,1,SBT2050,2,3,,1,161,3.81164,-2.6998,0,75.748,32.1,
1576,1,SBT2050,2,3,,1,165,3.80997,-2.6996,0,78.748,32,
1576,1,SBT2050,2,3,,1,169,3.80816,-2.7,0,81.748,32,
1576,1,SBT2050,2,3,,1,173,3.80629,-2.6998,0,84.747,32,
1576,1,SBT2050,2,3,,1,177,3.80451,-2.7001,0,87.747,32,
1576,1,SBT2050,2,3,,1,181,3.802792,-2.7001,0,90.747,32,
1576,1,SBT2050,2,3,,1,185,3.80116,-2.7,0,93.747,31.9,
1576,1,SBT2050,2,3,,1,189,3.79941,-2.7,0,96.747,31.9,
1576,1,SBT2050,2,3,,1,193,3.79776,-2.7,0,99.747,31.9,
1576,1,SBT2050,2,3,,1,197,3.79615,-2.7001,0,102.747,31.8,
1576,1,SBT2050,2,3,,1,201,3.79468,-2.7001,0,105.747,31.8,
1576,1,SBT2050,2,3,,1,205,3.79306,-2.6995,0,108.747,31.8,
1576,1,SBT2050,2,3,,1,209,3.79156,-2.6997,0,111.747,31.8,
1576,1,SBT2050,2,3,,1,213,3.79019,-2.7003,0,114.747,31.8,
1576,1,SBT2050,2,3,,1,217,3.78842,-2.6998,0,117.747,31.7,
1576,1,SBT2050,2,3,,1,221,3.78701,-2.7003,0,120.747,31.7,
1576,1,SBT2050,2,3,,1,225,3.7854,-2.7,0,123.747,31.7,
1576,1,SBT2050,2,3,,1,229,3.78404,-2.6998,0,126.747,31.7,
1576,1,SBT2050,2,3,,1,233,3.782486,-2.7005,0,129.747,31.6,
1576,1,SBT2050,2,3,,1,237,3.780964,-2.6998,0,132.747,31.6,
1576,1,SBT2050,2,3,,1,241,3.77956,-2.7001,0,135.747,31.6,
1576,1,SBT2050,2,3,,1,245,3.77821,-2.7001,0,138.747,31.5,
1576,1,SBT2050,2,3,,1,249,3.77665,-2.6997,0,141.746,31.5,
1576,1,SBT2050,2,3,,1,253,3.77531,-2.6997,0,144.746,31.5,
1576,1,SBT2050,2,3,,1,257,3.77361,-2.7001,0,147.746,31.5,
1576,1,SBT2050,2,3,,1,261,3.77223,-2.6997,0,150.746,31.4,
1576,1,SBT2050,2,3,,1,265,3.77098,-2.7001,0,153.746,31.4,
1576,1,SBT2050,2,3,,1,269,3.76929,-2.7003,0,156.746,31.4,
1576,1,SBT2050,2,3,,1,273,3.767824,-2.7,0,159.746,31.3,
1576,1,SBT2050,2,3,,1,277,3.76654,-2.6998,0,162.746,31.3,
1576,1,SBT2050,2,3,,1,281,3.76529,-2.7003,0,165.746,31.3,
1576,1,SBT2050,2,3,,1,285,3.76399,-2.7001,0,168.746,31.3,
1576,1,SBT2050,2,3,,1,289,3.76228,-2.7003,0,171.746,31.3,
1576,1,SBT2050,2,3,,1,293,3.76111,-2.7,0,174.746,31.2,
1576,1,SBT2050,2,3,,1,297,3.75964,-2.7003,0,177.746,31.2,
1576,1,SBT2050,2,3,,1,301,3.75809,-2.7,0,180.746,31.1,
1576,1,SBT2050,2,3,,1,305,3.75656,-2.7001,0,183.745,31.1,
1576,1,SBT2050,2,3,,1,309,3.75538,-2.7002,0,186.745,31.1,
1576,1,SBT2050,2,3,,1,313,3.75429,-2.7001,0,189.745,31.1,
1576,1,SBT2050,2,3,,1,317,3.752512,-2.6998,0,192.745,31,
1576,1,SBT2050,2,3,,1,321,3.75129,-2.7001,0,195.745,31,
1576,1,SBT2050,2,3,,1,325,3.749968,-2.6999,0,198.745,31,
1576,1,SBT2050,2,3,,1,329,3.748588,-2.6999,0,201.745,30.9,
1576,1,SBT2050,2,3,,1,333,3.74726,-2.6998,0,204.745,30.9,
1576,1,SBT2050,2,3,,1,337,3.745716,-2.6997,0,207.745,30.9,
1576,1,SBT2050,2,3,,1,341,3.74439,-2.6998,0,210.745,30.9,
1576,1,SBT2050,2,3,,1,345,3.74322,-2.7003,0,213.745,30.9,
1576,1,SBT2050,2,3,,1,349,3.74188,-2.6998,0,216.745,30.8,
1576,1,SBT2050,2,3,,1,353,3.74053,-2.6999,0,219.745,30.8,
1576,1,SBT2050,2,3,,1,357,3.73905,-2.7002,0,222.745,30.8,
1576,1,SBT2050,2,3,,1,361,3.738,-2.7001,0,225.745,30.7,
1576,1,SBT2050,2,3,,1,365,3.73635,-2.6999,0,228.745,30.7,
1576,1,SBT2050,2,3,,1,369,3.73517,-2.6998,0,231.745,30.7,
1576,1,SBT2050,2,3,,1,373,3.7337,-2.6998,0,234.745,30.7,
1576,1,SBT2050,2,3,,1,377,3.73237,-2.6998,0,237.745,30.6,
1576,1,SBT2050,2,3,,1,381,3.73126,-2.6998,0,240.745,30.6,
1576,1,SBT2050,2,3,,1,385,3.72969,-2.7001,0,243.744,30.6,
1576,1,SBT2050,2,3,,1,389,3.72833,-2.6998,0,246.744,30.6,
1576,1,SBT2050,2,3,,1,393,3.7269,-2.6999,0,249.744,30.6,
1576,1,SBT2050,2,3,,1,397,3.72577,-2.6998,0,252.744,30.6,
1576,1,SBT2050,2,3,,1,401,3.724716,-2.6997,0,255.744,30.5,
1576,1,SBT2050,2,3,,1,405,3.72307,-2.7,0,258.744,30.5,
1576,1,SBT2050,2,3,,1,409,3.72193,-2.7,0,261.744,30.5,
1576,1,SBT2050,2,3,,1,413,3.72084,-2.6997,0,264.744,30.5,
1576,1,SBT2050,2,3,,1,417,3.71907,-2.7002,0,267.744,30.4,
1576,1,SBT2050,2,3,,1,421,3.71788,-2.7,0,270.744,30.4,
1576,1,SBT2050,2,3,,1,425,3.7166,-2.7,0,273.744,30.4,
1576,1,SBT2050,2,3,,1,429,3.71549,-2.7002,0,276.744,30.4,
1576,1,SBT2050,2,3,,1,433,3.71414,-2.7002,0,279.744,30.3,
1576,1,SBT2050,2,3,,1,437,3.71266,-2.6997,0,282.744,30.3,
1576,1,SBT2050,2,3,,1,441,3.71134,-2.7,0,285.744,30.3,
1576,1,SBT2050,2,3,,1,445,3.7101,-2.6997,0,288.743,30.3,
1576,1,SBT2050,2,3,,1,449,3.70913,-2.7003,0,291.743,30.3,
1576,1,SBT2050,2,3,,1,453,3.70778,-2.7002,0,294.743,30.3,
1576,1,SBT2050,2,3,,1,457,3.706348,-2.6999,0,297.743,30.2,
1576,1,SBT2050,2,3,,1,461,3.705154,-2.7001,0,300.743,30.2,
1576,1,SBT2050,2,3,,1,465,3.70386,-2.6998,0,303.743,30.2,
1576,1,SBT2050,2,3,,1,469,3.70273,-2.6995,0,306.743,30.2,
1576,1,SBT2050,2,3,,1,473,3.70139,-2.7,0,309.743,30.1,
1576,1,SBT2050,2,3,,1,477,3.70016,-2.7,0,312.743,30.1,
1576,1,SBT2050,2,3,,1,481,3.6988,-2.6997,0,315.743,30.1,
1576,1,SBT2050,2,3,,1,485,3.69753,-2.6998,0,318.743,30.1,
1576,1,SBT2050,2,3,,1,489,3.69645,-2.7001,0,321.743,30.1,
1576,1,SBT2050,2,3,,1,493,3.69511,-2.6996,0,324.743,30.1,
1576,1,SBT2050,2,3,,1,497,3.69373,-2.6998,0,327.743,30.1,
1576,1,SBT2050,2,3,,1,501,3.6927,-2.6998,0,330.742,30.1,
1576,1,SBT2050,2,3,,1,505,3.69132,-2.7004,0,333.742,30,
1576,1,SBT2050,2,3,,1,509,3.690102,-2.6994,0,336.742,30,
1576,1,SBT2050,2,3,,1,513,3.688782,-2.7,0,339.742,30,
1576,1,SBT2050,2,3,,1,517,3.68784,-2.7002,0,342.742,29.9,
1576,1,SBT2050,2,3,,1,521,3.68651,-2.7,0,345.742,29.9,
1576,1,SBT2050,2,3,,1,525,3.68502,-2.7001,0,348.742,29.9,
1576,1,SBT2050,2,3,,1,529,3.683806,-2.6996,0,351.742,29.9,
1576,1,SBT2050,2,3,,1,533,3.68241,-2.7,0,354.742,29.9,
1576,1,SBT2050,2,3,,1,537,3.681282,-2.7003,0,357.742,29.9,
1576,1,SBT2050,2,3,,1,541,3.68021,-2.6998,0,360.742,29.9,
1576,1,SBT2050,2,3,,1,545,3.67885,-2.6998,0,363.742,29.8,
1576,1,SBT2050,2,3,,1,549,3.67784,-2.6994,0,366.742,29.8,
1576,1,SBT2050,2,3,,1,553,3.67647,-2.7001,0,369.742,29.8,
1576,1,SBT2050,2,3,,1,557,3.67512,-2.6998,0,372.742,29.8,
1576,1,SBT2050,2,3,,1,561,3.6738,-2.7001,0,375.742,29.8,
1576,1,SBT2050,2,3,,1,565,3.67277,-2.7002,0,378.742,29.7,
1576,1,SBT2050,2,3,,1,569,3.67141,-2.7002,0,381.742,29.7,
1576,1,SBT2050,2,3,,1,573,3.67013,-2.6999,0,384.741,29.7,
1576,1,SBT2050,2,3,,1,577,3.668678,-2.7002,0,387.741,29.7,
1576,1,SBT2050,2,3,,1,581,3.66768,-2.6998,0,390.741,29.7,
1576,1,SBT2050,2,3,,1,585,3.66638,-2.6999,0,393.741,29.7,
1576,1,SBT2050,2,3,,1,589,3.66532,-2.6998,0,396.741,29.7,
1576,1,SBT2050,2,3,,1,593,3.66411,-2.7002,0,399.741,29.6,
1576,1,SBT2050,2,3,,1,597,3.66258,-2.7001,0,402.741,29.6,
1576,1,SBT2050,2,3,,1,601,3.66157,-2.6998,0,405.741,29.6,
1576,1,SBT2050,2,3,,1,605,3.66043,-2.6996,0,408.741,29.6,
1576,1,SBT2050,2,3,,1,609,3.65937,-2.7005,0,411.741,29.6,
1576,1,SBT2050,2,3,,1,613,3.65803,-2.6998,0,414.741,29.6,
1576,1,SBT2050,2,3,,1,617,3.65693,-2.6999,0,417.741,29.6,
1576,1,SBT2050,2,3,,1,621,3.65543,-2.7003,0,420.741,29.6,
1576,1,SBT2050,2,3,,1,625,3.65459,-2.6997,0,423.741,29.5,
1576,1,SBT2050,2,3,,1,629,3.6532,-2.6998,0,426.741,29.5,
1576,1,SBT2050,2,3,,1,633,3.651922,-2.7,0,429.74,29.5,
1576,1,SBT2050,2,3,,1,637,3.65078,-2.7001,0,432.74,29.5,
1576,1,SBT2050,2,3,,1,641,3.649782,-2.7003,0,435.74,29.5,
1576,1,SBT2050,2,3,,1,645,3.64876,-2.7001,0,438.74,29.5,
1576,1,SBT2050,2,3,,1,649,3.647238,-2.6998,0,441.74,29.5,
1576,1,SBT2050,2,3,,1,653,3.64608,-2.6998,0,444.74,29.5,
1576,1,SBT2050,2,3,,1,657,3.644876,-2.6999,0,447.74,29.5,
1576,1,SBT2050,2,3,,1,661,3.6437,-2.7002,0,450.74,29.4,
1576,1,SBT2050,2,3,,1,665,3.64251,-2.7,0,453.74,29.4,
1576,1,SBT2050,2,3,,1,669,3.64152,-2.7001,0,456.74,29.4,
1576,1,SBT2050,2,3,,1,673,3.64043,-2.6998,0,459.74,29.4,
1576,1,SBT2050,2,3,,1,677,3.63909,-2.7,0,462.74,29.4,
1576,1,SBT2050,2,3,,1,681,3.63801,-2.6997,0,465.74,29.4,
1576,1,SBT2050,2,3,,1,685,3.63657,-2.6998,0,468.74,29.4,
1576,1,SBT2050,2,3,,1,689,3.63553,-2.7001,0,471.74,29.4,
1576,1,SBT2050,2,3,,1,693,3.63405,-2.6997,0,474.74,29.4,
1576,1,SBT2050,2,3,,1,697,3.633,-2.7,0,477.739,29.4,
1576,1,SBT2050,2,3,,1,701,3.631998,-2.7001,0,480.739,29.4,
1576,1,SBT2050,2,3,,1,705,3.63067,-2.6998,0,483.739,29.4,
1576,1,SBT2050,2,3,,1,709,3.6296,-2.7001,0,486.739,29.4,
1576,1,SBT2050,2,3,,1,713,3.62842,-2.7,0,489.739,29.3,
1576,1,SBT2050,2,3,,1,717,3.6273,-2.7003,0,492.739,29.3,
1576,1,SBT2050,2,3,,1,721,3.62626,-2.7003,0,495.739,29.3,
1576,1,SBT2050,2,3,,1,725,3.62515,-2.7001,0,498.739,29.3,
1576,1,SBT2050,2,3,,1,729,3.624,-2.6998,0,501.739,29.3,
1576,1,SBT2050,2,3,,1,733,3.62258,-2.6998,0,504.739,29.3,
1576,1,SBT2050,2,3,,1,737,3.62138,-2.6999,0,507.739,29.3,
1576,1,SBT2050,2,3,,1,741,3.62064,-2.6998,0,510.739,29.3,
1576,1,SBT2050,2,3,,1,745,3.61954,-2.6998,0,513.739,29.3,
1576,1,SBT2050,2,3,,1,749,3.61827,-2.6999,0,516.739,29.3,
1576,1,SBT2050,2,3,,1,753,3.61701,-2.7002,0,519.739,29.3,
1576,1,SBT2050,2,3,,1,757,3.61568,-2.7001,0,522.739,29.3,
1576,1,SBT2050,2,3,,1,761,3.61469,-2.7005,0,525.738,29.3,
1576,1,SBT2050,2,3,,1,765,3.61357,-2.7001,0,528.738,29.3,
1576,1,SBT2050,2,3,,1,769,3.61237,-2.6999,0,531.738,29.3,
1576,1,SBT2050,2,3,,1,773,3.61134,-2.7001,0,534.738,29.3,
1576,1,SBT2050,2,3,,1,777,3.61024,-2.6997,0,537.738,29.3,
1576,1,SBT2050,2,3,,1,781,3.60919,-2.7,0,540.738,29.2,
1576,1,SBT2050,2,3,,1,785,3.60787,-2.6997,0,543.738,29.2,
1576,1,SBT2050,2,3,,1,789,3.60654,-2.6998,0,546.738,29.2,
1576,1,SBT2050,2,3,,1,793,3.60539,-2.6998,0,549.738,29.2,
1576,1,SBT2050,2,3,,1,797,3.60456,-2.6998,0,552.738,29.2,
1576,1,SBT2050,2,3,,1,801,3.603138,-2.6999,0,555.738,29.2,
1576,1,SBT2050,2,3,,1,805,3.60217,-2.6997,0,558.738,29.2,
1576,1,SBT2050,2,3,,1,809,3.60097,-2.7001,0,561.738,29.2,
1576,1,SBT2050,2,3,,1,813,3.5998,-2.7002,0,564.738,29.2,
1576,1,SBT2050,2,3,,1,817,3.59856,-2.6999,0,567.738,29.2,
1576,1,SBT2050,2,3,,1,821,3.5976,-2.6999,0,570.738,29.2,
1576,1,SBT2050,2,3,,1,825,3.59621,-2.6999,0,573.738,29.2,
1576,1,SBT2050,2,3,,1,829,3.59539,-2.6997,0,576.737,29.2,
1576,1,SBT2050,2,3,,1,833,3.59415,-2.6999,0,579.737,29.2,
1576,1,SBT2050,2,3,,1,837,3.5928,-2.7004,0,582.737,29.2,
1576,1,SBT2050,2,3,,1,841,3.59171,-2.7001,0,585.737,29.2,
1576,1,SBT2050,2,3,,1,845,3.590626,-2.6998,0,588.737,29.2,
1576,1,SBT2050,2,3,,1,849,3.58945,-2.6998,0,591.737,29.2,
1576,1,SBT2050,2,3,,1,853,3.58846,-2.7,0,594.737,29.2,
1576,1,SBT2050,2,3,,1,857,3.58745,-2.7001,0,597.737,29.2,
1576,1,SBT2050,2,3,,1,861,3.58634,-2.7,0,600.737,29.2,
1576,1,SBT2050,2,3,,1,865,3.58518,-2.7003,0,603.737,29.2,
1576,1,SBT2050,2,3,,1,869,3.58384,-2.7,0,606.737,29.2,
1576,1,SBT2050,2,3,,1,873,3.58287,-2.7001,0,609.737,29.2,
1576,1,SBT2050,2,3,,1,877,3.58171,-2.7001,0,612.737,29.2,
1576,1,SBT2050,2,3,,1,881,3.58068,-2.6998,0,615.737,29.1,
1576,1,SBT2050,2,3,,1,885,3.5793,-2.7,0,618.737,29.1,
1576,1,SBT2050,2,3,,1,889,3.578602,-2.6998,0,621.737,29.1,
1576,1,SBT2050,2,3,,1,893,3.57753,-2.7,0,624.736,29.2,
1576,1,SBT2050,2,3,,1,897,3.57625,-2.6995,0,627.736,29.1,
1576,1,SBT2050,2,3,,1,901,3.575,-2.6996,0,630.736,29.1,
1576,1,SBT2050,2,3,,1,905,3.57397,-2.7,0,633.736,29.1,
1576,1,SBT2050,2,3,,1,909,3.57282,-2.7001,0,636.736,29.1,
1576,1,SBT2050,2,3,,1,913,3.571796,-2.7001,0,639.736,29.1,
1576,1,SBT2050,2,3,,1,917,3.570702,-2.6998,0,642.736,29.1,
1576,1,SBT2050,2,3,,1,921,3.5695,-2.6997,0,645.736,29.1,
1576,1,SBT2050,2,3,,1,925,3.56811,-2.6998,0,648.736,29.1,
1576,1,SBT2050,2,3,,1,929,3.56711,-2.7003,0,651.736,29.1,
1576,1,SBT2050,2,3,,1,933,3.56624,-2.7003,0,654.736,29.1,
1576,1,SBT2050,2,3,,1,937,3.5652,-2.7001,0,657.736,29.1,
1576,1,SBT2050,2,3,,1,941,3.56386,-2.6996,0,660.736,29.1,
1576,1,SBT2050,2,3,,1,945,3.562616,-2.6999,0,663.736,29.1,
1576,1,SBT2050,2,3,,1,949,3.56172,-2.7,0,666.736,29.1,
1576,1,SBT2050,2,3,,1,953,3.560464,-2.6997,0,669.736,29.1,
1576,1,SBT2050,2,3,,1,957,3.55899,-2.7001,0,672.735,29.1,
1576,1,SBT2050,2,3,,1,961,3.55818,-2.7,0,675.735,29.1,
1576,1,SBT2050,2,3,,1,965,3.5569,-2.7001,0,678.735,29.1,
1576,1,SBT2050,2,3,,1,969,3.55566,-2.6997,0,681.735,29.1,
1576,1,SBT2050,2,3,,1,973,3.5545,-2.6997,0,684.735,29.1,
1576,1,SBT2050,2,3,,1,977,3.55367,-2.7002,0,687.735,29.1,
1576,1,SBT2050,2,3,,1,981,3.55228,-2.6996,0,690.735,29.1,
1576,1,SBT2050,2,3,,1,985,3.551044,-2.6996,0,693.735,29.1,
1576,1,SBT2050,2,3,,1,989,3.549968,-2.7,0,696.735,29.1,
1576,1,SBT2050,2,3,,1,993,3.54895,-2.7002,0,699.735,29.1,
1576,1,SBT2050,2,3,,1,997,3.547674,-2.7003,0,702.735,29.1,
1576,1,SBT2050,2,3,,1,1001,3.54667,-2.6997,0,705.735,29.1,
1576,1,SBT2050,2,3,,1,1005,3.54532,-2.7002,0,708.735,29.1,
1576,1,SBT2050,2,3,,1,1009,3.54454,-2.7,0,711.735,29,
1576,1,SBT2050,2,3,,1,1013,3.543192,-2.7001,0,714.735,29.1,
1576,1,SBT2050,2,3,,1,1017,3.54209,-2.7,0,717.735,29.1,
1576,1,SBT2050,2,3,,1,1021,3.54087,-2.7001,0,720.734,29.1,
1576,1,SBT2050,2,3,,1,1025,3.53978,-2.6998,0,723.734,29.1,
1576,1,SBT2050,2,3,,1,1029,3.53855,-2.6998,0,726.734,29.1,
1576,1,SBT2050,2,3,,1,1033,3.53763,-2.7,0,729.734,29,
1576,1,SBT2050,2,3,,1,1037,3.53648,-2.7001,0,732.734,29.1,
1576,1,SBT2050,2,3,,1,1041,3.53529,-2.7,0,735.734,29.1,
1576,1,SBT2050,2,3,,1,1045,3.53415,-2.6995,0,738.734,29,
1576,1,SBT2050,2,3,,1,1049,3.533,-2.7,0,741.734,29.1,
1576,1,SBT2050,2,3,,1,1053,3.53213,-2.7,0,744.734,29.1,
1576,1,SBT2050,2,3,,1,1057,3.53094,-2.6998,0,747.734,29.1,
1576,1,SBT2050,2,3,,1,1061,3.529954,-2.6995,0,750.734,29.1,
1576,1,SBT2050,2,3,,1,1065,3.52871,-2.7001,0,753.734,29.1,
1576,1,SBT2050,2,3,,1,1069,3.52767,-2.7,0,756.734,29.1,
1576,1,SBT2050,2,3,,1,1073,3.526566,-2.7001,0,759.734,29.1,
1576,1,SBT2050,2,3,,1,1077,3.525388,-2.7,0,762.734,29.1,
1576,1,SBT2050,2,3,,1,1081,3.52427,-2.7,0,765.733,29.1,
1576,1,SBT2050,2,3,,1,1085,3.52308,-2.6999,0,768.733,29.1,
1576,1,SBT2050,2,3,,1,1089,3.52209,-2.6996,0,771.733,29.1,
1576,1,SBT2050,2,3,,1,1093,3.52093,-2.6999,0,774.733,29.1,
1576,1,SBT2050,2,3,,1,1097,3.51962,-2.6994,0,777.733,29.1,
1576,1,SBT2050,2,3,,1,1101,3.51872,-2.7002,0,780.733,29.1,
1576,1,SBT2050,2,3,,1,1105,3.5174,-2.7002,0,783.733,29.1,
1576,1,SBT2050,2,3,,1,1109,3.51606,-2.7004,0,786.733,29.1,
1576,1,SBT2050,2,3,,1,1113,3.51522,-2.6999,0,789.733,29.1,
1576,1,SBT2050,2,3,,1,1117,3.51404,-2.6998,0,792.733,29.1,
1576,1,SBT2050,2,3,,1,1121,3.51289,-2.7003,0,795.733,29.1,
1576,1,SBT2050,2,3,,1,1125,3.51191,-2.6998,0,798.733,29.1,
1576,1,SBT2050,2,3,,1,1129,3.51054,-2.7001,0,801.733,29.1,
1576,1,SBT2050,2,3,,1,1133,3.50925,-2.7,0,804.733,29.1,
1576,1,SBT2050,2,3,,1,1137,3.50825,-2.6997,0,807.733,29.1,
1576,1,SBT2050,2,3,,1,1141,3.50709,-2.7001,0,810.733,29.1,
1576,1,SBT2050,2,3,,1,1145,3.505818,-2.6995,0,813.733,29.1,
1576,1,SBT2050,2,3,,1,1149,3.50487,-2.6996,0,816.733,29.1,
1576,1,SBT2050,2,3,,1,1153,3.503656,-2.6998,0,819.733,29.1,
1576,1,SBT2050,2,3,,1,1157,3.50251,-2.7001,0,822.732,29.1,
1576,1,SBT2050,2,3,,1,1161,3.50152,-2.7001,0,825.732,29.1,
1576,1,SBT2050,2,3,,1,1165,3.50047,-2.6998,0,828.732,29.1,
1576,1,SBT2050,2,3,,1,1169,3.49911,-2.6998,0,831.732,29.1,
1576,1,SBT2050,2,3,,1,1173,3.498,-2.7001,0,834.732,29.1,
1576,1,SBT2050,2,3,,1,1177,3.496984,-2.6998,0,837.732,29.1,
1576,1,SBT2050,2,3,,1,1181,3.49569,-2.6998,0,840.732,29.1,
1576,1,SBT2050,2,3,,1,1185,3.494664,-2.7001,0,843.732,29.1,
1576,1,SBT2050,2,3,,1,1189,3.49361,-2.7,0,846.732,29.1,
1576,1,SBT2050,2,3,,1,1193,3.49227,-2.6998,0,849.732,29.1,
1576,1,SBT2050,2,3,,1,1197,3.49109,-2.7001,0,852.732,29,
1576,1,SBT2050,2,3,,1,1201,3.4899,-2.6997,0,855.732,29.1,
1576,1,SBT2050,2,3,,1,1205,3.488894,-2.6997,0,858.732,29.1,
1576,1,SBT2050,2,3,,1,1209,3.48781,-2.6999,0,861.732,29.1,
1576,1,SBT2050,2,3,,1,1213,3.4867,-2.7002,0,864.731,29,
1576,1,SBT2050,2,3,,1,1217,3.48544,-2.6999,0,867.731,29,
1576,1,SBT2050,2,3,,1,1221,3.48434,-2.6999,0,870.731,29.1,
1576,1,SBT2050,2,3,,1,1225,3.48327,-2.6997,0,873.731,29.1,
1576,1,SBT2050,2,3,,1,1229,3.48225,-2.7002,0,876.731,29.1,
1576,1,SBT2050,2,3,,1,1233,3.48085,-2.6995,0,879.731,29.1,
1576,1,SBT2050,2,3,,1,1237,3.47992,-2.6998,0,882.731,29.1,
1576,1,SBT2050,2,3,,1,1241,3.47881,-2.7001,0,885.731,29.1,
1576,1,SBT2050,2,3,,1,1245,3.47779,-2.7,0,888.731,29.1,
1576,1,SBT2050,2,3,,1,1249,3.476694,-2.7001,0,891.731,29.1,
1576,1,SBT2050,2,3,,1,1253,3.475592,-2.6998,0,894.731,29.1,
1576,1,SBT2050,2,3,,1,1257,3.47448,-2.6998,0,897.731,29.1,
1576,1,SBT2050,2,3,,1,1261,3.47329,-2.6997,0,900.731,29.1,
1576,1,SBT2050,2,3,,1,1265,3.47229,-2.6998,0,903.731,29,
1576,1,SBT2050,2,3,,1,1269,3.47119,-2.6998,0,906.731,29.1,
1576,1,SBT2050,2,3,,1,1273,3.47008,-2.6998,0,909.731,29.1,
1576,1,SBT2050,2,3,,1,1277,3.46886,-2.6998,0,912.731,29,
1576,1,SBT2050,2,3,,1,1281,3.46773,-2.6998,0,915.73,29,
1576,1,SBT2050,2,3,,1,1285,3.46671,-2.6997,0,918.73,29.1,
1576,1,SBT2050,2,3,,1,1289,3.465548,-2.7,0,921.73,29.1,
1576,1,SBT2050,2,3,,1,1293,3.46429,-2.6998,0,924.73,29.1,
1576,1,SBT2050,2,3,,1,1297,3.46335,-2.7003,0,927.73,29.1,
1576,1,SBT2050,2,3,,1,1301,3.461938,-2.6997,0,930.73,29.1,
1576,1,SBT2050,2,3,,1,1305,3.460912,-2.6998,0,933.73,29.1,
1576,1,SBT2050,2,3,,1,1309,3.46003,-2.6998,0,936.73,29.1,
1576,1,SBT2050,2,3,,1,1313,3.45883,-2.7003,0,939.73,29.1,
1576,1,SBT2050,2,3,,1,1317,3.45749,-2.7003,0,942.73,29.1,
1576,1,SBT2050,2,3,,1,1321,3.456504,-2.6997,0,945.73,29.1,
1576,1,SBT2050,2,3,,1,1325,3.45544,-2.6998,0,948.73,29.1,
1576,1,SBT2050,2,3,,1,1329,3.45461,-2.7,0,951.73,29.1,
1576,1,SBT2050,2,3,,1,1333,3.45297,-2.7003,0,954.73,29.1,
1576,1,SBT2050,2,3,,1,1337,3.452122,-2.7,0,957.73,29.1,
1576,1,SBT2050,2,3,,1,1341,3.45095,-2.7001,0,960.73,29.1,
1576,1,SBT2050,2,3,,1,1345,3.45021,-2.6998,0,963.729,29.1,
1576,1,SBT2050,2,3,,1,1349,3.44871,-2.6995,0,966.729,29.1,
1576,1,SBT2050,2,3,,1,1353,3.44769,-2.7001,0,969.729,29.1,
1576,1,SBT2050,2,3,,1,1357,3.44638,-2.7,0,972.729,29.1,
1576,1,SBT2050,2,3,,1,1361,3.44562,-2.7001,0,975.729,29.1,
1576,1,SBT2050,2,3,,1,1365,3.44451,-2.7001,0,978.729,29.1,
1576,1,SBT2050,2,3,,1,1369,3.44333,-2.7001,0,981.729,29.1,
1576,1,SBT2050,2,3,,1,1373,3.442436,-2.6999,0,984.729,29.1,
1576,1,SBT2050,2,3,,1,1377,3.44116,-2.7002,0,987.729,29.1,
1576,1,SBT2050,2,3,,1,1381,3.44004,-2.6998,0,990.729,29.1,
1576,1,SBT2050,2,3,,1,1385,3.43878,-2.6999,0,993.729,29.1,
1576,1,SBT2050,2,3,,1,1389,3.43812,-2.7001,0,996.729,29.1,
1576,1,SBT2050,2,3,,1,1393,3.43685,-2.6999,0,999.729,29.1,
1576,1,SBT2050,2,3,,1,1397,3.43573,-2.7003,0,1002.729,29.1,
1576,1,SBT2050,2,3,,1,1401,3.43445,-2.6998,0,1005.729,29.1,
1576,1,SBT2050,2,3,,1,1405,3.43358,-2.6999,0,1008.729,29.1,
1576,1,SBT2050,2,3,,1,1409,3.4323,-2.7,0,1011.729,29.1,
1576,1,SBT2050,2,3,,1,1413,3.431172,-2.7002,0,1014.728,29.1,
1576,1,SBT2050,2,3,,1,1417,3.43019,-2.7001,0,1017.728,29.1,
1576,1,SBT2050,2,3,,1,1421,3.42898,-2.7,0,1020.728,29.1,
1576,1,SBT2050,2,3,,1,1425,3.42799,-2.6998,0,1023.728,29.1,
1576,1,SBT2050,2,3,,1,1429,3.42687,-2.7003,0,1026.728,29.1,
1576,1,SBT2050,2,3,,1,1433,3.4256,-2.6998,0,1029.728,29.1,
1576,1,SBT2050,2,3,,1,1437,3.42463,-2.7001,0,1032.728,29.1,
1576,1,SBT2050,2,3,,1,1441,3.42352,-2.6997,0,1035.728,29.1,
1576,1,SBT2050,2,3,,1,1445,3.42246,-2.6997,0,1038.728,29.1,
1576,1,SBT2050,2,3,,1,1449,3.42144,-2.7001,0,1041.728,29.1,
1576,1,SBT2050,2,3,,1,1453,3.42018,-2.6998,0,1044.728,29.1,
1576,1,SBT2050,2,3,,1,1457,3.41921,-2.7001,0,1047.728,29.1,
1576,1,SBT2050,2,3,,1,1461,3.418102,-2.7001,0,1050.728,29.1,
1576,1,SBT2050,2,3,,1,1465,3.41712,-2.7001,0,1053.728,29.1,
1576,1,SBT2050,2,3,,1,1469,3.41593,-2.7003,0,1056.727,29.1,
1576,1,SBT2050,2,3,,1,1473,3.41478,-2.7001,0,1059.727,29.1,
1576,1,SBT2050,2,3,,1,1477,3.41396,-2.6998,0,1062.727,29.1,
1576,1,SBT2050,2,3,,1,1481,3.41264,-2.6998,0,1065.727,29.1,
1576,1,SBT2050,2,3,,1,1485,3.41157,-2.6998,0,1068.727,29.1,
1576,1,SBT2050,2,3,,1,1489,3.4104,-2.7004,0,1071.727,29.1,
1576,1,SBT2050,2,3,,1,1493,3.40935,-2.7002,0,1074.727,29.1,
1576,1,SBT2050,2,3,,1,1497,3.40844,-2.6999,0,1077.727,29.1,
1576,1,SBT2050,2,3,,1,1501,3.40742,-2.6999,0,1080.727,29.1,
1576,1,SBT2050,2,3,,1,1505,3.40642,-2.6998,0,1083.727,29.1,
1576,1,SBT2050,2,3,,1,1509,3.40522,-2.7001,0,1086.727,29.1,
1576,1,SBT2050,2,3,,1,1513,3.40421,-2.7,0,1089.727,29.1,
1576,1,SBT2050,2,3,,1,1517,3.40301,-2.6999,0,1092.727,29.1,
1576,1,SBT2050,2,3,,1,1521,3.40161,-2.7002,0,1095.727,29.1,
1576,1,SBT2050,2,3,,1,1525,3.40102,-2.6999,0,1098.727,29.1,
1576,1,SBT2050,2,3,,1,1529,3.399788,-2.7001,0,1101.727,29.1,
1576,1,SBT2050,2,3,,1,1533,3.39871,-2.6999,0,1104.727,29.1,
1576,1,SBT2050,2,3,,1,1537,3.39776,-2.6998,0,1107.726,29.1,
1576,1,SBT2050,2,3,,1,1541,3.39648,-2.7,0,1110.726,29.1,
1576,1,SBT2050,2,3,,1,1545,3.39551,-2.6997,0,1113.726,29.1,
1576,1,SBT2050,2,3,,1,1549,3.39424,-2.7003,0,1116.726,29.1,
1576,1,SBT2050,2,3,,1,1553,3.39351,-2.7,0,1119.726,29.1,
1576,1,SBT2050,2,3,,1,1557,3.392196,-2.7,0,1122.726,29.1,
1576,1,SBT2050,2,3,,1,1561,3.39101,-2.6995,0,1125.726,29.1,
1576,1,SBT2050,2,3,,1,1565,3.38993,-2.6997,0,1128.726,29.1,
1576,1,SBT2050,2,3,,1,1569,3.38883,-2.6997,0,1131.726,29.1,
1576,1,SBT2050,2,3,,1,1573,3.38758,-2.6998,0,1134.726,29.1,
1576,1,SBT2050,2,3,,1,1577,3.38662,-2.6999,0,1137.726,29.1,
1576,1,SBT2050,2,3,,1,1581,3.3856,-2.6997,0,1140.726,29.1,
1576,1,SBT2050,2,3,,1,1585,3.38448,-2.7005,0,1143.726,29.1,
1576,1,SBT2050,2,3,,1,1589,3.38333,-2.7001,0,1146.726,29.2,
1576,1,SBT2050,2,3,,1,1593,3.38254,-2.6999,0,1149.726,29.1,
1576,1,SBT2050,2,3,,1,1597,3.38118,-2.6996,0,1152.725,29.1,
1576,1,SBT2050,2,3,,1,1601,3.38019,-2.6997,0,1155.725,29.1,
1576,1,SBT2050,2,3,,1,1605,3.379168,-2.7,0,1158.725,29.1,
1576,1,SBT2050,2,3,,1,1609,3.37815,-2.7004,0,1161.725,29.2,
1576,1,SBT2050,2,3,,1,1613,3.37681,-2.6997,0,1164.725,29.2,
1576,1,SBT2050,2,3,,1,1617,3.37594,-2.6999,0,1167.725,29.1,
1576,1,SBT2050,2,3,,1,1621,3.37477,-2.7001,0,1170.725,29.1,
1576,1,SBT2050,2,3,,1,1625,3.37368,-2.6998,0,1173.725,29.1,
1576,1,SBT2050,2,3,,1,1629,3.37278,-2.7,0,1176.725,29.1,
1576,1,SBT2050,2,3,,1,1633,3.37131,-2.7,0,1179.725,29.1,
1576,1,SBT2050,2,3,,1,1637,3.3704,-2.6999,0,1182.725,29.1,
1576,1,SBT2050,2,3,,1,1641,3.36921,-2.7001,0,1185.725,29.1,
1576,1,SBT2050,2,3,,1,1645,3.3682,-2.6998,0,1188.725,29.1,
1576,1,SBT2050,2,3,,1,1649,3.36711,-2.6999,0,1191.725,29.1,
1576,1,SBT2050,2,3,,1,1653,3.366062,-2.6998,0,1194.724,29.1,
1576,1,SBT2050,2,3,,1,1657,3.365,-2.7001,0,1197.724,29.1,
1576,1,SBT2050,2,3,,1,1661,3.36381,-2.7001,0,1200.724,29.2,
1576,1,SBT2050,2,3,,1,1665,3.36254,-2.6999,0,1203.724,29.2,
1576,1,SBT2050,2,3,,1,1669,3.3615,-2.7,0,1206.724,29.1,
1576,1,SBT2050,2,3,,1,1673,3.36039,-2.6998,0,1209.724,29.1,
1576,1,SBT2050,2,3,,1,1677,3.35913,-2.7,0,1212.724,29.1,
1576,1,SBT2050,2,3,,1,1681,3.35816,-2.6997,0,1215.724,29.1,
1576,1,SBT2050,2,3,,1,1685,3.357006,-2.6998,0,1218.724,29.2,
1576,1,SBT2050,2,3,,1,1689,3.35609,-2.7,0,1221.724,29.2,
1576,1,SBT2050,2,3,,1,1693,3.354731,-2.7001,0,1224.724,29.2,
1576,1,SBT2050,2,3,,1,1697,3.35372,-2.7,0,1227.724,29.2,
1576,1,SBT2050,2,3,,1,1701,3.35258,-2.7,0,1230.724,29.2,
1576,1,SBT2050,2,3,,1,1705,3.35161,-2.7001,0,1233.724,29.1,
1576,1,SBT2050,2,3,,1,1709,3.3504,-2.6997,0,1236.724,29.2,
1576,1,SBT2050,2,3,,1,1713,3.34928,-2.7001,0,1239.723,29.1,
1576,1,SBT2050,2,3,,1,1717,3.34802,-2.6998,0,1242.723,29.2,
1576,1,SBT2050,2,3,,1,1721,3.347171,-2.7,0,1245.723,29.2,
1576,1,SBT2050,2,3,,1,1725,3.34597,-2.6995,0,1248.723,29.2,
1576,1,SBT2050,2,3,,1,1729,3.344865,-2.6998,0,1251.723,29.2,
1576,1,SBT2050,2,3,,1,1733,3.343703,-2.7001,0,1254.723,29.2,
1576,1,SBT2050,2,3,,1,1737,3.34271,-2.6997,0,1257.723,29.2,
1576,1,SBT2050,2,3,,1,1741,3.34148,-2.6998,0,1260.723,29.2,
1576,1,SBT2050,2,3,,1,1745,3.340594,-2.7,0,1263.723,29.2,
1576,1,SBT2050,2,3,,1,1749,3.33912,-2.6997,0,1266.723,29.2,
1576,1,SBT2050,2,3,,1,1753,3.33807,-2.6998,0,1269.723,29.2,
1576,1,SBT2050,2,3,,1,1757,3.33685,-2.7,0,1272.723,29.2,
1576,1,SBT2050,2,3,,1,1761,3.33604,-2.6998,0,1275.723,29.2,
1576,1,SBT2050,2,3,,1,1765,3.33502,-2.6997,0,1278.723,29.3,
1576,1,SBT2050,2,3,,1,1769,3.3337,-2.7001,0,1281.722,29.3,
1576,1,SBT2050,2,3,,1,1773,3.33273,-2.6998,0,1284.722,29.2,
1576,1,SBT2050,2,3,,1,1777,3.33149,-2.7,0,1287.722,29.2,
1576,1,SBT2050,2,3,,1,1781,3.33052,-2.6997,0,1290.722,29.2,
1576,1,SBT2050,2,3,,1,1785,3.32921,-2.7,0,1293.722,29.3,
1576,1,SBT2050,2,3,,1,1789,3.32803,-2.7,0,1296.722,29.2,
1576,1,SBT2050,2,3,,1,1793,3.32711,-2.7001,0,1299.722,29.3,
1576,1,SBT2050,2,3,,1,1797,3.32613,-2.7001,0,1302.722,29.3,
1576,1,SBT2050,2,3,,1,1801,3.32481,-2.7003,0,1305.722,29.3,
1576,1,SBT2050,2,3,,1,1805,3.32384,-2.7,0,1308.722,29.3,
1576,1,SBT2050,2,3,,1,1809,3.322751,-2.7,0,1311.722,29.3,
1576,1,SBT2050,2,3,,1,1813,3.32147,-2.6997,0,1314.722,29.3,
1576,1,SBT2050,2,3,,1,1817,3.3202,-2.7,0,1317.722,29.3,
1576,1,SBT2050,2,3,,1,1821,3.31911,-2.6998,0,1320.722,29.3,
1576,1,SBT2050,2,3,,1,1825,3.31796,-2.6997,0,1323.721,29.3,
1576,1,SBT2050,2,3,,1,1829,3.316999,-2.6997,0,1326.721,29.3,
1576,1,SBT2050,2,3,,1,1833,3.31572,-2.7001,0,1329.721,29.3,
1576,1,SBT2050,2,3,,1,1837,3.31456,-2.7001,0,1332.721,29.3,
1576,1,SBT2050,2,3,,1,1841,3.313365,-2.7001,0,1335.721,29.3,
1576,1,SBT2050,2,3,,1,1845,3.31214,-2.6996,0,1338.721,29.3,
1576,1,SBT2050,2,3,,1,1849,3.31132,-2.6999,0,1341.721,29.3,
1576,1,SBT2050,2,3,,1,1853,3.309928,-2.7004,0,1344.721,29.3,
1576,1,SBT2050,2,3,,1,1857,3.30896,-2.7,0,1347.721,29.3,
1576,1,SBT2050,2,3,,1,1861,3.30778,-2.6999,0,1350.721,29.3,
1576,1,SBT2050,2,3,,1,1865,3.30648,-2.7,0,1353.721,29.3,
1576,1,SBT2050,2,3,,1,1869,3.30557,-2.6999,0,1356.721,29.4,
1576,1,SBT2050,2,3,,1,1873,3.30439,-2.6999,0,1359.721,29.4,
1576,1,SBT2050,2,3,,1,1877,3.30319,-2.7,0,1362.721,29.4,
1576,1,SBT2050,2,3,,1,1881,3.30207,-2.6995,0,1365.721,29.4,
1576,1,SBT2050,2,3,,1,1885,3.3007,-2.6997,0,1368.721,29.4,
1576,1,SBT2050,2,3,,1,1889,3.29971,-2.7003,0,1371.721,29.4,
1576,1,SBT2050,2,3,,1,1893,3.29835,-2.7003,0,1374.721,29.4,
1576,1,SBT2050,2,3,,1,1897,3.29716,-2.7001,0,1377.72,29.4,
1576,1,SBT2050,2,3,,1,1901,3.29614,-2.6999,0,1380.72,29.4,
1576,1,SBT2050,2,3,,1,1905,3.29484,-2.7,0,1383.72,29.4,
1576,1,SBT2050,2,3,,1,1909,3.29369,-2.7,0,1386.72,29.4,
1576,1,SBT2050,2,3,,1,1913,3.29265,-2.7,0,1389.72,29.4,
1576,1,SBT2050,2,3,,1,1917,3.29147,-2.6998,0,1392.72,29.4,
1576,1,SBT2050,2,3,,1,1921,3.290157,-2.7,0,1395.72,29.4,
1576,1,SBT2050,2,3,,1,1925,3.28893,-2.6997,0,1398.72,29.4,
1576,1,SBT2050,2,3,,1,1929,3.28761,-2.6999,0,1401.72,29.4,
1576,1,SBT2050,2,3,,1,1933,3.28643,-2.7,0,1404.72,29.4,
1576,1,SBT2050,2,3,,1,1937,3.285369,-2.7003,0,1407.72,29.4,
1576,1,SBT2050,2,3,,1,1941,3.28407,-2.6997,0,1410.72,29.4,
1576,1,SBT2050,2,3,,1,1945,3.28295,-2.7001,0,1413.72,29.4,
1576,1,SBT2050,2,3,,1,1949,3.28166,-2.7004,0,1416.72,29.4,
1576,1,SBT2050,2,3,,1,1953,3.28054,-2.6998,0,1419.72,29.4,
1576,1,SBT2050,2,3,,1,1957,3.2792,-2.7003,0,1422.72,29.4,
1576,1,SBT2050,2,3,,1,1961,3.27785,-2.7001,0,1425.72,29.5,
1576,1,SBT2050,2,3,,1,1965,3.27661,-2.7001,0,1428.72,29.4,
1576,1,SBT2050,2,3,,1,1969,3.27554,-2.6997,0,1431.719,29.4,
1576,1,SBT2050,2,3,,1,1973,3.27433,-2.6999,0,1434.719,29.4,
1576,1,SBT2050,2,3,,1,1977,3.27298,-2.7,0,1437.719,29.5,
1576,1,SBT2050,2,3,,1,1981,3.27168,-2.6997,0,1440.719,29.5,
1576,1,SBT2050,2,3,,1,1985,3.27074,-2.7001,0,1443.719,29.5,
1576,1,SBT2050,2,3,,1,1989,3.26931,-2.7,0,1446.719,29.5,
1576,1,SBT2050,2,3,,1,1993,3.26799,-2.7,0,1449.719,29.5,
1576,1,SBT2050,2,3,,1,1997,3.26663,-2.7,0,1452.719,29.5,
1576,1,SBT2050,2,3,,1,2001,3.265559,-2.6998,0,1455.719,29.5,
1576,1,SBT2050,2,3,,1,2005,3.26426,-2.7001,0,1458.719,29.5,
1576,1,SBT2050,2,3,,1,2009,3.262951,-2.7001,0,1461.719,29.5,
1576,1,SBT2050,2,3,,1,2013,3.26176,-2.7,0,1464.719,29.5,
1576,1,SBT2050,2,3,,1,2017,3.26036,-2.7,0,1467.719,29.5,
1576,1,SBT2050,2,3,,1,2021,3.25913,-2.7,0,1470.719,29.5,
1576,1,SBT2050,2,3,,1,2025,3.25785,-2.6997,0,1473.719,29.5,
1576,1,SBT2050,2,3,,1,2029,3.25653,-2.6997,0,1476.718,29.5,
1576,1,SBT2050,2,3,,1,2033,3.25545,-2.6999,0,1479.718,29.5,
1576,1,SBT2050,2,3,,1,2037,3.254184,-2.6997,0,1482.718,29.5,
1576,1,SBT2050,2,3,,1,2041,3.252836,-2.6998,0,1485.718,29.5,
1576,1,SBT2050,2,3,,1,2045,3.2514,-2.7,0,1488.718,29.6,
1576,1,SBT2050,2,3,,1,2049,3.25025,-2.7,0,1491.718,29.6,
1576,1,SBT2050,2,3,,1,2053,3.24876,-2.7001,0,1494.718,29.6,
1576,1,SBT2050,2,3,,1,2057,3.24783,-2.6997,0,1497.718,29.6,
1576,1,SBT2050,2,3,,1,2061,3.24641,-2.7003,0,1500.718,29.6,
1576,1,SBT2050,2,3,,1,2065,3.24506,-2.7,0,1503.718,29.6,
1576,1,SBT2050,2,3,,1,2069,3.24359,-2.7002,0,1506.718,29.6,
1576,1,SBT2050,2,3,,1,2073,3.24237,-2.7,0,1509.718,29.6,
1576,1,SBT2050,2,3,,1,2077,3.24092,-2.7,0,1512.718,29.6,
1576,1,SBT2050,2,3,,1,2081,3.239467,-2.6997,0,1515.718,29.6,
1576,1,SBT2050,2,3,,1,2085,3.23842,-2.7,0,1518.718,29.6,
1576,1,SBT2050,2,3,,1,2089,3.23708,-2.6995,0,1521.717,29.6,
1576,1,SBT2050,2,3,,1,2093,3.23586,-2.7,0,1524.717,29.7,
1576,1,SBT2050,2,3,,1,2097,3.23432,-2.7001,0,1527.717,29.7,
1576,1,SBT2050,2,3,,1,2101,3.23325,-2.7,0,1530.717,29.7,
1576,1,SBT2050,2,3,,1,2105,3.23175,-2.7003,0,1533.717,29.7,
1576,1,SBT2050,2,3,,1,2109,3.23043,-2.7,0,1536.717,29.7,
1576,1,SBT2050,2,3,,1,2113,3.22903,-2.7001,0,1539.717,29.7,
1576,1,SBT2050,2,3,,1,2117,3.22766,-2.6997,0,1542.717,29.8,
1576,1,SBT2050,2,3,,1,2121,3.22613,-2.6997,0,1545.717,29.7,
1576,1,SBT2050,2,3,,1,2125,3.224844,-2.6997,0,1548.717,29.7,
1576,1,SBT2050,2,3,,1,2129,3.22336,-2.6998,0,1551.717,29.7,
1576,1,SBT2050,2,3,,1,2133,3.22186,-2.6998,0,1554.717,29.7,
1576,1,SBT2050,2,3,,1,2137,3.22071,-2.7,0,1557.717,29.8,
1576,1,SBT2050,2,3,,1,2141,3.219291,-2.7,0,1560.717,29.8,
1576,1,SBT2050,2,3,,1,2145,3.21759,-2.7,0,1563.717,29.8,
1576,1,SBT2050,2,3,,1,2149,3.2161,-2.7,0,1566.716,29.8,
1576,1,SBT2050,2,3,,1,2153,3.21461,-2.7002,0,1569.716,29.8,
1576,1,SBT2050,2,3,,1,2157,3.21341,-2.7001,0,1572.716,29.8,
1576,1,SBT2050,2,3,,1,2161,3.21201,-2.6997,0,1575.716,29.8,
1576,1,SBT2050,2,3,,1,2165,3.21052,-2.7003,0,1578.716,29.8,
1576,1,SBT2050,2,3,,1,2169,3.2088,-2.6998,0,1581.716,29.8,
1576,1,SBT2050,2,3,,1,2173,3.20753,-2.7001,0,1584.716,29.8,
1576,1,SBT2050,2,3,,1,2177,3.20618,-2.7004,0,1587.716,29.9,
1576,1,SBT2050,2,3,,1,2181,3.20478,-2.6997,0,1590.716,29.9,
1576,1,SBT2050,2,3,,1,2185,3.202875,-2.6999,0,1593.716,29.9,
1576,1,SBT2050,2,3,,1,2189,3.20161,-2.6999,0,1596.716,29.9,
1576,1,SBT2050,2,3,,1,2193,3.200216,-2.7004,0,1599.716,29.9,
1576,1,SBT2050,2,3,,1,2197,3.19869,-2.6998,0,1602.716,29.9,
1576,1,SBT2050,2,3,,1,2201,3.19699,-2.6994,0,1605.716,29.9,
1576,1,SBT2050,2,3,,1,2205,3.19558,-2.6994,0,1608.716,29.9,
1576,1,SBT2050,2,3,,1,2209,3.194126,-2.7,0,1611.716,29.9,
1576,1,SBT2050,2,3,,1,2213,3.19228,-2.6998,0,1614.716,29.9,
1576,1,SBT2050,2,3,,1,2217,3.19075,-2.7,0,1617.716,29.9,
1576,1,SBT2050,2,3,,1,2221,3.18937,-2.6995,0,1620.715,29.9,
1576,1,SBT2050,2,3,,1,2225,3.18786,-2.6997,0,1623.715,30,
1576,1,SBT2050,2,3,,1,2229,3.186401,-2.7,0,1626.715,30,
1576,1,SBT2050,2,3,,1,2233,3.184864,-2.6998,0,1629.715,30,
1576,1,SBT2050,2,3,,1,2237,3.18319,-2.7,0,1632.715,30,
1576,1,SBT2050,2,3,,1,2241,3.1816,-2.7003,0,1635.715,30,
1576,1,SBT2050,2,3,,1,2245,3.18017,-2.7,0,1638.715,30,
1576,1,SBT2050,2,3,,1,2249,3.17829,-2.7,0,1641.715,30,
1576,1,SBT2050,2,3,,1,2253,3.17681,-2.7001,0,1644.715,30,
1576,1,SBT2050,2,3,,1,2257,3.175013,-2.7001,0,1647.715,30,
1576,1,SBT2050,2,3,,1,2261,3.173559,-2.6999,0,1650.715,30,
1576,1,SBT2050,2,3,,1,2265,3.17152,-2.7001,0,1653.715,30,
1576,1,SBT2050,2,3,,1,2269,3.17024,-2.7001,0,1656.715,30,
1576,1,SBT2050,2,3,,1,2273,3.16865,-2.7001,0,1659.715,30,
1576,1,SBT2050,2,3,,1,2277,3.16687,-2.7001,0,1662.715,30,
1576,1,SBT2050,2,3,,1,2281,3.165059,-2.7001,0,1665.714,30.1,
1576,1,SBT2050,2,3,,1,2285,3.16345,-2.7004,0,1668.714,30.1,
1576,1,SBT2050,2,3,,1,2289,3.16183,-2.7,0,1671.714,30.1,
1576,1,SBT2050,2,3,,1,2293,3.15999,-2.7,0,1674.714,30.1,
1576,1,SBT2050,2,3,,1,2297,3.158164,-2.7001,0,1677.714,30.1,
1576,1,SBT2050,2,3,,1,2301,3.15666,-2.6995,0,1680.714,30.1,
1576,1,SBT2050,2,3,,1,2305,3.15481,-2.6997,0,1683.714,30.1,
1576,1,SBT2050,2,3,,1,2309,3.15331,-2.6998,0,1686.714,30.1,
1576,1,SBT2050,2,3,,1,2313,3.15157,-2.6998,0,1689.714,30.2,
1576,1,SBT2050,2,3,,1,2317,3.14962,-2.6998,0,1692.714,30.1,
1576,1,SBT2050,2,3,,1,2321,3.147751,-2.7001,0,1695.714,30.2,
1576,1,SBT2050,2,3,,1,2325,3.146218,-2.7001,0,1698.714,30.2,
1576,1,SBT2050,2,3,,1,2329,3.1445,-2.6999,0,1701.714,30.2,
1576,1,SBT2050,2,3,,1,2333,3.14269,-2.7,0,1704.714,30.2,
1576,1,SBT2050,2,3,,1,2337,3.14089,-2.7,0,1707.714,30.2,
1576,1,SBT2050,2,3,,1,2341,3.13903,-2.7001,0,1710.714,30.2,
1576,1,SBT2050,2,3,,1,2345,3.13725,-2.6998,0,1713.713,30.2,
1576,1,SBT2050,2,3,,1,2349,3.13559,-2.6998,0,1716.713,30.2,
1576,1,SBT2050,2,3,,1,2353,3.13367,-2.6998,0,1719.713,30.3,
1576,1,SBT2050,2,3,,1,2357,3.13196,-2.7003,0,1722.713,30.3,
1576,1,SBT2050,2,3,,1,2361,3.13016,-2.6997,0,1725.713,30.3,
1576,1,SBT2050,2,3,,1,2365,3.12814,-2.7001,0,1728.713,30.3,
1576,1,SBT2050,2,3,,1,2369,3.12635,-2.7001,0,1731.713,30.3,
1576,1,SBT2050,2,3,,1,2373,3.12451,-2.6996,0,1734.713,30.3,
1576,1,SBT2050,2,3,,1,2377,3.12246,-2.7001,0,1737.713,30.3,
1576,1,SBT2050,2,3,,1,2381,3.12052,-2.7001,0,1740.713,30.4,
1576,1,SBT2050,2,3,,1,2385,3.11858,-2.7002,0,1743.713,30.4,
1576,1,SBT2050,2,3,,1,2389,3.11667,-2.7002,0,1746.713,30.4,
1576,1,SBT2050,2,3,,1,2393,3.114607,-2.7002,0,1749.713,30.4,
1576,1,SBT2050,2,3,,1,2397,3.11255,-2.7002,0,1752.713,30.4,
1576,1,SBT2050,2,3,,1,2401,3.11055,-2.6999,0,1755.713,30.4,
1576,1,SBT2050,2,3,,1,2405,3.10856,-2.7001,0,1758.713,30.4,
1576,1,SBT2050,2,3,,1,2409,3.10655,-2.6998,0,1761.713,30.5,
1576,1,SBT2050,2,3,,1,2413,3.10469,-2.6998,0,1764.713,30.5,
1576,1,SBT2050,2,3,,1,2417,3.10252,-2.6999,0,1767.713,30.5,
1576,1,SBT2050,2,3,,1,2421,3.100381,-2.6999,0,1770.712,30.5,
1576,1,SBT2050,2,3,,1,2425,3.09841,-2.6999,0,1773.712,30.5,
1576,1,SBT2050,2,3,,1,2429,3.09627,-2.6999,0,1776.712,30.5,
1576,1,SBT2050,2,3,,1,2433,3.09419,-2.7002,0,1779.712,30.5,
1576,1,SBT2050,2,3,,1,2437,3.09217,-2.7002,0,1782.712,30.5,
1576,1,SBT2050,2,3,,1,2441,3.08981,-2.6998,0,1785.712,30.6,
1576,1,SBT2050,2,3,,1,2445,3.08782,-2.6998,0,1788.712,30.6,
1576,1,SBT2050,2,3,,1,2449,3.08575,-2.7001,0,1791.712,30.5,
1576,1,SBT2050,2,3,,1,2453,3.08358,-2.7001,0,1794.712,30.6,
1576,1,SBT2050,2,3,,1,2457,3.08127,-2.6998,0,1797.712,30.6,
1576,1,SBT2050,2,3,,1,2461,3.07902,-2.7,0,1800.712,30.6,
1576,1,SBT2050,2,3,,1,2465,3.07668,-2.7,0,1803.712,30.6,
1576,1,SBT2050,2,3,,1,2469,3.074759,-2.7,0,1806.712,30.6,
1576,1,SBT2050,2,3,,1,2473,3.07245,-2.6998,0,1809.712,30.7,
1576,1,SBT2050,2,3,,1,2477,3.06996,-2.6998,0,1812.712,30.7,
1576,1,SBT2050,2,3,,1,2481,3.06771,-2.6997,0,1815.712,30.7,
1576,1,SBT2050,2,3,,1,2485,3.06571,-2.7003,0,1818.712,30.7,
1576,1,SBT2050,2,3,,1,2489,3.063134,-2.6998,0,1821.711,30.7,
1576,1,SBT2050,2,3,,1,2493,3.06094,-2.7001,0,1824.711,30.7,
1576,1,SBT2050,2,3,,1,2497,3.05844,-2.7,0,1827.711,30.8,
1576,1,SBT2050,2,3,,1,2501,3.05617,-2.6998,0,1830.711,30.8,
1576,1,SBT2050,2,3,,1,2505,3.05407,-2.7,0,1833.711,30.8,
1576,1,SBT2050,2,3,,1,2509,3.05159,-2.7001,0,1836.711,30.8,
1576,1,SBT2050,2,3,,1,2513,3.0493,-2.7001,0,1839.711,30.8,
1576,1,SBT2050,2,3,,1,2517,3.04657,-2.6998,0,1842.711,30.9,
1576,1,SBT2050,2,3,,1,2521,3.04434,-2.7,0,1845.711,30.9,
1576,1,SBT2050,2,3,,1,2525,3.041778,-2.7,0,1848.711,30.9,
1576,1,SBT2050,2,3,,1,2529,3.03952,-2.7,0,1851.711,30.9,
1576,1,SBT2050,2,3,,1,2533,3.03696,-2.6998,0,1854.711,30.9,
1576,1,SBT2050,2,3,,1,2537,3.03431,-2.7,0,1857.711,30.9,
1576,1,SBT2050,2,3,,1,2541,3.03189,-2.7,0,1860.711,30.9,
1576,1,SBT2050,2,3,,1,2545,3.02937,-2.6996,0,1863.711,31,
1576,1,SBT2050,2,3,,1,2549,3.02674,-2.7001,0,1866.711,31,
1576,1,SBT2050,2,3,,1,2553,3.023757,-2.6999,0,1869.71,31,
1576,1,SBT2050,2,3,,1,2557,3.02125,-2.7003,0,1872.71,31,
1576,1,SBT2050,2,3,,1,2561,3.01871,-2.7,0,1875.71,31,
1576,1,SBT2050,2,3,,1,2565,3.01609,-2.7001,0,1878.71,31,
1576,1,SBT2050,2,3,,1,2569,3.01323,-2.6994,0,1881.71,31,
1576,1,SBT2050,2,3,,1,2573,3.01066,-2.7003,0,1884.71,31.1,
1576,1,SBT2050,2,3,,1,2577,3.00803,-2.7,0,1887.71,31.1,
1576,1,SBT2050,2,3,,1,2581,3.00517,-2.6998,0,1890.71,31.1,
1576,1,SBT2050,2,3,,1,2585,3.002531,-2.6999,0,1893.71,31.1,
1576,1,SBT2050,2,3,,1,2589,2.99963,-2.6997,0,1896.71,31.2,
1576,1,SBT2050,2,3,,1,2593,2.99675,-2.7,0,1899.71,31.2,
1576,1,SBT2050,2,3,,1,2597,2.99373,-2.6997,0,1902.71,31.2,
1576,1,SBT2050,2,3,,1,2601,2.99075,-2.6995,0,1905.71,31.2,
1576,1,SBT2050,2,3,,1,2605,2.98786,-2.6998,0,1908.71,31.2,
1576,1,SBT2050,2,3,,1,2609,2.98498,-2.6995,0,1911.71,31.3,
1576,1,SBT2050,2,3,,1,2613,2.98218,-2.7,0,1914.709,31.3,
1576,1,SBT2050,2,3,,1,2617,2.97905,-2.6997,0,1917.709,31.3,
1576,1,SBT2050,2,3,,1,2621,2.97598,-2.6998,0,1920.709,31.3,
1576,1,SBT2050,2,3,,1,2625,2.972781,-2.6998,0,1923.709,31.3,
1576,1,SBT2050,2,3,,1,2629,2.96988,-2.6994,0,1926.709,31.3,
1576,1,SBT2050,2,3,,1,2633,2.96687,-2.6998,0,1929.709,31.3,
1576,1,SBT2050,2,3,,1,2637,2.96362,-2.7004,0,1932.709,31.4,
1576,1,SBT2050,2,3,,1,2641,2.96043,-2.6999,0,1935.709,31.4,
1576,1,SBT2050,2,3,,1,2645,2.957105,-2.6999,0,1938.709,31.4,
1576,1,SBT2050,2,3,,1,2649,2.95391,-2.6999,0,1941.709,31.4,
1576,1,SBT2050,2,3,,1,2653,2.950801,-2.6998,0,1944.709,31.5,
1576,1,SBT2050,2,3,,1,2657,2.94725,-2.7003,0,1947.709,31.5,
1576,1,SBT2050,2,3,,1,2661,2.94374,-2.6998,0,1950.709,31.5,
1576,1,SBT2050,2,3,,1,2665,2.940426,-2.7001,0,1953.709,31.5,
1576,1,SBT2050,2,3,,1,2669,2.93691,-2.7001,0,1956.709,31.5,
1576,1,SBT2050,2,3,,1,2673,2.93328,-2.7004,0,1959.709,31.6,
1576,1,SBT2050,2,3,,1,2677,2.9298,-2.6997,0,1962.709,31.6,
1576,1,SBT2050,2,3,,1,2681,2.92603,-2.7001,0,1965.709,31.6,
1576,1,SBT2050,2,3,,1,2685,2.92254,-2.6998,0,1968.708,31.7,
1576,1,SBT2050,2,3,,1,2689,2.918926,-2.7001,0,1971.708,31.7,
1576,1,SBT2050,2,3,,1,2693,2.91529,-2.7,0,1974.708,31.7,
1576,1,SBT2050,2,3,,1,2697,2.911372,-2.7004,0,1977.708,31.7,
1576,1,SBT2050,2,3,,1,2701,2.90749,-2.6997,0,1980.708,31.7,
1576,1,SBT2050,2,3,,1,2705,2.9034,-2.6997,0,1983.708,31.7,
1576,1,SBT2050,2,3,,1,2709,2.89961,-2.7003,0,1986.708,31.8,
1576,1,SBT2050,2,3,,1,2713,2.89563,-2.7,0,1989.708,31.8,
1576,1,SBT2050,2,3,,1,2717,2.891626,-2.7,0,1992.708,31.9,
1576,1,SBT2050,2,3,,1,2721,2.88738,-2.6998,0,1995.708,31.9,
1576,1,SBT2050,2,3,,1,2725,2.88323,-2.7,0,1998.708,31.9,
1576,1,SBT2050,2,3,,1,2729,2.878888,-2.6998,0,2001.708,32,
1576,1,SBT2050,2,3,,1,2733,2.87454,-2.7002,0,2004.708,32,
1576,1,SBT2050,2,3,,1,2737,2.87008,-2.7,0,2007.708,32,
1576,1,SBT2050,2,3,,1,2741,2.86557,-2.6998,0,2010.708,32,
1576,1,SBT2050,2,3,,1,2745,2.86096,-2.7001,0,2013.708,32.1,
1576,1,SBT2050,2,3,,1,2749,2.85617,-2.6997,0,2016.707,32.1,
1576,1,SBT2050,2,3,,1,2753,2.85141,-2.7003,0,2019.707,32.1,
1576,1,SBT2050,2,3,,1,2757,2.84673,-2.6994,0,2022.707,32.2,
1576,1,SBT2050,2,3,,1,2761,2.84143,-2.6998,0,2025.707,32.2,
1576,1,SBT2050,2,3,,1,2765,2.83664,-2.6997,0,2028.707,32.2,
1576,1,SBT2050,2,3,,1,2769,2.83142,-2.7,0,2031.707,32.2,
1576,1,SBT2050,2,3,,1,2773,2.82617,-2.6996,0,2034.707,32.3,
1576,1,SBT2050,2,3,,1,2777,2.82083,-2.6996,0,2037.707,32.3,
1576,1,SBT2050,2,3,,1,2781,2.81536,-2.7002,0,2040.707,32.3,
1576,1,SBT2050,2,3,,1,2785,2.80968,-2.6996,0,2043.707,32.4,
1576,1,SBT2050,2,3,,1,2789,2.803952,-2.7002,0,2046.707,32.4,
1576,1,SBT2050,2,3,,1,2793,2.79792,-2.7004,0,2049.707,32.5,
1576,1,SBT2050,2,3,,1,2797,2.79208,-2.6997,0,2052.707,32.5,
1576,1,SBT2050,2,3,,1,2801,2.78581,-2.6999,0,2055.707,32.5,
1576,1,SBT2050,2,3,,1,2805,2.77977,-2.6999,0,2058.707,32.5,
1576,1,SBT2050,2,3,,1,2809,2.77324,-2.6997,0,2061.707,32.6,
1576,1,SBT2050,2,3,,1,2813,2.76686,-2.6995,0,2064.706,32.6,
1576,1,SBT2050,2,3,,1,2817,2.76018,-2.6998,0,2067.706,32.7,
1576,1,SBT2050,2,3,,1,2821,2.75329,-2.6998,0,2070.706,32.7,
1576,1,SBT2050,2,3,,1,2825,2.7464,-2.6999,0,2073.706,32.8,
1576,1,SBT2050,2,3,,1,2829,2.739247,-2.7001,0,2076.706,32.8,
1576,1,SBT2050,2,3,,1,2833,2.731993,-2.7001,0,2079.706,32.8,
1576,1,SBT2050,2,3,,1,2837,2.72449,-2.7001,0,2082.706,32.9,
1576,1,SBT2050,2,3,,1,2841,2.71694,-2.7003,0,2085.706,32.9,
1576,1,SBT2050,2,3,,1,2845,2.708853,-2.6998,0,2088.706,33,
1576,1,SBT2050,2,3,,1,2849,2.70114,-2.6998,0,2091.706,33,
1576,1,SBT2050,2,3,,1,2853,2.692895,-2.7001,0,2094.706,33,
1576,1,SBT2050,2,3,,1,2857,2.68412,-2.7,0,2097.706,33.1,
1576,1,SBT2050,2,3,,1,2861,2.67552,-2.7,0,2100.706,33.1,
1576,1,SBT2050,2,3,,1,2865,2.666574,-2.7001,0,2103.706,33.2,
1576,1,SBT2050,2,3,,1,2869,2.65779,-2.6998,0,2106.706,33.2,
1576,1,SBT2050,2,3,,1,2873,2.64821,-2.6997,0,2109.706,33.2,
1576,1,SBT2050,2,3,,1,2877,2.638727,-2.7,0,2112.706,33.3,
1576,1,SBT2050,2,3,,1,2881,2.62875,-2.7001,0,2115.705,33.3,
1576,1,SBT2050,2,3,,1,2885,2.61865,-2.7,0,2118.705,33.4,
1576,1,SBT2050,2,3,,1,2889,2.6081,-2.7001,0,2121.705,33.5,
1576,1,SBT2050,2,3,,1,2893,2.597283,-2.6998,0,2124.705,33.5,
1576,1,SBT2050,2,3,,1,2897,2.586,-2.7,0,2127.705,33.5,
1576,1,SBT2050,2,3,,1,2901,2.574437,-2.6997,0,2130.705,33.6,
1576,1,SBT2050,2,3,,1,2905,2.56249,-2.7,0,2133.705,33.7,
1576,1,SBT2050,2,3,,1,2909,2.55004,-2.7001,0,2136.705,33.8,
1576,1,SBT2050,2,3,,1,2913,2.5372,-2.7001,0,2139.705,33.8,
1576,1,SBT2050,2,3,,1,2917,2.52375,-2.7003,0,2142.705,33.9,
1576,1,SBT2050,2,3,,1,2921,2.5102,-2.6997,0,2145.705,34,
1576,1,SBT2050,2,3,,2,2924,2.62848,0,0,2147.829,34,
1576,1,SBT2050,2,3,,2,2928,3.00264,0,0,2147.829,34.1,
1576,1,SBT2050,2,3,,2,2932,3.09925,0,0,2147.829,34.1,
1576,1,SBT2050,2,3,,2,2936,3.14288,0,0,2147.829,34,
1576,1,SBT2050,2,3,,2,2940,3.16972,0,0,2147.829,33.9,
1576,1,SBT2050,2,3,,2,2944,3.189144,0,0,2147.829,33.8,
1576,1,SBT2050,2,3,,2,2948,3.20425,0,0,2147.829,33.8,
1576,1,SBT2050,2,3,,2,2952,3.21687,0,0,2147.829,33.7,
1576,1,SBT2050,2,3,,2,2956,3.22719,0,0,2147.829,33.5,
1576,1,SBT2050,2,3,,2,2960,3.2362,0,0,2147.829,33.4,
1576,1,SBT2050,2,3,,2,2964,3.24428,0,0,2147.829,33.3,
1576,1,SBT2050,2,3,,2,2968,3.251587,0,0,2147.829,33.2,
1576,1,SBT2050,2,3,,2,2972,3.25821,0,0,2147.829,33.1,
1576,1,SBT2050,2,3,,2,2976,3.26382,0,0,2147.829,33,
1576,1,SBT2050,2,3,,2,2980,3.26945,0,0,2147.829,32.8,
1576,1,SBT2050,2,3,,2,2983.831,3.27385,-0.000101,0,2147.829,,