File: ORRG/Test1482.csv
Request Year:,2018,,,,,,,,,,,,
Test:,1482,,,,,,,,,,,,
Test Description:,,,,,,,,,,,,,
TestRegime Name:,Aging_Performance,,,,,,,,,,,,
TestRegime Suffix:,SHP_LC,,,,,,,,,,,,
TestRegime CellSize:,18650,,,,,,,,,,,,
TestRegime Version:,1,,,,,,,,,,,,
Number Of Cells:,1,,,,,,,,,,,,
LotID:,,,,,,,,,,,,,
Lot Description:,,,,,,,,,,,,,
Date Made:,1/21/2003 12:00 AM,,,,,,,,,,,,
Origin:,Other,,,,,,,,,,,,
Requestor:,Admin,,,,,,,,,,,,
Product ID:,Default product,,,,,,,,,,,,
Storage Temp:,R.T./AMB,,,,,,,,,,,,
Storage Delay:,0 days,,,,,,,,,,,,
Test Temp:,R.T./AMB,,,,,,,,,,,,
Start Time:,4/9/2018 3:38 PM,,,,,,,,,,,,
End Time:,4/9/2018 10:45 PM,,,,,,,,,,,,
Operator Instructions:,,,,,,,,,,,,,
Test,Cell,Rack,Shelf,Position,Cell ID,Step,Total Time (Seconds),Voltage (V),Current (A),Charge Capacity (mAh),Discharge Capacity (mAh),TC1 (Â°C),
1482,1,SBT2050,2,3,,0,1,3.33872,0,0,0,24.9,
1482,1,SBT2050,2,3,,0,35,3.33828,0,0,0,24.9,
1482,1,SBT2050,2,3,,0,69,3.338766,0,0,0,25,
1482,1,SBT2050,2,3,,0,103,3.33877,0,0,0,25.1,
1482,1,SBT2050,2,3,,0,137,3.33875,0,0,0,25.1,
1482,1,SBT2050,2,3,,0,171,3.33854,0,0,0,25.2,
1482,1,SBT2050,2,3,,0,205,3.338403,0,0,0,25.2,
1482,1,SBT2050,2,3,,0,239,3.338626,0,0,0,25.3,
1482,1,SBT2050,2,3,,0,273,3.3387,0,0,0,25.3,
1482,1,SBT2050,2,3,,1,307,2.80912,-2.936,0,5.708,25.3,
1482,1,SBT2050,2,3,,1,341,2.49951,-1.7654,0,28.522,26.5,
1482,1,SBT2050,2,3,,1,375,2.49961,-1.4451,0,43.427,27.5,
1482,1,SBT2050,2,3,,1,409,2.49972,-1.2833,0,56.264,28.1,
1482,1,SBT2050,2,3,,1,443,2.49976,-1.1627,0,67.792,28.6,
1482,1,SBT2050,2,3,,1,477,2.49988,-1.0635,0,78.294,28.9,
1482,1,SBT2050,2,3,,1,511,2.49968,-0.9712,0,87.899,29.1,
1482,1,SBT2050,2,3,,1,545,2.499908,-0.8873,0,96.666,29.3,
1482,1,SBT2050,2,3,,1,579,2.499908,-0.8129,0,104.684,29.3,
1482,1,SBT2050,2,3,,1,613,2.49993,-0.748,0,112.046,29.3,
1482,1,SBT2050,2,3,,1,647,2.499908,-0.6897,0,118.828,29.2,
1482,1,SBT2050,2,3,,1,681,2.499908,-0.6387,0,125.096,29.2,
1482,1,SBT2050,2,3,,1,715,2.49981,-0.5916,0,130.9,29.1,
1482,1,SBT2050,2,3,,1,749,2.49981,-0.5497,0,136.285,29,
1482,1,SBT2050,2,3,,1,783,2.49988,-0.511,0,141.292,28.8,
1482,1,SBT2050,2,3,,1,817,2.49976,-0.4766,0,145.954,28.8,
1482,1,SBT2050,2,3,,1,851,2.499896,-0.44351,0,150.291,28.6,
1482,1,SBT2050,2,3,,1,885,2.49998,-0.41495,0,154.341,28.5,
1482,1,SBT2050,2,3,,1,919,2.49979,-0.38836,0,158.132,28.3,
1482,1,SBT2050,2,3,,1,953,2.499896,-0.36498,0,161.686,28.2,
1482,1,SBT2050,2,3,,1,987,2.49984,-0.34282,0,165.025,28,
1482,1,SBT2050,2,3,,1,1021,2.500075,-0.3231,0,168.168,27.9,
1482,1,SBT2050,2,3,,1,1055,2.49973,-0.30519,0,171.134,27.8,
1482,1,SBT2050,2,3,,1,1089,2.49985,-0.28862,0,173.938,27.7,
1482,1,SBT2050,2,3,,1,1123,2.49998,-0.27362,0,176.591,27.5,
1482,1,SBT2050,2,3,,1,1157,2.49988,-0.25915,0,179.106,27.4,
1482,1,SBT2050,2,3,,1,1191,2.49997,-0.24583,0,181.49,27.3,
1482,1,SBT2050,2,3,,1,1225,2.50002,-0.23359,0,183.752,27.2,
1482,1,SBT2050,2,3,,1,1259,2.49986,-0.2216,0,185.901,27.1,
1482,1,SBT2050,2,3,,1,1293,2.49994,-0.21105,0,187.943,27,
1482,1,SBT2050,2,3,,1,1327,2.49978,-0.20021,0,189.884,26.9,
1482,1,SBT2050,2,3,,1,1361,2.49971,-0.19064,0,191.731,26.8,
1482,1,SBT2050,2,3,,1,1395,2.499741,-0.18172,0,193.49,26.7,
1482,1,SBT2050,2,3,,1,1429,2.49992,-0.17254,0,195.162,26.6,
1482,1,SBT2050,2,3,,1,1463,2.499896,-0.16427,0,196.752,26.5,
1482,1,SBT2050,2,3,,1,1497,2.49978,-0.15608,0,198.264,26.5,
1482,1,SBT2050,2,3,,1,1531,2.50002,-0.14844,0,199.701,26.4,
1482,1,SBT2050,2,3,,1,1565,2.49984,-0.14105,0,201.067,26.3,
1482,1,SBT2050,2,3,,1,1599,2.50013,-0.13438,0,202.368,26.3,
1482,1,SBT2050,2,3,,1,1633,2.500051,-0.12789,0,203.606,26.2,
1482,1,SBT2050,2,3,,1,1667,2.49987,-0.12174,0,204.783,26.2,
1482,1,SBT2050,2,3,,1,1701,2.50003,-0.11557,0,205.903,26.1,
1482,1,SBT2050,2,3,,1,1735,2.49988,-0.10934,0,206.964,26.1,
1482,1,SBT2050,2,3,,1,1769,2.500051,-0.10353,0,207.97,26,
1482,1,SBT2050,2,3,,1,1803,2.4998,-0.09766,0,208.92,26,
1482,1,SBT2050,2,3,,1,1837,2.49986,-0.09207,0,209.816,25.9,
1482,1,SBT2050,2,3,,1,1871,2.49997,-0.0867,0,210.659,25.9,
1482,1,SBT2050,2,3,,1,1905,2.499896,-0.08121,0,211.451,25.9,
1482,1,SBT2050,2,3,,1,1939,2.49982,-0.07577,0,212.193,25.9,
1482,1,SBT2050,2,3,,1,1973,2.500075,-0.07067,0,212.884,25.8,
1482,1,SBT2050,2,3,,1,2007,2.49992,-0.06545,0,213.527,25.8,
1482,1,SBT2050,2,3,,1,2041,2.49986,-0.06052,0,214.123,25.8,
1482,1,SBT2050,2,3,,1,2075,2.49992,-0.0559,0,214.674,25.8,
1482,1,SBT2050,2,3,,1,2109,2.49994,-0.05153,0,215.181,25.7,
1482,1,SBT2050,2,3,,1,2143,2.49999,-0.047427,0,215.649,25.7,
1482,1,SBT2050,2,3,,1,2177,2.50017,-0.043456,0,216.077,25.7,
1482,1,SBT2050,2,3,,1,2211,2.49998,-0.039596,0,216.469,25.6,
1482,1,SBT2050,2,3,,1,2245,2.49994,-0.036231,0,216.827,25.6,
1482,1,SBT2050,2,3,,1,2279,2.49988,-0.032895,0,217.153,25.6,
1482,1,SBT2050,2,3,,1,2313,2.500051,-0.030111,0,217.451,25.6,
1482,1,SBT2050,2,3,,1,2347,2.500075,-0.02761,0,217.723,25.6,
1482,1,SBT2050,2,3,,1,2381,2.49993,-0.025341,0,217.973,25.5,
1482,1,SBT2050,2,3,,1,2415,2.49987,-0.023462,0,218.204,25.5,
1482,1,SBT2050,2,3,,1,2449,2.50002,-0.021799,0,218.417,25.5,
1482,1,SBT2050,2,3,,1,2483,2.49987,-0.02025,0,218.616,25.5,
1482,1,SBT2050,2,3,,1,2517,2.49993,-0.019008,0,218.802,25.5,
1482,1,SBT2050,2,3,,1,2551,2.49996,-0.017972,0,218.977,25.4,
1482,1,SBT2050,2,3,,1,2585,2.49992,-0.017062,0,219.142,25.4,
1482,1,SBT2050,2,3,,1,2619,2.49987,-0.016246,0,219.299,25.5,
1482,1,SBT2050,2,3,,1,2653,2.500063,-0.015456,0,219.448,25.4,
1482,1,SBT2050,2,3,,1,2687,2.49992,-0.014791,0,219.591,25.4,
1482,1,SBT2050,2,3,,1,2721,2.500075,-0.014186,0,219.729,25.4,
1482,1,SBT2050,2,3,,1,2755,2.50002,-0.013635,0,219.861,25.4,
1482,1,SBT2050,2,3,,1,2789,2.499908,-0.013207,0,219.989,25.4,
1482,1,SBT2050,2,3,,1,2823,2.500051,-0.013027,0,220.112,25.4,
1482,1,SBT2050,2,3,,1,2857,2.499908,-0.012519,0,220.232,25.4,
1482,1,SBT2050,2,3,,1,2891,2.50002,-0.012283,0,220.349,25.4,
1482,1,SBT2050,2,3,,1,2925,2.500075,-0.01187,0,220.462,25.4,
1482,1,SBT2050,2,3,,1,2959,2.50003,-0.011534,0,220.573,25.4,
1482,1,SBT2050,2,3,,1,2993,2.500075,-0.011358,0,220.681,25.4,
1482,1,SBT2050,2,3,,1,3027,2.50017,-0.011302,0,220.787,25.4,
1482,1,SBT2050,2,3,,1,3061,2.50003,-0.010904,0,220.891,25.4,
1482,1,SBT2050,2,3,,1,3095,2.49997,-0.010714,0,220.993,25.4,
1482,1,SBT2050,2,3,,1,3129,2.50003,-0.010558,0,221.094,25.3,
1482,1,SBT2050,2,3,,1,3163,2.49988,-0.010359,0,221.192,25.4,
1482,1,SBT2050,2,3,,1,3197,2.49994,-0.010281,0,221.289,25.4,
1482,1,SBT2050,2,3,,2,3230,3.28831,2.9356,22.87,221.304,25.5,
1482,1,SBT2050,2,3,,2,3264,3.43401,2.936,50.598,221.304,25.7,
1482,1,SBT2050,2,3,,2,3298,3.52037,2.9358,78.326,221.304,26,
1482,1,SBT2050,2,3,,2,3332,3.57518,2.9355,106.055,221.304,26.3,
1482,1,SBT2050,2,3,,2,3366,3.59387,2.9365,133.783,221.304,26.7,
1482,1,SBT2050,2,3,,2,3400,3.60056,2.9359,161.512,221.304,27.1,
1482,1,SBT2050,2,3,,2,3434,3.607486,2.9356,189.24,221.304,27.5,
1482,1,SBT2050,2,3,,2,3468,3.61523,2.9363,216.969,221.304,27.8,
1482,1,SBT2050,2,3,,2,3502,3.62321,2.9357,244.697,221.304,28.2,
1482,1,SBT2050,2,3,,2,3536,3.630658,2.9361,272.426,221.304,28.4,
1482,1,SBT2050,2,3,,2,3570,3.63825,2.936,300.154,221.304,28.7,
1482,1,SBT2050,2,3,,2,3604,3.64589,2.9359,327.883,221.304,28.8,
1482,1,SBT2050,2,3,,2,3638,3.65274,2.9359,355.611,221.304,29,
1482,1,SBT2050,2,3,,2,3672,3.65954,2.9363,383.34,221.304,29.2,
1482,1,SBT2050,2,3,,2,3706,3.66532,2.9361,411.068,221.304,29.3,
1482,1,SBT2050,2,3,,2,3740,3.67082,2.9359,438.797,221.304,29.4,
1482,1,SBT2050,2,3,,2,3774,3.67607,2.9358,466.525,221.304,29.4,
1482,1,SBT2050,2,3,,2,3808,3.68081,2.9364,494.254,221.304,29.5,
1482,1,SBT2050,2,3,,2,3842,3.68538,2.9361,521.982,221.304,29.5,
1482,1,SBT2050,2,3,,2,3876,3.69023,2.9357,549.711,221.304,29.6,
1482,1,SBT2050,2,3,,2,3910,3.69493,2.9363,577.439,221.304,29.6,
1482,1,SBT2050,2,3,,2,3944,3.699646,2.9356,605.167,221.304,29.6,
1482,1,SBT2050,2,3,,2,3978,3.70513,2.9356,632.896,221.304,29.6,
1482,1,SBT2050,2,3,,2,4012,3.711096,2.9366,660.625,221.304,29.6,
1482,1,SBT2050,2,3,,2,4046,3.71701,2.9359,688.353,221.304,29.6,
1482,1,SBT2050,2,3,,2,4080,3.722674,2.9362,716.082,221.304,29.6,
1482,1,SBT2050,2,3,,2,4114,3.728404,2.9359,743.81,221.304,29.6,
1482,1,SBT2050,2,3,,2,4148,3.73469,2.9363,771.539,221.304,29.6,
1482,1,SBT2050,2,3,,2,4182,3.74047,2.9359,799.267,221.304,29.6,
1482,1,SBT2050,2,3,,2,4216,3.746156,2.9362,826.996,221.304,29.6,
1482,1,SBT2050,2,3,,2,4250,3.75222,2.9364,854.724,221.304,29.6,
1482,1,SBT2050,2,3,,2,4284,3.75817,2.9361,882.453,221.304,29.6,
1482,1,SBT2050,2,3,,2,4318,3.76448,2.9359,910.181,221.304,29.6,
1482,1,SBT2050,2,3,,2,4352,3.77019,2.9355,937.91,221.304,29.6,
1482,1,SBT2050,2,3,,2,4386,3.77646,2.9359,965.638,221.304,29.6,
1482,1,SBT2050,2,3,,2,4420,3.782366,2.9362,993.367,221.304,29.7,
1482,1,SBT2050,2,3,,2,4454,3.78914,2.936,1021.095,221.304,29.6,
1482,1,SBT2050,2,3,,2,4488,3.79556,2.936,1048.824,221.304,29.7,
1482,1,SBT2050,2,3,,2,4522,3.80215,2.9361,1076.552,221.304,29.6,
1482,1,SBT2050,2,3,,2,4556,3.808988,2.9357,1104.281,221.304,29.6,
1482,1,SBT2050,2,3,,2,4590,3.816192,2.9365,1132.009,221.304,29.6,
1482,1,SBT2050,2,3,,2,4624,3.82356,2.9362,1159.738,221.304,29.6,
1482,1,SBT2050,2,3,,2,4658,3.831074,2.9363,1187.466,221.304,29.7,
1482,1,SBT2050,2,3,,2,4692,3.83847,2.9356,1215.195,221.304,29.8,
1482,1,SBT2050,2,3,,2,4726,3.84624,2.9357,1242.923,221.304,29.8,
1482,1,SBT2050,2,3,,2,4760,3.85429,2.9359,1270.652,221.304,29.8,
1482,1,SBT2050,2,3,,2,4794,3.86281,2.9361,1298.38,221.304,29.8,
1482,1,SBT2050,2,3,,2,4828,3.87098,2.9359,1326.109,221.304,29.8,
1482,1,SBT2050,2,3,,2,4862,3.87988,2.9359,1353.837,221.304,29.9,
1482,1,SBT2050,2,3,,2,4896,3.88924,2.9359,1381.566,221.304,29.9,
1482,1,SBT2050,2,3,,2,4930,3.89823,2.9361,1409.294,221.304,29.9,
1482,1,SBT2050,2,3,,2,4964,3.906968,2.936,1437.023,221.304,30,
1482,1,SBT2050,2,3,,2,4998,3.91671,2.9361,1464.751,221.304,30,
1482,1,SBT2050,2,3,,2,5032,3.92611,2.9357,1492.48,221.304,30,
1482,1,SBT2050,2,3,,2,5066,3.93555,2.9356,1520.208,221.304,30,
1482,1,SBT2050,2,3,,2,5100,3.94527,2.936,1547.937,221.304,30.1,
1482,1,SBT2050,2,3,,2,5134,3.95477,2.9365,1575.665,221.304,30.1,
1482,1,SBT2050,2,3,,2,5168,3.96436,2.9364,1603.394,221.304,30.1,
1482,1,SBT2050,2,3,,2,5202,3.97426,2.9358,1631.122,221.304,30.2,
1482,1,SBT2050,2,3,,2,5236,3.984052,2.9362,1658.851,221.304,30.2,
1482,1,SBT2050,2,3,,2,5270,3.99385,2.9356,1686.58,221.304,30.2,
1482,1,SBT2050,2,3,,2,5304,4.0036,2.9358,1714.308,221.304,30.2,
1482,1,SBT2050,2,3,,2,5338,4.01364,2.9359,1742.037,221.304,30.2,
1482,1,SBT2050,2,3,,2,5372,4.023612,2.9361,1769.765,221.304,30.2,
1482,1,SBT2050,2,3,,2,5406,4.03344,2.9359,1797.494,221.304,30.3,
1482,1,SBT2050,2,3,,2,5440,4.04379,2.9359,1825.222,221.304,30.3,
1482,1,SBT2050,2,3,,2,5474,4.05349,2.9363,1852.951,221.304,30.3,
1482,1,SBT2050,2,3,,2,5508,4.06297,2.9356,1880.679,221.304,30.4,
1482,1,SBT2050,2,3,,2,5542,4.07333,2.9363,1908.408,221.304,30.4,
1482,1,SBT2050,2,3,,2,5576,4.08321,2.9358,1936.136,221.304,30.4,
1482,1,SBT2050,2,3,,2,5610,4.09268,2.9357,1963.865,221.304,30.4,
1482,1,SBT2050,2,3,,2,5644,4.10239,2.9358,1991.593,221.304,30.4,
1482,1,SBT2050,2,3,,2,5678,4.11233,2.9357,2019.321,221.304,30.4,
1482,1,SBT2050,2,3,,2,5712,4.12258,2.9361,2047.05,221.304,30.5,
1482,1,SBT2050,2,3,,2,5746,4.13249,2.9359,2074.778,221.304,30.5,
1482,1,SBT2050,2,3,,2,5780,4.14224,2.9358,2102.506,221.304,30.5,
1482,1,SBT2050,2,3,,2,5814,4.150096,2.8815,2130.18,221.304,30.5,
1482,1,SBT2050,2,3,,2,5848,4.15022,2.6992,2156.484,221.304,30.5,
1482,1,SBT2050,2,3,,2,5882,4.15005,2.545,2181.227,221.304,30.5,
1482,1,SBT2050,2,3,,2,5916,4.150084,2.3991,2204.57,221.304,30.3,
1482,1,SBT2050,2,3,,2,5950,4.150084,2.2607,2226.567,221.304,30.2,
1482,1,SBT2050,2,3,,2,5984,4.14995,2.1284,2247.282,221.304,30.1,
1482,1,SBT2050,2,3,,2,6018,4.15023,2.0025,2266.788,221.304,29.9,
1482,1,SBT2050,2,3,,2,6052,4.15025,1.8883,2285.164,221.304,29.7,
1482,1,SBT2050,2,3,,2,6086,4.15001,1.7801,2302.486,221.304,29.5,
1482,1,SBT2050,2,3,,2,6120,4.15025,1.6779,2318.817,221.304,29.4,
1482,1,SBT2050,2,3,,2,6154,4.14996,1.5839,2334.219,221.304,29.2,
1482,1,SBT2050,2,3,,2,6188,4.15002,1.4947,2348.752,221.304,29,
1482,1,SBT2050,2,3,,2,6222,4.14989,1.4134,2362.474,221.304,28.8,
1482,1,SBT2050,2,3,,2,6256,4.15017,1.3366,2375.45,221.304,28.6,
1482,1,SBT2050,2,3,,2,6290,4.150072,1.2644,2387.726,221.304,28.4,
1482,1,SBT2050,2,3,,2,6324,4.15025,1.2008,2399.366,221.304,28.2,
1482,1,SBT2050,2,3,,2,6358,4.150072,1.1391,2410.409,221.304,28.1,
1482,1,SBT2050,2,3,,2,6392,4.14996,1.0848,2420.906,221.304,27.9,
1482,1,SBT2050,2,3,,2,6426,4.1503,1.0324,2430.894,221.304,27.8,
1482,1,SBT2050,2,3,,2,6460,4.150096,0.986,2440.414,221.304,27.7,
1482,1,SBT2050,2,3,,2,6494,4.15032,0.9388,2449.497,221.304,27.5,
1482,1,SBT2050,2,3,,2,6528,4.15012,0.8978,2458.169,221.304,27.4,
1482,1,SBT2050,2,3,,2,6562,4.150072,0.8592,2466.467,221.304,27.3,
1482,1,SBT2050,2,3,,2,6596,4.15002,0.8229,2474.41,221.304,27.2,
1482,1,SBT2050,2,3,,2,6630,4.15002,0.7899,2482.028,221.304,27.1,
1482,1,SBT2050,2,3,,2,6664,4.14994,0.7586,2489.345,221.304,27,
1482,1,SBT2050,2,3,,2,6698,4.14996,0.729,2496.371,221.304,26.8,
1482,1,SBT2050,2,3,,2,6732,4.15016,0.7014,2503.131,221.304,26.8,
1482,1,SBT2050,2,3,,2,6766,4.150084,0.6778,2509.638,221.304,26.7,
1482,1,SBT2050,2,3,,2,6800,4.15005,0.6538,2515.917,221.304,26.6,
1482,1,SBT2050,2,3,,2,6834,4.15016,0.6306,2521.974,221.304,26.6,
1482,1,SBT2050,2,3,,2,6868,4.149774,0.6072,2527.808,221.304,26.5,
1482,1,SBT2050,2,3,,2,6902,4.15019,0.5873,2533.441,221.304,26.4,
1482,1,SBT2050,2,3,,2,6936,4.14995,0.5685,2538.902,221.304,26.4,
1482,1,SBT2050,2,3,,2,6970,4.15018,0.5496,2544.182,221.304,26.3,
1482,1,SBT2050,2,3,,2,7004,4.1503,0.5325,2549.291,221.304,26.2,
1482,1,SBT2050,2,3,,2,7038,4.14985,0.5158,2554.24,221.304,26.2,
1482,1,SBT2050,2,3,,2,7072,4.15017,0.5001,2559.043,221.304,26.1,
1482,1,SBT2050,2,3,,2,7106,4.15016,0.4858,2563.701,221.304,26.1,
1482,1,SBT2050,2,3,,2,7140,4.14987,0.47136,2568.223,221.304,26.1,
1482,1,SBT2050,2,3,,2,7174,4.150084,0.45918,2572.62,221.304,26.1,
1482,1,SBT2050,2,3,,2,7208,4.15017,0.44615,2576.897,221.304,26,
1482,1,SBT2050,2,3,,2,7242,4.14994,0.43438,2581.052,221.304,26,
1482,1,SBT2050,2,3,,2,7276,4.14983,0.42168,2585.096,221.304,25.9,
1482,1,SBT2050,2,3,,2,7310,4.14987,0.41141,2589.029,221.304,25.9,
1482,1,SBT2050,2,3,,2,7344,4.14999,0.40137,2592.867,221.304,25.9,
1482,1,SBT2050,2,3,,2,7378,4.15002,0.39114,2596.61,221.304,25.9,
1482,1,SBT2050,2,3,,2,7412,4.150096,0.38265,2600.266,221.304,25.9,
1482,1,SBT2050,2,3,,2,7446,4.15005,0.37371,2603.835,221.304,25.9,
1482,1,SBT2050,2,3,,2,7480,4.150072,0.36443,2607.321,221.304,25.9,
1482,1,SBT2050,2,3,,2,7514,4.14994,0.35713,2610.722,221.304,25.8,
1482,1,SBT2050,2,3,,2,7548,4.15029,0.34815,2614.053,221.304,25.8,
1482,1,SBT2050,2,3,,2,7582,4.14989,0.33979,2617.313,221.304,25.8,
1482,1,SBT2050,2,3,,2,7616,4.14991,0.33325,2620.495,221.304,25.8,
1482,1,SBT2050,2,3,,2,7650,4.15012,0.325,2623.603,221.304,25.7,
1482,1,SBT2050,2,3,,2,7684,4.14986,0.31883,2626.647,221.304,25.7,
1482,1,SBT2050,2,3,,2,7718,4.14998,0.31241,2629.626,221.304,25.7,
1482,1,SBT2050,2,3,,2,7752,4.14996,0.30616,2632.547,221.304,25.7,
1482,1,SBT2050,2,3,,2,7786,4.15,0.30002,2635.411,221.304,25.7,
1482,1,SBT2050,2,3,,2,7820,4.15004,0.29446,2638.217,221.304,25.7,
1482,1,SBT2050,2,3,,2,7854,4.15002,0.28793,2640.97,221.304,25.7,
1482,1,SBT2050,2,3,,2,7888,4.15,0.28333,2643.667,221.304,25.7,
1482,1,SBT2050,2,3,,2,7922,4.15032,0.27787,2646.318,221.304,25.7,
1482,1,SBT2050,2,3,,2,7956,4.15018,0.27207,2648.912,221.304,25.6,
1482,1,SBT2050,2,3,,2,7990,4.14996,0.2676,2651.462,221.304,25.6,
1482,1,SBT2050,2,3,,2,8024,4.14986,0.26145,2653.955,221.304,25.6,
1482,1,SBT2050,2,3,,2,8058,4.1502,0.25775,2656.405,221.304,25.6,
1482,1,SBT2050,2,3,,2,8092,4.15006,0.25258,2658.812,221.304,25.6,
1482,1,SBT2050,2,3,,2,8126,4.15,0.2478,2661.175,221.304,25.5,
1482,1,SBT2050,2,3,,2,8160,4.150132,0.24368,2663.498,221.304,25.6,
1482,1,SBT2050,2,3,,2,8194,4.15001,0.23929,2665.778,221.304,25.5,
1482,1,SBT2050,2,3,,2,8228,4.15005,0.23394,2668.014,221.304,25.5,
1482,1,SBT2050,2,3,,2,8262,4.15014,0.2311,2670.213,221.304,25.5,
1482,1,SBT2050,2,3,,2,8296,4.14993,0.22684,2672.367,221.304,25.5,
1482,1,SBT2050,2,3,,2,8330,4.15017,0.22183,2674.489,221.304,25.5,
1482,1,SBT2050,2,3,,2,8364,4.15,0.21913,2676.575,221.304,25.5,
1482,1,SBT2050,2,3,,2,8398,4.14998,0.21461,2678.62,221.304,25.5,
1482,1,SBT2050,2,3,,2,8432,4.14993,0.21155,2680.628,221.304,25.5,
1482,1,SBT2050,2,3,,2,8466,4.15022,0.20719,2682.602,221.304,25.5,
1482,1,SBT2050,2,3,,2,8500,4.15001,0.2047,2684.545,221.304,25.5,
1482,1,SBT2050,2,3,,2,8534,4.14991,0.20065,2686.454,221.304,25.5,
1482,1,SBT2050,2,3,,2,8568,4.14988,0.19677,2688.326,221.304,25.5,
1482,1,SBT2050,2,3,,2,8602,4.15004,0.19298,2690.166,221.304,25.5,
1482,1,SBT2050,2,3,,2,8636,4.14999,0.19002,2691.974,221.304,25.5,
1482,1,SBT2050,2,3,,2,8670,4.15017,0.1865,2693.753,221.304,25.5,
1482,1,SBT2050,2,3,,2,8704,4.14996,0.1826,2695.494,221.304,25.5,
1482,1,SBT2050,2,3,,2,8738,4.14982,0.17969,2697.205,221.304,25.4,
1482,1,SBT2050,2,3,,2,8772,4.14995,0.17611,2698.887,221.304,25.4,
1482,1,SBT2050,2,3,,2,8806,4.15016,0.17368,2700.539,221.304,25.4,
1482,1,SBT2050,2,3,,2,8840,4.15023,0.1696,2702.16,221.304,25.4,
1482,1,SBT2050,2,3,,2,8874,4.150108,0.16769,2703.755,221.304,25.5,
1482,1,SBT2050,2,3,,2,8908,4.15017,0.16399,2705.321,221.304,25.5,
1482,1,SBT2050,2,3,,2,8942,4.14994,0.16161,2706.86,221.304,25.5,
1482,1,SBT2050,2,3,,2,8976,4.15014,0.15874,2708.375,221.304,25.5,
1482,1,SBT2050,2,3,,2,9010,4.14999,0.15631,2709.862,221.304,25.4,
1482,1,SBT2050,2,3,,2,9044,4.15012,0.15284,2711.323,221.304,25.4,
1482,1,SBT2050,2,3,,2,9078,4.14988,0.15076,2712.757,221.304,25.4,
1482,1,SBT2050,2,3,,2,9112,4.15,0.1477,2714.165,221.304,25.4,
1482,1,SBT2050,2,3,,2,9146,4.15026,0.14538,2715.55,221.304,25.4,
1482,1,SBT2050,2,3,,2,9180,4.1502,0.14322,2716.914,221.304,25.4,
1482,1,SBT2050,2,3,,2,9214,4.15017,0.1411,2718.257,221.304,25.4,
1482,1,SBT2050,2,3,,2,9248,4.14988,0.13843,2719.578,221.304,25.4,
1482,1,SBT2050,2,3,,2,9282,4.15027,0.13512,2720.873,221.304,25.4,
1482,1,SBT2050,2,3,,2,9316,4.15017,0.13325,2722.142,221.304,25.4,
1482,1,SBT2050,2,3,,2,9350,4.149786,0.1311,2723.388,221.304,25.4,
1482,1,SBT2050,2,3,,2,9384,4.15002,0.12879,2724.615,221.304,25.4,
1482,1,SBT2050,2,3,,2,9418,4.14999,0.12708,2725.822,221.304,25.4,
1482,1,SBT2050,2,3,,2,9452,4.15005,0.12552,2727.012,221.304,25.4,
1482,1,SBT2050,2,3,,2,9486,4.150072,0.12297,2728.185,221.304,25.4,
1482,1,SBT2050,2,3,,2,9520,4.15,0.12072,2729.34,221.304,25.4,
1482,1,SBT2050,2,3,,2,9554,4.15002,0.11959,2730.473,221.304,25.4,
1482,1,SBT2050,2,3,,2,9588,4.15012,0.11728,2731.592,221.304,25.4,
1482,1,SBT2050,2,3,,2,9622,4.15002,0.11496,2732.69,221.304,25.3,
1482,1,SBT2050,2,3,,2,9656,4.14992,0.113,2733.766,221.304,25.4,
1482,1,SBT2050,2,3,,2,9690,4.150072,0.11126,2734.826,221.304,25.4,
1482,1,SBT2050,2,3,,2,9724,4.150108,0.10959,2735.869,221.304,25.4,
1482,1,SBT2050,2,3,,2,9758,4.150108,0.1078,2736.893,221.304,25.4,
1482,1,SBT2050,2,3,,2,9792,4.15019,0.10631,2737.907,221.304,25.4,
1482,1,SBT2050,2,3,,2,9826,4.150096,0.10424,2738.902,221.304,25.3,
1482,1,SBT2050,2,3,,2,9860,4.15018,0.10284,2739.878,221.304,25.3,
1482,1,SBT2050,2,3,,2,9894,4.150132,0.1014,2740.842,221.304,25.3,
1482,1,SBT2050,2,3,,2,9928,4.14992,0.09938,2741.789,221.304,25.3,
1482,1,SBT2050,2,3,,2,9962,4.14991,0.09762,2742.719,221.304,25.3,
1482,1,SBT2050,2,3,,2,9996,4.150072,0.09586,2743.635,221.304,25.4,
1482,1,SBT2050,2,3,,2,10030,4.150072,0.09462,2744.536,221.304,25.4,
1482,1,SBT2050,2,3,,2,10064,4.150096,0.09315,2745.422,221.304,25.3,
1482,1,SBT2050,2,3,,2,10098,4.150096,0.09201,2746.297,221.304,25.3,
1482,1,SBT2050,2,3,,2,10132,4.150084,0.09137,2747.162,221.304,25.3,
1482,1,SBT2050,2,3,,2,10166,4.15006,0.0897,2748.013,221.304,25.3,
1482,1,SBT2050,2,3,,2,10200,4.15018,0.08756,2748.849,221.304,25.3,
1482,1,SBT2050,2,3,,2,10234,4.14985,0.08624,2749.67,221.304,25.3,
1482,1,SBT2050,2,3,,2,10268,4.150084,0.08495,2750.48,221.304,25.3,
1482,1,SBT2050,2,3,,2,10302,4.15017,0.08403,2751.276,221.304,25.3,
1482,1,SBT2050,2,3,,2,10336,4.149798,0.08256,2752.064,221.304,25.3,
1482,1,SBT2050,2,3,,2,10370,4.150072,0.08048,2752.835,221.304,25.3,
1482,1,SBT2050,2,3,,2,10404,4.14982,0.07969,2753.594,221.304,25.3,
1482,1,SBT2050,2,3,,2,10438,4.15019,0.07858,2754.34,221.304,25.3,
1482,1,SBT2050,2,3,,2,10472,4.150084,0.07764,2755.077,221.304,25.3,
1482,1,SBT2050,2,3,,2,10506,4.15005,0.07616,2755.805,221.304,25.3,
1482,1,SBT2050,2,3,,2,10540,4.150096,0.07541,2756.521,221.304,25.3,
1482,1,SBT2050,2,3,,2,10574,4.15006,0.07429,2757.229,221.304,25.3,
1482,1,SBT2050,2,3,,2,10608,4.14989,0.07323,2757.925,221.304,25.3,
1482,1,SBT2050,2,3,,2,10642,4.15004,0.07203,2758.616,221.304,25.3,
1482,1,SBT2050,2,3,,2,10676,4.15031,0.07092,2759.293,221.304,25.3,
1482,1,SBT2050,2,3,,2,10710,4.14988,0.07056,2759.956,221.304,25.3,
1482,1,SBT2050,2,3,,2,10744,4.150108,0.06837,2760.614,221.304,25.3,
1482,1,SBT2050,2,3,,2,10778,4.150084,0.06765,2761.259,221.304,25.3,
1482,1,SBT2050,2,3,,2,10812,4.14987,0.06683,2761.892,221.304,25.3,
1482,1,SBT2050,2,3,,2,10846,4.15025,0.06616,2762.522,221.304,25.3,
1482,1,SBT2050,2,3,,2,10880,4.14991,0.0649,2763.14,221.304,25.3,
1482,1,SBT2050,2,3,,2,10914,4.15019,0.06402,2763.75,221.304,25.3,
1482,1,SBT2050,2,3,,2,10948,4.14996,0.06278,2764.347,221.304,25.3,
1482,1,SBT2050,2,3,,2,10982,4.14989,0.06226,2764.938,221.304,25.3,
1482,1,SBT2050,2,3,,2,11016,4.14996,0.06123,2765.523,221.304,25.3,
1482,1,SBT2050,2,3,,2,11050,4.150108,0.06038,2766.097,221.304,25.3,
1482,1,SBT2050,2,3,,2,11084,4.149798,0.05988,2766.663,221.304,25.3,
1482,1,SBT2050,2,3,,2,11118,4.150108,0.0581,2767.217,221.304,25.3,
1482,1,SBT2050,2,3,,2,11152,4.150084,0.05724,2767.76,221.304,25.3,
1482,1,SBT2050,2,3,,2,11186,4.14986,0.05645,2768.3,221.304,25.3,
1482,1,SBT2050,2,3,,2,11220,4.15005,0.05627,2768.831,221.304,25.3,
1482,1,SBT2050,2,3,,2,11254,4.14998,0.05577,2769.359,221.304,25.3,
1482,1,SBT2050,2,3,,2,11288,4.14995,0.05421,2769.881,221.304,25.3,
1482,1,SBT2050,2,3,,2,11322,4.150132,0.05372,2770.393,221.304,25.3,
1482,1,SBT2050,2,3,,2,11356,4.15002,0.05322,2770.896,221.304,25.3,
1482,1,SBT2050,2,3,,2,11390,4.15006,0.05243,2771.399,221.304,25.3,
1482,1,SBT2050,2,3,,2,11424,4.15002,0.05193,2771.891,221.304,25.3,
1482,1,SBT2050,2,3,,2,11458,4.15,0.05113,2772.376,221.304,25.3,
1482,1,SBT2050,2,3,,2,11492,4.14993,0.05034,2772.856,221.304,25.3,
1482,1,SBT2050,2,3,,2,11526,4.15019,0.04987,2773.327,221.304,25.3,
1482,1,SBT2050,2,3,,2,11560,4.14985,0.0488,2773.792,221.304,25.3,
1482,1,SBT2050,2,3,,2,11594,4.14974,0.04893,2774.25,221.304,25.3,
1482,1,SBT2050,2,3,,2,11628,4.14999,0.04738,2774.704,221.304,25.3,
1482,1,SBT2050,2,3,,2,11662,4.14985,0.046854,2775.149,221.304,25.3,
1482,1,SBT2050,2,3,,2,11696,4.14996,0.046794,2775.591,221.304,25.3,
1482,1,SBT2050,2,3,,2,11730,4.150072,0.045481,2776.025,221.304,25.3,
1482,1,SBT2050,2,3,,2,11764,4.14998,0.044197,2776.45,221.304,25.3,
1482,1,SBT2050,2,3,,2,11798,4.14992,0.044569,2776.868,221.304,25.3,
1482,1,SBT2050,2,3,,2,11832,4.15012,0.043832,2777.289,221.304,25.3,
1482,1,SBT2050,2,3,,2,11866,4.150132,0.04332,2777.7,221.304,25.3,
1482,1,SBT2050,2,3,,2,11900,4.14985,0.042412,2778.108,221.304,25.3,
1482,1,SBT2050,2,3,,2,11934,4.15022,0.04163,2778.508,221.304,25.3,
1482,1,SBT2050,2,3,,2,11968,4.14992,0.041437,2778.901,221.304,25.3,
1482,1,SBT2050,2,3,,2,12002,4.14983,0.041307,2779.29,221.304,25.3,
1482,1,SBT2050,2,3,,2,12036,4.15022,0.040693,2779.678,221.304,25.3,
1482,1,SBT2050,2,3,,2,12070,4.15014,0.040649,2780.063,221.304,25.3,
1482,1,SBT2050,2,3,,2,12104,4.14999,0.040357,2780.444,221.304,25.3,
1482,1,SBT2050,2,3,,2,12138,4.150108,0.039776,2780.819,221.304,25.3,
1482,1,SBT2050,2,3,,2,12172,4.14968,0.038277,2781.187,221.304,25.3,
1482,1,SBT2050,2,3,,2,12206,4.14993,0.037515,2781.542,221.304,25.3,
1482,1,SBT2050,2,3,,2,12240,4.15001,0.03713,2781.895,221.304,25.3,
1482,1,SBT2050,2,3,,2,12274,4.14996,0.036572,2782.245,221.304,25.3,
1482,1,SBT2050,2,3,,2,12308,4.150132,0.036278,2782.589,221.304,25.3,
1482,1,SBT2050,2,3,,2,12342,4.150096,0.036095,2782.931,221.304,25.3,
1482,1,SBT2050,2,3,,2,12376,4.15004,0.035633,2783.27,221.304,25.3,
1482,1,SBT2050,2,3,,2,12410,4.15019,0.03521,2783.603,221.304,25.3,
1482,1,SBT2050,2,3,,2,12444,4.150084,0.034387,2783.933,221.304,25.3,
1482,1,SBT2050,2,3,,2,12478,4.15,0.033874,2784.256,221.304,25.3,
1482,1,SBT2050,2,3,,2,12512,4.15022,0.033417,2784.578,221.304,25.3,
1482,1,SBT2050,2,3,,2,12546,4.15018,0.032839,2784.893,221.304,25.3,
1482,1,SBT2050,2,3,,2,12580,4.15019,0.032406,2785.203,221.304,25.3,
1482,1,SBT2050,2,3,,2,12614,4.14991,0.032353,2785.51,221.304,25.2,
1482,1,SBT2050,2,3,,2,12648,4.150072,0.031333,2785.811,221.304,25.2,
1482,1,SBT2050,2,3,,2,12682,4.14998,0.031974,2786.111,221.304,25.3,
1482,1,SBT2050,2,3,,2,12716,4.14994,0.032185,2786.411,221.304,25.3,
1482,1,SBT2050,2,3,,2,12750,4.15006,0.031198,2786.711,221.304,25.3,
1482,1,SBT2050,2,3,,2,12784,4.14989,0.030166,2787.001,221.304,25.3,
1482,1,SBT2050,2,3,,2,12818,4.14988,0.030251,2787.285,221.304,25.3,
1482,1,SBT2050,2,3,,2,12852,4.15005,0.028867,2787.565,221.304,25.3,
1482,1,SBT2050,2,3,,2,12886,4.14996,0.029059,2787.839,221.304,25.3,
1482,1,SBT2050,2,3,,2,12920,4.15006,0.029041,2788.114,221.304,25.3,
1482,1,SBT2050,2,3,,2,12954,4.14989,0.028242,2788.383,221.304,25.3,
1482,1,SBT2050,2,3,,2,12988,4.149762,0.028111,2788.649,221.304,25.3,
1482,1,SBT2050,2,3,,2,13022,4.14988,0.027832,2788.911,221.304,25.2,
1482,1,SBT2050,2,3,,2,13056,4.150108,0.0273,2789.176,221.304,25.3,
1482,1,SBT2050,2,3,,2,13090,4.15001,0.027394,2789.434,221.304,25.2,
1482,1,SBT2050,2,3,,2,13124,4.15002,0.026739,2789.688,221.304,25.2,
1482,1,SBT2050,2,3,,2,13158,4.15002,0.027328,2789.943,221.304,25.2,
1482,1,SBT2050,2,3,,2,13192,4.15,0.026231,2790.192,221.304,25.3,
1482,1,SBT2050,2,3,,2,13226,4.14981,0.025637,2790.438,221.304,25.2,
1482,1,SBT2050,2,3,,2,13260,4.15005,0.025157,2790.678,221.304,25.3,
1482,1,SBT2050,2,3,,2,13294,4.150072,0.025041,2790.917,221.304,25.3,
1482,1,SBT2050,2,3,,2,13328,4.15005,0.0249,2791.152,221.304,25.2,
1482,1,SBT2050,2,3,,2,13362,4.15014,0.024309,2791.386,221.304,25.2,
1482,1,SBT2050,2,3,,2,13396,4.15014,0.024229,2791.617,221.304,25.2,
1482,1,SBT2050,2,3,,2,13430,4.14992,0.023926,2791.844,221.304,25.2,
1482,1,SBT2050,2,3,,2,13464,4.15001,0.023338,2792.066,221.304,25.2,
1482,1,SBT2050,2,3,,2,13498,4.15006,0.023283,2792.287,221.304,25.2,
1482,1,SBT2050,2,3,,2,13532,4.14998,0.02333,2792.507,221.304,25.3,
1482,1,SBT2050,2,3,,2,13566,4.1502,0.022495,2792.725,221.304,25.2,
1482,1,SBT2050,2,3,,2,13600,4.15024,0.022125,2792.935,221.304,25.2,
1482,1,SBT2050,2,3,,2,13634,4.15002,0.022153,2793.145,221.304,25.2,
1482,1,SBT2050,2,3,,2,13668,4.15004,0.02176,2793.353,221.304,25.2,
1482,1,SBT2050,2,3,,2,13702,4.15001,0.02184,2793.559,221.304,25.2,
1482,1,SBT2050,2,3,,2,13736,4.14992,0.021786,2793.766,221.304,25.2,
1482,1,SBT2050,2,3,,2,13770,4.14982,0.021421,2793.967,221.304,25.2,
1482,1,SBT2050,2,3,,2,13804,4.150132,0.020946,2794.167,221.304,25.2,
1482,1,SBT2050,2,3,,2,13838,4.14999,0.020622,2794.365,221.304,25.2,
1482,1,SBT2050,2,3,,2,13872,4.149774,0.02034,2794.557,221.304,25.3,
1482,1,SBT2050,2,3,,2,13906,4.15012,0.019611,2794.747,221.304,25.2,
1482,1,SBT2050,2,3,,2,13940,4.14994,0.020332,2794.936,221.304,25.2,
1482,1,SBT2050,2,3,,2,13974,4.15002,0.020064,2795.126,221.304,25.2,
1482,1,SBT2050,2,3,,2,14008,4.15012,0.019705,2795.315,221.304,25.2,
1482,1,SBT2050,2,3,,2,14042,4.149762,0.019381,2795.498,221.304,25.2,
1482,1,SBT2050,2,3,,2,14076,4.14989,0.018832,2795.677,221.304,25.2,
1482,1,SBT2050,2,3,,2,14110,4.15002,0.018636,2795.853,221.304,25.3,
1482,1,SBT2050,2,3,,2,14144,4.150108,0.01858,2796.029,221.304,25.3,
1482,1,SBT2050,2,3,,2,14178,4.14996,0.018464,2796.205,221.304,25.3,
1482,1,SBT2050,2,3,,2,14212,4.14993,0.018209,2796.377,221.304,25.2,
1482,1,SBT2050,2,3,,2,14246,4.15022,0.017674,2796.548,221.304,25.3,
1482,1,SBT2050,2,3,,2,14280,4.15002,0.01803,2796.716,221.304,25.3,
1482,1,SBT2050,2,3,,2,14314,4.15006,0.01746,2796.885,221.304,25.3,
1482,1,SBT2050,2,3,,2,14348,4.14991,0.018001,2797.051,221.304,25.2,
1482,1,SBT2050,2,3,,2,14382,4.15002,0.017572,2797.221,221.304,25.2,
1482,1,SBT2050,2,3,,2,14416,4.15018,0.017136,2797.385,221.304,25.2,
1482,1,SBT2050,2,3,,2,14450,4.149798,0.016859,2797.544,221.304,25.2,
1482,1,SBT2050,2,3,,2,14484,4.1502,0.017031,2797.705,221.304,25.3,
1482,1,SBT2050,2,3,,2,14518,4.150132,0.016428,2797.865,221.304,25.3,
1482,1,SBT2050,2,3,,2,14552,4.15023,0.015866,2798.02,221.304,25.2,
1482,1,SBT2050,2,3,,2,14586,4.15017,0.015616,2798.171,221.304,25.3,
1482,1,SBT2050,2,3,,2,14620,4.14992,0.01629,2798.319,221.304,25.2,
1482,1,SBT2050,2,3,,2,14654,4.15036,0.015916,2798.473,221.304,25.3,
1482,1,SBT2050,2,3,,2,14688,4.15006,0.015858,2798.623,221.304,25.2,
1482,1,SBT2050,2,3,,2,14722,4.14969,0.015599,2798.769,221.304,25.2,
1482,1,SBT2050,2,3,,2,14756,4.15006,0.015551,2798.914,221.304,25.3,
1482,1,SBT2050,2,3,,2,14790,4.15002,0.014967,2799.06,221.304,25.2,
1482,1,SBT2050,2,3,,2,14824,4.150108,0.015152,2799.202,221.304,25.3,
1482,1,SBT2050,2,3,,2,14858,4.15022,0.014315,2799.34,221.304,25.3,
1482,1,SBT2050,2,3,,2,14892,4.14992,0.015075,2799.48,221.304,25.2,
1482,1,SBT2050,2,3,,2,14926,4.14998,0.014456,2799.62,221.304,25.3,
1482,1,SBT2050,2,3,,2,14960,4.1502,0.01479,2799.757,221.304,25.3,
1482,1,SBT2050,2,3,,2,14994,4.14988,0.014302,2799.894,221.304,25.3,
1482,1,SBT2050,2,3,,2,15028,4.15016,0.014615,2800.029,221.304,25.3,
1482,1,SBT2050,2,3,,2,15062,4.15002,0.013839,2800.164,221.304,25.2,
1482,1,SBT2050,2,3,,2,15096,4.14986,0.014046,2800.293,221.304,25.3,
1482,1,SBT2050,2,3,,2,15130,4.15001,0.013989,2800.426,221.304,25.2,
1482,1,SBT2050,2,3,,2,15164,4.14991,0.014221,2800.557,221.304,25.2,
1482,1,SBT2050,2,3,,2,15198,4.14987,0.013559,2800.689,221.304,25.3,
1482,1,SBT2050,2,3,,2,15232,4.14995,0.013386,2800.818,221.304,25.3,
1482,1,SBT2050,2,3,,2,15266,4.14999,0.013373,2800.944,221.304,25.3,
1482,1,SBT2050,2,3,,2,15300,4.15017,0.013283,2801.071,221.304,25.3,
1482,1,SBT2050,2,3,,2,15334,4.15,0.012945,2801.195,221.304,25.3,
1482,1,SBT2050,2,3,,2,15368,4.14991,0.012725,2801.317,221.304,25.2,
1482,1,SBT2050,2,3,,2,15402,4.15012,0.01234,2801.437,221.304,25.2,
1482,1,SBT2050,2,3,,2,15436,4.14992,0.012869,2801.557,221.304,25.3,
1482,1,SBT2050,2,3,,2,15470,4.15017,0.012368,2801.675,221.304,25.3,
1482,1,SBT2050,2,3,,2,15504,4.15,0.012116,2801.794,221.304,25.3,
1482,1,SBT2050,2,3,,2,15538,4.15,0.011804,2801.905,221.304,25.3,
1482,1,SBT2050,2,3,,2,15572,4.15006,0.011672,2802.021,221.304,25.3,
1482,1,SBT2050,2,3,,2,15606,4.15006,0.012246,2802.136,221.304,25.3,
1482,1,SBT2050,2,3,,2,15640,4.150072,0.012074,2802.251,221.304,25.3,
1482,1,SBT2050,2,3,,2,15674,4.14991,0.011596,2802.364,221.304,25.3,
1482,1,SBT2050,2,3,,2,15708,4.149774,0.011334,2802.471,221.304,25.3,
1482,1,SBT2050,2,3,,2,15742,4.14994,0.010888,2802.577,221.304,25.3,
1482,1,SBT2050,2,3,,2,15776,4.15016,0.011131,2802.681,221.304,25.3,
1482,1,SBT2050,2,3,,2,15810,4.14989,0.011098,2802.786,221.304,25.2,
1482,1,SBT2050,2,3,,2,15844,4.14998,0.010411,2802.891,221.304,25.2,
1482,1,SBT2050,2,3,,2,15878,4.15012,0.010893,2802.992,221.304,25.3,
1482,1,SBT2050,2,3,,2,15912,4.150072,0.011852,2803.097,221.304,25.2,
1482,1,SBT2050,2,3,,2,15946,4.150096,0.011028,2803.206,221.304,25.3,
1482,1,SBT2050,2,3,,2,15980,4.149774,0.011249,2803.309,221.304,25.2,
1482,1,SBT2050,2,3,,2,16014,4.14985,0.01091,2803.411,221.304,25.3,
1482,1,SBT2050,2,3,,3,16047,4.14925,0,2803.465,221.304,25.3,
1482,1,SBT2050,2,3,,3,16081,4.14891,0,2803.465,221.304,25.2,
1482,1,SBT2050,2,3,,3,16115,4.1487,0,2803.465,221.304,25.3,
1482,1,SBT2050,2,3,,3,16149,4.14851,0,2803.465,221.304,25.3,
1482,1,SBT2050,2,3,,3,16183,4.14813,0,2803.465,221.304,25.2,
1482,1,SBT2050,2,3,,3,16217,4.14826,0,2803.465,221.304,25.2,
1482,1,SBT2050,2,3,,3,16251,4.14799,0,2803.465,221.304,25.2,
1482,1,SBT2050,2,3,,3,16285,4.14806,0,2803.465,221.304,25.3,
1482,1,SBT2050,2,3,,3,16319,4.14802,0,2803.465,221.304,25.3,
1482,1,SBT2050,2,3,,3,16353,4.1478,0,2803.465,221.304,25.3,
1482,1,SBT2050,2,3,,3,16387,4.14771,0,2803.465,221.304,25.3,
1482,1,SBT2050,2,3,,3,16421,4.147874,0,2803.465,221.304,25.3,
1482,1,SBT2050,2,3,,3,16455,4.14762,0,2803.465,221.304,25.3,
1482,1,SBT2050,2,3,,3,16489,4.147526,0,2803.465,221.304,25.3,
1482,1,SBT2050,2,3,,3,16523,4.14738,0,2803.465,221.304,25.2,
1482,1,SBT2050,2,3,,3,16557,4.14723,0,2803.465,221.304,25.3,
1482,1,SBT2050,2,3,,3,16591,4.14756,0,2803.465,221.304,25.3,
1482,1,SBT2050,2,3,,3,16625,4.14759,0,2803.465,221.304,25.3,
1482,1,SBT2050,2,3,,3,16659,4.14757,0,2803.465,221.304,25.3,
1482,1,SBT2050,2,3,,3,16693,4.14711,0,2803.465,221.304,25.3,
1482,1,SBT2050,2,3,,3,16727,4.14685,0,2803.465,221.304,25.3,
1482,1,SBT2050,2,3,,3,16761,4.146738,0,2803.465,221.304,25.3,
1482,1,SBT2050,2,3,,3,16795,4.146954,0,2803.465,221.304,25.3,
1482,1,SBT2050,2,3,,3,16829,4.147098,0,2803.465,221.304,25.3,
1482,1,SBT2050,2,3,,3,16863,4.14729,0,2803.465,221.304,25.3,
1482,1,SBT2050,2,3,,3,16897,4.14699,0,2803.465,221.304,25.2,
1482,1,SBT2050,2,3,,3,16931,4.14686,0,2803.465,221.304,25.3,
1482,1,SBT2050,2,3,,3,16965,4.14718,0,2803.465,221.304,25.3,
1482,1,SBT2050,2,3,,3,16999,4.14683,0,2803.465,221.304,25.3,
1482,1,SBT2050,2,3,,3,17033,4.14695,0,2803.465,221.304,25.3,
1482,1,SBT2050,2,3,,3,17067,4.147062,0,2803.465,221.304,25.3,
1482,1,SBT2050,2,3,,3,17101,4.14694,0,2803.465,221.304,25.3,
1482,1,SBT2050,2,3,,3,17135,4.14676,0,2803.465,221.304,25.3,
1482,1,SBT2050,2,3,,3,17169,4.14696,0,2803.465,221.304,25.3,
1482,1,SBT2050,2,3,,3,17203,4.14669,0,2803.465,221.304,25.2,
1482,1,SBT2050,2,3,,3,17237,4.14647,0,2803.465,221.304,25.2,
1482,1,SBT2050,2,3,,3,17271,4.14655,0,2803.465,221.304,25.3,
1482,1,SBT2050,2,3,,3,17305,4.14637,0,2803.465,221.304,25.3,
1482,1,SBT2050,2,3,,3,17339,4.14629,0,2803.465,221.304,25.3,
1482,1,SBT2050,2,3,,3,17373,4.14653,0,2803.465,221.304,25.3,
1482,1,SBT2050,2,3,,3,17407,4.14651,0,2803.465,221.304,25.3,
1482,1,SBT2050,2,3,,3,17441,4.14626,0,2803.465,221.304,25.3,
1482,1,SBT2050,2,3,,3,17475,4.14629,0,2803.465,221.304,25.3,
1482,1,SBT2050,2,3,,3,17509,4.14627,0,2803.465,221.304,25.2,
1482,1,SBT2050,2,3,,3,17543,4.14655,0,2803.465,221.304,25.2,
1482,1,SBT2050,2,3,,3,17577,4.146094,0,2803.465,221.304,25.2,
1482,1,SBT2050,2,3,,3,17611,4.14661,0,2803.465,221.304,25.2,
1482,1,SBT2050,2,3,,3,17645,4.1464,0,2803.465,221.304,25.3,
1482,1,SBT2050,2,3,,3,17679,4.14613,0,2803.465,221.304,25.3,
1482,1,SBT2050,2,3,,3,17713,4.14571,0,2803.465,221.304,25.3,
1482,1,SBT2050,2,3,,3,17747,4.14609,0,2803.465,221.304,25.3,
1482,1,SBT2050,2,3,,3,17781,4.14612,0,2803.465,221.304,25.3,
1482,1,SBT2050,2,3,,3,17815,4.14619,0,2803.465,221.304,25.3,
1482,1,SBT2050,2,3,,4,17848,3.90243,-2.9359,2803.465,234.172,25.4,
1482,1,SBT2050,2,3,,4,17882,3.86616,-2.936,2803.465,261.9,25.8,
1482,1,SBT2050,2,3,,4,17916,3.85029,-2.9361,2803.465,289.629,26.2,
1482,1,SBT2050,2,3,,4,17950,3.84147,-2.9356,2803.465,317.357,26.7,
1482,1,SBT2050,2,3,,4,17984,3.83519,-2.9358,2803.465,345.086,27,
1482,1,SBT2050,2,3,,4,18018,3.8308,-2.9363,2803.465,372.814,27.4,
1482,1,SBT2050,2,3,,4,18052,3.82661,-2.9358,2803.465,400.542,27.7,
1482,1,SBT2050,2,3,,4,18086,3.822118,-2.9359,2803.465,428.271,27.9,
1482,1,SBT2050,2,3,,4,18120,3.81718,-2.9355,2803.465,455.999,28.1,
1482,1,SBT2050,2,3,,4,18154,3.8118,-2.9358,2803.465,483.728,28.3,
1482,1,SBT2050,2,3,,4,18188,3.80568,-2.9357,2803.465,511.456,28.5,
1482,1,SBT2050,2,3,,4,18222,3.7989,-2.9359,2803.465,539.185,28.6,
1482,1,SBT2050,2,3,,4,18256,3.79207,-2.9359,2803.465,566.913,28.7,
1482,1,SBT2050,2,3,,4,18290,3.78455,-2.936,2803.465,594.642,28.7,
1482,1,SBT2050,2,3,,4,18324,3.776804,-2.9358,2803.465,622.37,28.7,
1482,1,SBT2050,2,3,,4,18358,3.76851,-2.9356,2803.465,650.099,28.8,
1482,1,SBT2050,2,3,,4,18392,3.760188,-2.9358,2803.465,677.827,28.8,
1482,1,SBT2050,2,3,,4,18426,3.7514,-2.9358,2803.465,705.555,28.8,
1482,1,SBT2050,2,3,,4,18460,3.74332,-2.9358,2803.465,733.284,28.8,
1482,1,SBT2050,2,3,,4,18494,3.73472,-2.9356,2803.465,761.012,28.8,
1482,1,SBT2050,2,3,,4,18528,3.72595,-2.9358,2803.465,788.74,28.9,
1482,1,SBT2050,2,3,,4,18562,3.71738,-2.9359,2803.465,816.469,28.8,
1482,1,SBT2050,2,3,,4,18596,3.70864,-2.9358,2803.465,844.197,28.8,
1482,1,SBT2050,2,3,,4,18630,3.70044,-2.9361,2803.465,871.925,28.8,
1482,1,SBT2050,2,3,,4,18664,3.69168,-2.9362,2803.465,899.654,28.8,
1482,1,SBT2050,2,3,,4,18698,3.6827,-2.9356,2803.465,927.382,28.8,
1482,1,SBT2050,2,3,,4,18732,3.6741,-2.9359,2803.465,955.111,28.8,
1482,1,SBT2050,2,3,,4,18766,3.66492,-2.9364,2803.465,982.839,28.8,
1482,1,SBT2050,2,3,,4,18800,3.65585,-2.9357,2803.465,1010.567,28.8,
1482,1,SBT2050,2,3,,4,18834,3.64695,-2.9362,2803.465,1038.296,28.8,
1482,1,SBT2050,2,3,,4,18868,3.63709,-2.9357,2803.465,1066.024,28.8,
1482,1,SBT2050,2,3,,4,18902,3.6276,-2.9365,2803.465,1093.753,28.8,
1482,1,SBT2050,2,3,,4,18936,3.61841,-2.9356,2803.465,1121.481,28.9,
1482,1,SBT2050,2,3,,4,18970,3.60844,-2.9359,2803.465,1149.21,28.8,
1482,1,SBT2050,2,3,,4,19004,3.59877,-2.9362,2803.465,1176.938,28.9,
1482,1,SBT2050,2,3,,4,19038,3.58876,-2.9357,2803.465,1204.667,28.9,
1482,1,SBT2050,2,3,,4,19072,3.578774,-2.9358,2803.465,1232.395,28.9,
1482,1,SBT2050,2,3,,4,19106,3.5684,-2.936,2803.465,1260.123,28.9,
1482,1,SBT2050,2,3,,4,19140,3.55877,-2.9365,2803.465,1287.852,28.9,
1482,1,SBT2050,2,3,,4,19174,3.548778,-2.9358,2803.465,1315.58,29,
1482,1,SBT2050,2,3,,4,19208,3.538856,-2.9362,2803.465,1343.309,29,
1482,1,SBT2050,2,3,,4,19242,3.528612,-2.9363,2803.465,1371.037,29,
1482,1,SBT2050,2,3,,4,19276,3.51884,-2.9359,2803.465,1398.765,29,
1482,1,SBT2050,2,3,,4,19310,3.509532,-2.9361,2803.465,1426.494,29,
1482,1,SBT2050,2,3,,4,19344,3.49982,-2.9361,2803.465,1454.222,29,
1482,1,SBT2050,2,3,,4,19378,3.49075,-2.9359,2803.465,1481.951,29,
1482,1,SBT2050,2,3,,4,19412,3.48137,-2.9359,2803.465,1509.679,29,
1482,1,SBT2050,2,3,,4,19446,3.47197,-2.9356,2803.465,1537.407,29.1,
1482,1,SBT2050,2,3,,4,19480,3.46331,-2.9361,2803.465,1565.136,29.1,
1482,1,SBT2050,2,3,,4,19514,3.45433,-2.9361,2803.465,1592.864,29.1,
1482,1,SBT2050,2,3,,4,19548,3.44572,-2.9358,2803.465,1620.593,29.2,
1482,1,SBT2050,2,3,,4,19582,3.43744,-2.9363,2803.465,1648.321,29.1,
1482,1,SBT2050,2,3,,4,19616,3.42886,-2.9363,2803.465,1676.05,29.1,
1482,1,SBT2050,2,3,,4,19650,3.42064,-2.9359,2803.465,1703.778,29.1,
1482,1,SBT2050,2,3,,4,19684,3.41252,-2.9359,2803.465,1731.506,29.2,
1482,1,SBT2050,2,3,,4,19718,3.40433,-2.936,2803.465,1759.235,29.2,
1482,1,SBT2050,2,3,,4,19752,3.39649,-2.9361,2803.465,1786.963,29.2,
1482,1,SBT2050,2,3,,4,19786,3.38852,-2.9356,2803.465,1814.692,29.2,
1482,1,SBT2050,2,3,,4,19820,3.38002,-2.936,2803.465,1842.42,29.3,
1482,1,SBT2050,2,3,,4,19854,3.37238,-2.9356,2803.465,1870.149,29.4,
1482,1,SBT2050,2,3,,4,19888,3.36365,-2.936,2803.465,1897.877,29.4,
1482,1,SBT2050,2,3,,4,19922,3.35564,-2.9359,2803.465,1925.606,29.4,
1482,1,SBT2050,2,3,,4,19956,3.34716,-2.9356,2803.465,1953.334,29.4,
1482,1,SBT2050,2,3,,4,19990,3.33849,-2.9357,2803.465,1981.063,29.5,
1482,1,SBT2050,2,3,,4,20024,3.32985,-2.9362,2803.465,2008.791,29.5,
1482,1,SBT2050,2,3,,4,20058,3.32065,-2.9362,2803.465,2036.52,29.6,
1482,1,SBT2050,2,3,,4,20092,3.31139,-2.9359,2803.465,2064.249,29.6,
1482,1,SBT2050,2,3,,4,20126,3.30188,-2.9359,2803.465,2091.977,29.6,
1482,1,SBT2050,2,3,,4,20160,3.29147,-2.9355,2803.465,2119.706,29.7,
1482,1,SBT2050,2,3,,4,20194,3.281071,-2.9359,2803.465,2147.434,29.7,
1482,1,SBT2050,2,3,,4,20228,3.27006,-2.9361,2803.465,2175.162,29.8,
1482,1,SBT2050,2,3,,4,20262,3.258506,-2.9362,2803.465,2202.891,29.9,
1482,1,SBT2050,2,3,,4,20296,3.24605,-2.9358,2803.465,2230.619,29.9,
1482,1,SBT2050,2,3,,4,20330,3.23322,-2.9359,2803.465,2258.348,30,
1482,1,SBT2050,2,3,,4,20364,3.2196,-2.9358,2803.465,2286.076,30.1,
1482,1,SBT2050,2,3,,4,20398,3.20504,-2.936,2803.465,2313.805,30.2,
1482,1,SBT2050,2,3,,4,20432,3.18927,-2.9362,2803.465,2341.533,30.3,
1482,1,SBT2050,2,3,,4,20466,3.17238,-2.9361,2803.465,2369.262,30.4,
1482,1,SBT2050,2,3,,4,20500,3.15448,-2.9356,2803.465,2396.99,30.5,
1482,1,SBT2050,2,3,,4,20534,3.13479,-2.9361,2803.465,2424.718,30.7,
1482,1,SBT2050,2,3,,4,20568,3.11373,-2.9354,2803.465,2452.447,30.8,
1482,1,SBT2050,2,3,,4,20602,3.09082,-2.9362,2803.465,2480.175,31,
1482,1,SBT2050,2,3,,4,20636,3.06599,-2.9362,2803.465,2507.904,31.1,
1482,1,SBT2050,2,3,,4,20670,3.03854,-2.9358,2803.465,2535.632,31.3,
1482,1,SBT2050,2,3,,4,20704,3.00816,-2.9365,2803.465,2563.361,31.5,
1482,1,SBT2050,2,3,,4,20738,2.97439,-2.9364,2803.465,2591.089,31.8,
1482,1,SBT2050,2,3,,4,20772,2.93643,-2.9358,2803.465,2618.818,32.1,
1482,1,SBT2050,2,3,,4,20806,2.89334,-2.9361,2803.465,2646.546,32.4,
1482,1,SBT2050,2,3,,4,20840,2.844094,-2.9361,2803.465,2674.274,32.7,
1482,1,SBT2050,2,3,,4,20874,2.78941,-2.9359,2803.465,2702.003,33.1,
1482,1,SBT2050,2,3,,4,20908,2.72651,-2.9358,2803.465,2729.731,33.6,
1482,1,SBT2050,2,3,,4,20942,2.64793,-2.9359,2803.465,2757.46,34.1,
1482,1,SBT2050,2,3,,4,20976,2.54698,-2.9358,2803.465,2785.188,34.7,
1482,1,SBT2050,2,3,,4,21010,2.49966,-2.5671,2803.465,2811.649,35.4,
1482,1,SBT2050,2,3,,4,21044,2.4998,-2.2256,2803.465,2834.201,35.8,
1482,1,SBT2050,2,3,,4,21078,2.49986,-1.9529,2803.465,2853.902,36,
1482,1,SBT2050,2,3,,4,21112,2.49976,-1.7123,2803.465,2871.176,36,
1482,1,SBT2050,2,3,,4,21146,2.49986,-1.4985,2803.465,2886.316,35.8,
1482,1,SBT2050,2,3,,4,21180,2.499705,-1.3117,2803.465,2899.563,35.5,
1482,1,SBT2050,2,3,,4,21214,2.49975,-1.1495,2803.465,2911.166,35.1,
1482,1,SBT2050,2,3,,4,21248,2.499717,-1.009,2803.465,2921.342,34.6,
1482,1,SBT2050,2,3,,4,21282,2.49973,-0.8902,2803.465,2930.295,34.1,
1482,1,SBT2050,2,3,,4,21316,2.499848,-0.7877,2803.465,2938.206,33.5,
1482,1,SBT2050,2,3,,4,21350,2.49975,-0.702,2803.465,2945.229,33,
1482,1,SBT2050,2,3,,4,21384,2.49984,-0.6288,2803.465,2951.503,32.5,
1482,1,SBT2050,2,3,,4,21418,2.49996,-0.5664,2803.465,2957.136,32,
1482,1,SBT2050,2,3,,4,21452,2.4998,-0.5122,2803.465,2962.222,31.5,
1482,1,SBT2050,2,3,,4,21486,2.49986,-0.46432,2803.465,2966.831,31,
1482,1,SBT2050,2,3,,4,21520,2.49996,-0.42355,2803.465,2971.017,30.6,
1482,1,SBT2050,2,3,,4,21554,2.49979,-0.38712,2803.465,2974.842,30.2,
1482,1,SBT2050,2,3,,4,21588,2.49982,-0.35529,2803.465,2978.348,29.8,
1482,1,SBT2050,2,3,,4,21622,2.499872,-0.32716,2803.465,2981.571,29.5,
1482,1,SBT2050,2,3,,4,21656,2.4998,-0.30149,2803.465,2984.54,29.1,
1482,1,SBT2050,2,3,,4,21690,2.49984,-0.27845,2803.465,2987.279,28.8,
1482,1,SBT2050,2,3,,4,21724,2.49986,-0.25782,2803.465,2989.812,28.6,
1482,1,SBT2050,2,3,,4,21758,2.499872,-0.2388,2803.465,2992.155,28.3,
1482,1,SBT2050,2,3,,4,21792,2.499848,-0.22154,2803.465,2994.327,28.1,
1482,1,SBT2050,2,3,,4,21826,2.49988,-0.20539,2803.465,2996.341,27.8,
1482,1,SBT2050,2,3,,4,21860,2.49962,-0.1908,2803.465,2998.211,27.6,
1482,1,SBT2050,2,3,,4,21894,2.49979,-0.17756,2803.465,2999.95,27.5,
1482,1,SBT2050,2,3,,4,21928,2.49962,-0.165,2803.465,3001.567,27.3,
1482,1,SBT2050,2,3,,4,21962,2.4999,-0.15314,2803.465,3003.069,27.2,
1482,1,SBT2050,2,3,,4,21996,2.49976,-0.14244,2803.465,3004.465,27,
1482,1,SBT2050,2,3,,4,22030,2.49974,-0.13187,2803.465,3005.758,26.9,
1482,1,SBT2050,2,3,,4,22064,2.499717,-0.12191,2803.465,3006.956,26.7,
1482,1,SBT2050,2,3,,4,22098,2.49974,-0.11244,2803.465,3008.063,26.6,
1482,1,SBT2050,2,3,,4,22132,2.499872,-0.10348,2803.465,3009.083,26.5,
1482,1,SBT2050,2,3,,4,22166,2.499848,-0.09518,2803.465,3010.022,26.4,
1482,1,SBT2050,2,3,,4,22200,2.499872,-0.0874,2803.465,3010.884,26.4,
1482,1,SBT2050,2,3,,4,22234,2.49988,-0.08004,2803.465,3011.674,26.3,
1482,1,SBT2050,2,3,,4,22268,2.49992,-0.07331,2803.465,3012.399,26.2,
1482,1,SBT2050,2,3,,4,22302,2.49996,-0.06709,2803.465,3013.061,26.1,
1482,1,SBT2050,2,3,,4,22336,2.50006,-0.06133,2803.465,3013.667,26,
1482,1,SBT2050,2,3,,4,22370,2.49996,-0.05611,2803.465,3014.22,26,
1482,1,SBT2050,2,3,,4,22404,2.49982,-0.05142,2803.465,3014.728,25.9,
1482,1,SBT2050,2,3,,4,22438,2.499848,-0.04768,2803.465,3015.196,25.9,
1482,1,SBT2050,2,3,,4,22472,2.49973,-0.043669,2803.465,3015.627,25.8,
1482,1,SBT2050,2,3,,4,22506,2.500027,-0.040794,2803.465,3016.026,25.8,
1482,1,SBT2050,2,3,,4,22540,2.5,-0.037937,2803.465,3016.398,25.8,
1482,1,SBT2050,2,3,,4,22574,2.5,-0.035757,2803.465,3016.746,25.7,
1482,1,SBT2050,2,3,,4,22608,2.49996,-0.033532,2803.465,3017.072,25.7,
1482,1,SBT2050,2,3,,4,22642,2.49993,-0.031586,2803.465,3017.379,25.7,
1482,1,SBT2050,2,3,,4,22676,2.50004,-0.029912,2803.465,3017.668,25.6,
1482,1,SBT2050,2,3,,4,22710,2.499872,-0.028252,2803.465,3017.942,25.6,
1482,1,SBT2050,2,3,,4,22744,2.49988,-0.026776,2803.465,3018.202,25.6,
1482,1,SBT2050,2,3,,4,22778,2.5,-0.025413,2803.465,3018.45,25.6,
1482,1,SBT2050,2,3,,4,22812,2.49996,-0.024318,2803.465,3018.685,25.5,
1482,1,SBT2050,2,3,,4,22846,2.50015,-0.02324,2803.465,3018.909,25.5,
1482,1,SBT2050,2,3,,4,22880,2.50009,-0.022164,2803.465,3019.123,25.5,
1482,1,SBT2050,2,3,,4,22914,2.50009,-0.021115,2803.465,3019.328,25.5,
1482,1,SBT2050,2,3,,4,22948,2.50006,-0.020197,2803.465,3019.523,25.5,
1482,1,SBT2050,2,3,,4,22982,2.49992,-0.019298,2803.465,3019.71,25.5,
1482,1,SBT2050,2,3,,4,23016,2.500027,-0.018472,2803.465,3019.889,25.5,
1482,1,SBT2050,2,3,,4,23050,2.49988,-0.017745,2803.465,3020.06,25.5,
1482,1,SBT2050,2,3,,4,23084,2.500027,-0.01709,2803.465,3020.225,25.4,
1482,1,SBT2050,2,3,,4,23118,2.499848,-0.016405,2803.465,3020.383,25.4,
1482,1,SBT2050,2,3,,4,23152,2.49993,-0.0158,2803.465,3020.535,25.4,
1482,1,SBT2050,2,3,,4,23186,2.5001,-0.015229,2803.465,3020.681,25.4,
1482,1,SBT2050,2,3,,4,23220,2.49998,-0.014771,2803.465,3020.822,25.4,
1482,1,SBT2050,2,3,,4,23254,2.49993,-0.014078,2803.465,3020.959,25.3,
1482,1,SBT2050,2,3,,4,23288,2.49991,-0.013639,2803.465,3021.091,25.4,
1482,1,SBT2050,2,3,,4,23322,2.49992,-0.013164,2803.465,3021.219,25.4,
1482,1,SBT2050,2,3,,4,23356,2.50011,-0.012875,2803.465,3021.342,25.3,
1482,1,SBT2050,2,3,,4,23390,2.5,-0.012531,2803.465,3021.463,25.4,
1482,1,SBT2050,2,3,,4,23424,2.50011,-0.012352,2803.465,3021.581,25.3,
1482,1,SBT2050,2,3,,4,23458,2.50004,-0.012026,2803.465,3021.695,25.3,
1482,1,SBT2050,2,3,,4,23492,2.50011,-0.011807,2803.465,3021.807,25.3,
1482,1,SBT2050,2,3,,4,23526,2.50005,-0.011476,2803.465,3021.917,25.2,
1482,1,SBT2050,2,3,,4,23560,2.50005,-0.011287,2803.465,3022.024,25.3,
1482,1,SBT2050,2,3,,4,23594,2.49994,-0.010971,2803.465,3022.13,25.3,
1482,1,SBT2050,2,3,,4,23628,2.50009,-0.010923,2803.465,3022.233,25.3,
1482,1,SBT2050,2,3,,4,23662,2.49998,-0.01069,2803.465,3022.335,25.3,
1482,1,SBT2050,2,3,,4,23696,2.50004,-0.010646,2803.465,3022.436,25.3,
1482,1,SBT2050,2,3,,4,23730,2.4999,-0.010397,2803.465,3022.535,25.3,
1482,1,SBT2050,2,3,,4,23764,2.49996,-0.010324,2803.465,3022.632,25.3,
1482,1,SBT2050,2,3,,5,23797,2.51651,0,2803.465,3022.675,25.2,
1482,1,SBT2050,2,3,,5,23831,2.53653,0,2803.465,3022.675,25.2,
1482,1,SBT2050,2,3,,5,23865,2.55421,0,2803.465,3022.675,25.2,
1482,1,SBT2050,2,3,,5,23899,2.56999,0,2803.465,3022.675,25.2,
1482,1,SBT2050,2,3,,5,23933,2.58441,0,2803.465,3022.675,25.2,
1482,1,SBT2050,2,3,,5,23967,2.59791,0,2803.465,3022.675,25.2,
1482,1,SBT2050,2,3,,5,24001,2.61044,0,2803.465,3022.675,25.2,
1482,1,SBT2050,2,3,,5,24035,2.622157,0,2803.465,3022.675,25.2,
1482,1,SBT2050,2,3,,5,24069,2.63229,0,2803.465,3022.675,25.3,
1482,1,SBT2050,2,3,,5,24103,2.64235,0,2803.465,3022.675,25.3,
1482,1,SBT2050,2,3,,5,24137,2.65134,0,2803.465,3022.675,25.2,
1482,1,SBT2050,2,3,,5,24171,2.6596,0,2803.465,3022.675,25.3,
1482,1,SBT2050,2,3,,5,24205,2.66751,0,2803.465,3022.675,25.2,
1482,1,SBT2050,2,3,,5,24239,2.6749,0,2803.465,3022.675,25.2,
1482,1,SBT2050,2,3,,5,24273,2.68179,0,2803.465,3022.675,25.2,
1482,1,SBT2050,2,3,,5,24307,2.6881,0,2803.465,3022.675,25.2,
1482,1,SBT2050,2,3,,5,24341,2.693971,0,2803.465,3022.675,25.2,
1482,1,SBT2050,2,3,,5,24375,2.699787,0,2803.465,3022.675,25.3,
1482,1,SBT2050,2,3,,5,24409,2.70511,0,2803.465,3022.675,25.3,
1482,1,SBT2050,2,3,,5,24443,2.710277,0,2803.465,3022.675,25.3,
1482,1,SBT2050,2,3,,5,24477,2.71491,0,2803.465,3022.675,25.2,
1482,1,SBT2050,2,3,,5,24511,2.71966,0,2803.465,3022.675,25.3,
1482,1,SBT2050,2,3,,5,24545,2.72388,0,2803.465,3022.675,25.2,
1482,1,SBT2050,2,3,,5,24579,2.72802,0,2803.465,3022.675,25.2,
1482,1,SBT2050,2,3,,5,24613,2.73155,0,2803.465,3022.675,25.2,
1482,1,SBT2050,2,3,,5,24647,2.73522,0,2803.465,3022.675,25.2,
1482,1,SBT2050,2,3,,5,24681,2.73877,0,2803.465,3022.675,25.2,
1482,1,SBT2050,2,3,,5,24715,2.74194,0,2803.465,3022.675,25.2,
1482,1,SBT2050,2,3,,5,24749,2.745274,0,2803.465,3022.675,25.2,
1482,1,SBT2050,2,3,,5,24783,2.74823,0,2803.465,3022.675,25.3,
1482,1,SBT2050,2,3,,5,24817,2.75103,0,2803.465,3022.675,25.2,
1482,1,SBT2050,2,3,,5,24851,2.75363,0,2803.465,3022.675,25.2,
1482,1,SBT2050,2,3,,5,24885,2.7563,0,2803.465,3022.675,25.2,
1482,1,SBT2050,2,3,,5,24919,2.759032,0,2803.465,3022.675,25.2,
1482,1,SBT2050,2,3,,5,24953,2.76132,0,2803.465,3022.675,25.2,
1482,1,SBT2050,2,3,,5,24987,2.76351,0,2803.465,3022.675,25.2,
1482,1,SBT2050,2,3,,5,25021,2.76565,0,2803.465,3022.675,25.2,
1482,1,SBT2050,2,3,,5,25055,2.76794,0,2803.465,3022.675,25.2,
1482,1,SBT2050,2,3,,5,25089,2.76994,0,2803.465,3022.675,25.2,
1482,1,SBT2050,2,3,,5,25123,2.77203,0,2803.465,3022.675,25.2,
1482,1,SBT2050,2,3,,5,25157,2.773862,0,2803.465,3022.675,25.2,
1482,1,SBT2050,2,3,,5,25191,2.77561,0,2803.465,3022.675,25.2,
1482,1,SBT2050,2,3,,5,25225,2.77762,0,2803.465,3022.675,25.2,
1482,1,SBT2050,2,3,,5,25259,2.77932,0,2803.465,3022.675,25.2,
1482,1,SBT2050,2,3,,5,25293,2.78103,0,2803.465,3022.675,25.2,
1482,1,SBT2050,2,3,,5,25327,2.78269,0,2803.465,3022.675,25.2,
1482,1,SBT2050,2,3,,5,25361,2.78434,0,2803.465,3022.675,25.2,
1482,1,SBT2050,2,3,,5,25395,2.78568,0,2803.465,3022.675,25.2,
1482,1,SBT2050,2,3,,5,25429,2.78742,0,2803.465,3022.675,25.2,
1482,1,SBT2050,2,3,,5,25463,2.7888,0,2803.465,3022.675,25.2,
1482,1,SBT2050,2,3,,5,25497,2.79025,0,2803.465,3022.675,25.2,
1482,1,SBT2050,2,3,,5,25531,2.79155,0,2803.465,3022.675,25.2,
1482,1,SBT2050,2,3,,5,25565,2.79293,0,2803.465,3022.675,25.2,
1482,1,SBT2050,2,3,,5,25579.028,2.793269,-0.0001,2803.465,3022.675,,