File: ORRG/Test1581.csv
Request Year:,2018,,,,,,,,,,,,
Test:,1581,,,,,,,,,,,,
Test Description:,,,,,,,,,,,,,
TestRegime Name:,Aging_test caseB_1,,,,,,,,,,,,
TestRegime Suffix:,SHP_LC,,,,,,,,,,,,
TestRegime CellSize:,18650,,,,,,,,,,,,
TestRegime Version:,3,,,,,,,,,,,,
Number Of Cells:,1,,,,,,,,,,,,
LotID:,,,,,,,,,,,,,
Lot Description:,,,,,,,,,,,,,
Date Made:,1/21/2003 12:00 AM,,,,,,,,,,,,
Origin:,Other,,,,,,,,,,,,
Requestor:,Admin,,,,,,,,,,,,
Product ID:,Default product,,,,,,,,,,,,
Storage Temp:,R.T./AMB,,,,,,,,,,,,
Storage Delay:,0 days,,,,,,,,,,,,
Test Temp:,R.T./AMB,,,,,,,,,,,,
Start Time:,4/28/2018 12:29 PM,,,,,,,,,,,,
End Time:,4/28/2018 1:44 PM,,,,,,,,,,,,
Operator Instructions:,,,,,,,,,,,,,
Test,Cell,Rack,Shelf,Position,Cell ID,Step,Total Time (Seconds),Voltage (V),Current (A),Charge Capacity (mAh),Discharge Capacity (mAh),Trs (Â°C),
1581,1,SBT2050,2,3,,0,0.1,3.31612,0,0,0,,
1581,1,SBT2050,2,3,,0,4.8,3.31641,0,0,0,,
1581,1,SBT2050,2,3,,0,9.5,3.31653,0,0,0,,
1581,1,SBT2050,2,3,,0,14.2,3.3166,0,0,0,,
1581,1,SBT2050,2,3,,0,18.9,3.31631,0,0,0,,
1581,1,SBT2050,2,3,,0,23.6,3.3162,0,0,0,,
1581,1,SBT2050,2,3,,0,28.3,3.31631,0,0,0,,
1581,1,SBT2050,2,3,,0,33,3.316402,0,0,0,,
1581,1,SBT2050,2,3,,0,37.7,3.31642,0,0,0,,
1581,1,SBT2050,2,3,,0,42.4,3.31632,0,0,0,,
1581,1,SBT2050,2,3,,0,47.1,3.316362,0,0,0,,
1581,1,SBT2050,2,3,,0,51.8,3.316271,0,0,0,,
1581,1,SBT2050,2,3,,0,56.5,3.31625,0,0,0,,
1581,1,SBT2050,2,3,,0,61.2,3.316078,0,0,0,,
1581,1,SBT2050,2,3,,0,65.9,3.31643,0,0,0,,
1581,1,SBT2050,2,3,,0,70.6,3.31646,0,0,0,,
1581,1,SBT2050,2,3,,0,75.3,3.31658,0,0,0,,
1581,1,SBT2050,2,3,,0,80,3.31655,0,0,0,,
1581,1,SBT2050,2,3,,0,84.7,3.31641,0,0,0,,
1581,1,SBT2050,2,3,,0,89.4,3.31658,0,0,0,,
1581,1,SBT2050,2,3,,0,94.1,3.31652,0,0,0,,
1581,1,SBT2050,2,3,,0,98.8,3.31677,0,0,0,,
1581,1,SBT2050,2,3,,0,103.5,3.31668,0,0,0,,
1581,1,SBT2050,2,3,,0,108.2,3.31658,0,0,0,,
1581,1,SBT2050,2,3,,0,112.9,3.31664,0,0,0,,
1581,1,SBT2050,2,3,,0,117.6,3.31701,0,0,0,,
1581,1,SBT2050,2,3,,0,122.3,3.316745,0,0,0,,
1581,1,SBT2050,2,3,,0,127,3.31665,0,0,0,24.9,
1581,1,SBT2050,2,3,,0,131.7,3.31683,0,0,0,,
1581,1,SBT2050,2,3,,0,136.4,3.316931,0,0,0,,
1581,1,SBT2050,2,3,,0,141.1,3.316686,0,0,0,,
1581,1,SBT2050,2,3,,0,145.8,3.316638,0,0,0,,
1581,1,SBT2050,2,3,,0,150.5,3.31643,0,0,0,,
1581,1,SBT2050,2,3,,0,155.2,3.31665,0,0,0,,
1581,1,SBT2050,2,3,,0,159.9,3.31665,0,0,0,,
1581,1,SBT2050,2,3,,0,164.6,3.316621,0,0,0,,
1581,1,SBT2050,2,3,,0,169.3,3.31679,0,0,0,,
1581,1,SBT2050,2,3,,0,174,3.31681,0,0,0,,
1581,1,SBT2050,2,3,,0,178.7,3.31668,0,0,0,,
1581,1,SBT2050,2,3,,0,183.4,3.31661,0,0,0,,
1581,1,SBT2050,2,3,,0,188.1,3.31672,0,0,0,,
1581,1,SBT2050,2,3,,0,192.8,3.31676,0,0,0,,
1581,1,SBT2050,2,3,,0,197.5,3.31675,0,0,0,,
1581,1,SBT2050,2,3,,0,202.2,3.31667,0,0,0,,
1581,1,SBT2050,2,3,,0,206.9,3.31679,0,0,0,,
1581,1,SBT2050,2,3,,0,211.6,3.31671,0,0,0,,
1581,1,SBT2050,2,3,,0,216.3,3.31667,0,0,0,,
1581,1,SBT2050,2,3,,0,221,3.31672,0,0,0,,
1581,1,SBT2050,2,3,,0,225.7,3.31677,0,0,0,,
1581,1,SBT2050,2,3,,0,230.4,3.31669,0,0,0,,
1581,1,SBT2050,2,3,,0,235.1,3.31692,0,0,0,,
1581,1,SBT2050,2,3,,0,239.8,3.31687,0,0,0,,
1581,1,SBT2050,2,3,,0,244.5,3.31675,0,0,0,,
1581,1,SBT2050,2,3,,0,249.2,3.3168,0,0,0,,
1581,1,SBT2050,2,3,,0,253.9,3.3171,0,0,0,,
1581,1,SBT2050,2,3,,0,258.6,3.316952,0,0,0,,
1581,1,SBT2050,2,3,,0,263.3,3.31705,0,0,0,,
1581,1,SBT2050,2,3,,0,268,3.31702,0,0,0,,
1581,1,SBT2050,2,3,,0,272.7,3.31696,0,0,0,,
1581,1,SBT2050,2,3,,0,277.4,3.31689,0,0,0,,
1581,1,SBT2050,2,3,,0,282.1,3.31712,0,0,0,,
1581,1,SBT2050,2,3,,0,286.8,3.31676,0,0,0,,
1581,1,SBT2050,2,3,,0,291.5,3.31713,0,0,0,,
1581,1,SBT2050,2,3,,0,296.2,3.31723,0,0,0,,
1581,1,SBT2050,2,3,,0,300.9,3.31718,0,0,0,,
1581,1,SBT2050,2,3,,0,305.6,3.317398,0,0,0,,
1581,1,SBT2050,2,3,,0,310.3,3.317244,0,0,0,,
1581,1,SBT2050,2,3,,0,315,3.317075,0,0,0,,
1581,1,SBT2050,2,3,,0,319.7,3.31725,0,0,0,,
1581,1,SBT2050,2,3,,0,324.4,3.31719,0,0,0,,
1581,1,SBT2050,2,3,,0,329.1,3.31697,0,0,0,,
1581,1,SBT2050,2,3,,0,333.8,3.317005,0,0,0,,
1581,1,SBT2050,2,3,,0,338.5,3.31721,0,0,0,,
1581,1,SBT2050,2,3,,0,343.2,3.3171,0,0,0,,
1581,1,SBT2050,2,3,,0,347.9,3.3169,0,0,0,,
1581,1,SBT2050,2,3,,0,352.6,3.316919,0,0,0,,
1581,1,SBT2050,2,3,,0,357.3,3.31702,0,0,0,,
1581,1,SBT2050,2,3,,0,362,3.317,0,0,0,,
1581,1,SBT2050,2,3,,0,366.7,3.31687,0,0,0,,
1581,1,SBT2050,2,3,,0,371.4,3.31694,0,0,0,,
1581,1,SBT2050,2,3,,0,376.1,3.317,0,0,0,,
1581,1,SBT2050,2,3,,0,380.8,3.31724,0,0,0,,
1581,1,SBT2050,2,3,,0,385.5,3.31711,0,0,0,,
1581,1,SBT2050,2,3,,0,390.2,3.31732,0,0,0,,
1581,1,SBT2050,2,3,,0,394.9,3.31727,0,0,0,,
1581,1,SBT2050,2,3,,0,399.6,3.31709,0,0,0,,
1581,1,SBT2050,2,3,,0,404.3,3.317239,0,0,0,,
1581,1,SBT2050,2,3,,0,409,3.31725,0,0,0,,
1581,1,SBT2050,2,3,,0,413.7,3.31711,0,0,0,,
1581,1,SBT2050,2,3,,0,418.4,3.317282,0,0,0,,
1581,1,SBT2050,2,3,,0,423.1,3.317326,0,0,0,,
1581,1,SBT2050,2,3,,0,427.8,3.31733,0,0,0,,
1581,1,SBT2050,2,3,,0,432.5,3.317379,0,0,0,,
1581,1,SBT2050,2,3,,0,437.2,3.31718,0,0,0,,
1581,1,SBT2050,2,3,,0,441.9,3.31711,0,0,0,,
1581,1,SBT2050,2,3,,0,446.6,3.31743,0,0,0,,
1581,1,SBT2050,2,3,,0,451.3,3.31722,0,0,0,,
1581,1,SBT2050,2,3,,0,456,3.31738,0,0,0,,
1581,1,SBT2050,2,3,,0,460.7,3.317351,0,0,0,,
1581,1,SBT2050,2,3,,0,465.4,3.31743,0,0,0,,
1581,1,SBT2050,2,3,,0,470.1,3.31729,0,0,0,,
1581,1,SBT2050,2,3,,0,474.8,3.31728,0,0,0,,
1581,1,SBT2050,2,3,,0,479.5,3.31748,0,0,0,,
1581,1,SBT2050,2,3,,0,484.2,3.31755,0,0,0,,
1581,1,SBT2050,2,3,,0,488.9,3.31743,0,0,0,,
1581,1,SBT2050,2,3,,0,493.6,3.317476,0,0,0,,
1581,1,SBT2050,2,3,,0,498.3,3.3176,0,0,0,,
1581,1,SBT2050,2,3,,0,503,3.3176,0,0,0,,
1581,1,SBT2050,2,3,,0,507.7,3.31731,0,0,0,,
1581,1,SBT2050,2,3,,0,512.4,3.31741,0,0,0,,
1581,1,SBT2050,2,3,,0,517.1,3.31739,0,0,0,,
1581,1,SBT2050,2,3,,0,521.8,3.31748,0,0,0,,
1581,1,SBT2050,2,3,,0,526.5,3.31739,0,0,0,,
1581,1,SBT2050,2,3,,0,531.2,3.31735,0,0,0,,
1581,1,SBT2050,2,3,,0,535.9,3.31752,0,0,0,,
1581,1,SBT2050,2,3,,0,540.6,3.317355,0,0,0,,
1581,1,SBT2050,2,3,,0,545.3,3.31748,0,0,0,,
1581,1,SBT2050,2,3,,0,550,3.31734,0,0,0,,
1581,1,SBT2050,2,3,,0,554.7,3.31766,0,0,0,,
1581,1,SBT2050,2,3,,0,559.4,3.31752,0,0,0,,
1581,1,SBT2050,2,3,,0,564.1,3.31758,0,0,0,,
1581,1,SBT2050,2,3,,0,568.8,3.317611,0,0,0,,
1581,1,SBT2050,2,3,,0,573.5,3.31764,0,0,0,,
1581,1,SBT2050,2,3,,0,578.2,3.31742,0,0,0,,
1581,1,SBT2050,2,3,,0,582.9,3.31781,0,0,0,,
1581,1,SBT2050,2,3,,0,587.6,3.3177,0,0,0,,
1581,1,SBT2050,2,3,,0,592.3,3.31784,0,0,0,,
1581,1,SBT2050,2,3,,0,597,3.31777,0,0,0,,
1581,1,SBT2050,2,3,,0,601.7,3.317587,0,0,0,,
1581,1,SBT2050,2,3,,0,606.4,3.31773,0,0,0,,
1581,1,SBT2050,2,3,,0,611.1,3.31759,0,0,0,,
1581,1,SBT2050,2,3,,0,615.8,3.31755,0,0,0,,
1581,1,SBT2050,2,3,,0,620.5,3.31765,0,0,0,,
1581,1,SBT2050,2,3,,0,625.2,3.317681,0,0,0,,
1581,1,SBT2050,2,3,,0,629.9,3.31753,0,0,0,,
1581,1,SBT2050,2,3,,0,634.6,3.3175,0,0,0,,
1581,1,SBT2050,2,3,,0,639.3,3.317696,0,0,0,,
1581,1,SBT2050,2,3,,0,644,3.31756,0,0,0,,
1581,1,SBT2050,2,3,,0,648.7,3.31783,0,0,0,,
1581,1,SBT2050,2,3,,0,653.4,3.317563,0,0,0,,
1581,1,SBT2050,2,3,,0,658.1,3.317731,0,0,0,,
1581,1,SBT2050,2,3,,0,662.8,3.31775,0,0,0,,
1581,1,SBT2050,2,3,,0,667.5,3.31767,0,0,0,,
1581,1,SBT2050,2,3,,0,672.2,3.31772,0,0,0,,
1581,1,SBT2050,2,3,,0,676.9,3.31787,0,0,0,,
1581,1,SBT2050,2,3,,0,681.6,3.31791,0,0,0,,
1581,1,SBT2050,2,3,,0,686.3,3.31765,0,0,0,,
1581,1,SBT2050,2,3,,0,691,3.317774,0,0,0,,
1581,1,SBT2050,2,3,,0,695.7,3.31782,0,0,0,,
1581,1,SBT2050,2,3,,0,700.4,3.31776,0,0,0,,
1581,1,SBT2050,2,3,,0,705.1,3.31783,0,0,0,,
1581,1,SBT2050,2,3,,0,709.8,3.3178,0,0,0,,
1581,1,SBT2050,2,3,,0,714.5,3.317843,0,0,0,,
1581,1,SBT2050,2,3,,0,719.2,3.317732,0,0,0,,
1581,1,SBT2050,2,3,,0,723.9,3.31752,0,0,0,,
1581,1,SBT2050,2,3,,0,728.6,3.31778,0,0,0,,
1581,1,SBT2050,2,3,,0,733.3,3.31778,0,0,0,,
1581,1,SBT2050,2,3,,0,738,3.31785,0,0,0,,
1581,1,SBT2050,2,3,,0,742.7,3.31776,0,0,0,,
1581,1,SBT2050,2,3,,0,747.4,3.31765,0,0,0,,
1581,1,SBT2050,2,3,,0,752.1,3.317568,0,0,0,,
1581,1,SBT2050,2,3,,0,756.8,3.31789,0,0,0,,
1581,1,SBT2050,2,3,,0,761.5,3.31763,0,0,0,,
1581,1,SBT2050,2,3,,0,766.2,3.3177,0,0,0,,
1581,1,SBT2050,2,3,,0,770.9,3.31787,0,0,0,,
1581,1,SBT2050,2,3,,0,775.6,3.31775,0,0,0,,
1581,1,SBT2050,2,3,,0,780.3,3.317979,0,0,0,,
1581,1,SBT2050,2,3,,0,785,3.31794,0,0,0,,
1581,1,SBT2050,2,3,,0,789.7,3.31789,0,0,0,,
1581,1,SBT2050,2,3,,0,794.4,3.31793,0,0,0,,
1581,1,SBT2050,2,3,,0,799.1,3.31783,0,0,0,,
1581,1,SBT2050,2,3,,0,803.8,3.31788,0,0,0,,
1581,1,SBT2050,2,3,,0,808.5,3.31777,0,0,0,,
1581,1,SBT2050,2,3,,0,813.2,3.31785,0,0,0,,
1581,1,SBT2050,2,3,,0,817.9,3.31793,0,0,0,,
1581,1,SBT2050,2,3,,0,822.6,3.31788,0,0,0,,
1581,1,SBT2050,2,3,,0,827.3,3.318041,0,0,0,,
1581,1,SBT2050,2,3,,0,832,3.31793,0,0,0,,
1581,1,SBT2050,2,3,,0,836.7,3.31802,0,0,0,,
1581,1,SBT2050,2,3,,0,841.4,3.31784,0,0,0,,
1581,1,SBT2050,2,3,,0,846.1,3.31805,0,0,0,,
1581,1,SBT2050,2,3,,0,850.8,3.31804,0,0,0,,
1581,1,SBT2050,2,3,,0,855.5,3.318163,0,0,0,,
1581,1,SBT2050,2,3,,0,860.2,3.31801,0,0,0,,
1581,1,SBT2050,2,3,,0,864.9,3.31802,0,0,0,,
1581,1,SBT2050,2,3,,0,869.6,3.31804,0,0,0,,
1581,1,SBT2050,2,3,,0,874.3,3.31814,0,0,0,,
1581,1,SBT2050,2,3,,0,879,3.31818,0,0,0,,
1581,1,SBT2050,2,3,,0,883.7,3.31809,0,0,0,,
1581,1,SBT2050,2,3,,0,888.4,3.31818,0,0,0,,
1581,1,SBT2050,2,3,,0,893.1,3.31797,0,0,0,,
1581,1,SBT2050,2,3,,0,897.8,3.31807,0,0,0,,
1581,1,SBT2050,2,3,,0,902.5,3.31792,0,0,0,,
1581,1,SBT2050,2,3,,0,907.2,3.31798,0,0,0,,
1581,1,SBT2050,2,3,,0,911.9,3.31808,0,0,0,,
1581,1,SBT2050,2,3,,0,916.6,3.3182,0,0,0,,
1581,1,SBT2050,2,3,,0,921.3,3.318,0,0,0,,
1581,1,SBT2050,2,3,,0,926,3.31811,0,0,0,,
1581,1,SBT2050,2,3,,0,930.7,3.31814,0,0,0,,
1581,1,SBT2050,2,3,,0,935.4,3.3181,0,0,0,,
1581,1,SBT2050,2,3,,0,940.1,3.31819,0,0,0,,
1581,1,SBT2050,2,3,,0,944.8,3.31805,0,0,0,,
1581,1,SBT2050,2,3,,0,949.5,3.318109,0,0,0,,
1581,1,SBT2050,2,3,,0,954.2,3.3179,0,0,0,,
1581,1,SBT2050,2,3,,0,958.9,3.318221,0,0,0,,
1581,1,SBT2050,2,3,,0,963.6,3.31801,0,0,0,,
1581,1,SBT2050,2,3,,0,968.3,3.31789,0,0,0,,
1581,1,SBT2050,2,3,,0,973,3.31798,0,0,0,,
1581,1,SBT2050,2,3,,0,977.7,3.31808,0,0,0,,
1581,1,SBT2050,2,3,,0,982.4,3.31821,0,0,0,,
1581,1,SBT2050,2,3,,0,987.1,3.31792,0,0,0,,
1581,1,SBT2050,2,3,,0,991.8,3.31806,0,0,0,,
1581,1,SBT2050,2,3,,0,996.5,3.31801,0,0,0,,
1581,1,SBT2050,2,3,,0,1001.2,3.31803,0,0,0,,
1581,1,SBT2050,2,3,,0,1005.9,3.31792,0,0,0,,
1581,1,SBT2050,2,3,,0,1010.6,3.31803,0,0,0,,
1581,1,SBT2050,2,3,,0,1015.3,3.31793,0,0,0,,
1581,1,SBT2050,2,3,,0,1020,3.317969,0,0,0,24.9,
1581,1,SBT2050,2,3,,0,1024.7,3.31806,0,0,0,,
1581,1,SBT2050,2,3,,0,1029.4,3.31794,0,0,0,,
1581,1,SBT2050,2,3,,0,1034.1,3.31828,0,0,0,,
1581,1,SBT2050,2,3,,0,1038.8,3.31812,0,0,0,,
1581,1,SBT2050,2,3,,0,1043.5,3.31804,0,0,0,,
1581,1,SBT2050,2,3,,0,1048.2,3.31839,0,0,0,,
1581,1,SBT2050,2,3,,0,1052.9,3.31822,0,0,0,,
1581,1,SBT2050,2,3,,0,1057.6,3.318185,0,0,0,,
1581,1,SBT2050,2,3,,0,1062.3,3.318224,0,0,0,,
1581,1,SBT2050,2,3,,0,1067,3.3185,0,0,0,,
1581,1,SBT2050,2,3,,0,1071.7,3.31832,0,0,0,,
1581,1,SBT2050,2,3,,0,1076.4,3.31838,0,0,0,,
1581,1,SBT2050,2,3,,0,1081.1,3.31841,0,0,0,,
1581,1,SBT2050,2,3,,0,1085.8,3.31815,0,0,0,,
1581,1,SBT2050,2,3,,0,1090.5,3.31842,0,0,0,,
1581,1,SBT2050,2,3,,0,1095.2,3.31847,0,0,0,,
1581,1,SBT2050,2,3,,0,1099.9,3.31824,0,0,0,,
1581,1,SBT2050,2,3,,0,1104.6,3.31841,0,0,0,,
1581,1,SBT2050,2,3,,0,1109.3,3.318276,0,0,0,,
1581,1,SBT2050,2,3,,0,1114,3.31833,0,0,0,,
1581,1,SBT2050,2,3,,0,1118.7,3.31833,0,0,0,,
1581,1,SBT2050,2,3,,0,1123.4,3.31826,0,0,0,,
1581,1,SBT2050,2,3,,0,1128.1,3.31824,0,0,0,,
1581,1,SBT2050,2,3,,0,1132.8,3.318122,0,0,0,,
1581,1,SBT2050,2,3,,0,1137.5,3.31838,0,0,0,,
1581,1,SBT2050,2,3,,0,1142.2,3.318139,0,0,0,,
1581,1,SBT2050,2,3,,0,1146.9,3.318331,0,0,0,,
1581,1,SBT2050,2,3,,0,1151.6,3.318233,0,0,0,,
1581,1,SBT2050,2,3,,0,1156.3,3.31835,0,0,0,,
1581,1,SBT2050,2,3,,0,1161,3.31834,0,0,0,,
1581,1,SBT2050,2,3,,0,1165.7,3.31817,0,0,0,,
1581,1,SBT2050,2,3,,0,1170.4,3.31862,0,0,0,,
1581,1,SBT2050,2,3,,0,1175.1,3.31832,0,0,0,,
1581,1,SBT2050,2,3,,0,1179.8,3.31828,0,0,0,,
1581,1,SBT2050,2,3,,0,1184.5,3.318417,0,0,0,,
1581,1,SBT2050,2,3,,0,1189.2,3.31844,0,0,0,,
1581,1,SBT2050,2,3,,0,1193.9,3.31844,0,0,0,,
1581,1,SBT2050,2,3,,0,1198.6,3.31847,0,0,0,,
1581,1,SBT2050,2,3,,0,1203.3,3.31846,0,0,0,,
1581,1,SBT2050,2,3,,0,1208,3.31851,0,0,0,,
1581,1,SBT2050,2,3,,0,1212.7,3.31857,0,0,0,,
1581,1,SBT2050,2,3,,0,1217.4,3.31852,0,0,0,,
1581,1,SBT2050,2,3,,0,1222.1,3.31851,0,0,0,,
1581,1,SBT2050,2,3,,0,1226.8,3.31824,0,0,0,,
1581,1,SBT2050,2,3,,0,1231.5,3.31833,0,0,0,,
1581,1,SBT2050,2,3,,0,1236.2,3.31833,0,0,0,,
1581,1,SBT2050,2,3,,0,1240.9,3.31841,0,0,0,,
1581,1,SBT2050,2,3,,0,1245.6,3.318375,0,0,0,,
1581,1,SBT2050,2,3,,0,1250.3,3.31843,0,0,0,,
1581,1,SBT2050,2,3,,0,1255,3.3186,0,0,0,,
1581,1,SBT2050,2,3,,0,1259.7,3.31835,0,0,0,,
1581,1,SBT2050,2,3,,0,1264.4,3.31847,0,0,0,,
1581,1,SBT2050,2,3,,0,1269.1,3.31839,0,0,0,,
1581,1,SBT2050,2,3,,0,1273.8,3.3183,0,0,0,,
1581,1,SBT2050,2,3,,0,1278.5,3.31843,0,0,0,,
1581,1,SBT2050,2,3,,0,1283.2,3.318286,0,0,0,,
1581,1,SBT2050,2,3,,0,1287.9,3.31827,0,0,0,,
1581,1,SBT2050,2,3,,0,1292.6,3.31856,0,0,0,,
1581,1,SBT2050,2,3,,0,1297.3,3.31854,0,0,0,,
1581,1,SBT2050,2,3,,0,1302,3.318519,0,0,0,,
1581,1,SBT2050,2,3,,0,1306.7,3.31853,0,0,0,,
1581,1,SBT2050,2,3,,0,1311.4,3.31873,0,0,0,,
1581,1,SBT2050,2,3,,0,1316.1,3.31831,0,0,0,,
1581,1,SBT2050,2,3,,0,1320.8,3.31859,0,0,0,,
1581,1,SBT2050,2,3,,0,1325.5,3.31852,0,0,0,,
1581,1,SBT2050,2,3,,0,1330.2,3.31872,0,0,0,,
1581,1,SBT2050,2,3,,0,1334.9,3.31857,0,0,0,,
1581,1,SBT2050,2,3,,0,1339.6,3.31864,0,0,0,,
1581,1,SBT2050,2,3,,0,1344.3,3.31857,0,0,0,,
1581,1,SBT2050,2,3,,0,1349,3.31852,0,0,0,,
1581,1,SBT2050,2,3,,0,1353.7,3.31876,0,0,0,,
1581,1,SBT2050,2,3,,0,1358.4,3.31846,0,0,0,,
1581,1,SBT2050,2,3,,0,1363.1,3.31865,0,0,0,,
1581,1,SBT2050,2,3,,0,1367.8,3.31856,0,0,0,,
1581,1,SBT2050,2,3,,0,1372.5,3.318636,0,0,0,,
1581,1,SBT2050,2,3,,0,1377.2,3.31865,0,0,0,,
1581,1,SBT2050,2,3,,0,1381.9,3.31868,0,0,0,,
1581,1,SBT2050,2,3,,0,1386.6,3.31867,0,0,0,,
1581,1,SBT2050,2,3,,0,1391.3,3.31866,0,0,0,,
1581,1,SBT2050,2,3,,0,1396,3.31872,0,0,0,24.9,
1581,1,SBT2050,2,3,,0,1400.7,3.318814,0,0,0,,
1581,1,SBT2050,2,3,,0,1405.4,3.318969,0,0,0,,
1581,1,SBT2050,2,3,,0,1410.1,3.31881,0,0,0,,
1581,1,SBT2050,2,3,,0,1414.8,3.31893,0,0,0,,
1581,1,SBT2050,2,3,,0,1419.5,3.31877,0,0,0,,
1581,1,SBT2050,2,3,,0,1424.2,3.3187,0,0,0,,
1581,1,SBT2050,2,3,,0,1428.9,3.31851,0,0,0,,
1581,1,SBT2050,2,3,,0,1433.6,3.31874,0,0,0,,
1581,1,SBT2050,2,3,,0,1438.3,3.31889,0,0,0,,
1581,1,SBT2050,2,3,,0,1443,3.31874,0,0,0,,
1581,1,SBT2050,2,3,,0,1447.7,3.31862,0,0,0,,
1581,1,SBT2050,2,3,,0,1452.4,3.31861,0,0,0,,
1581,1,SBT2050,2,3,,0,1457.1,3.31872,0,0,0,,
1581,1,SBT2050,2,3,,0,1461.8,3.318656,0,0,0,,
1581,1,SBT2050,2,3,,0,1466.5,3.318849,0,0,0,,
1581,1,SBT2050,2,3,,0,1471.2,3.31884,0,0,0,,
1581,1,SBT2050,2,3,,0,1475.9,3.31867,0,0,0,,
1581,1,SBT2050,2,3,,0,1480.6,3.31867,0,0,0,,
1581,1,SBT2050,2,3,,0,1485.3,3.31852,0,0,0,,
1581,1,SBT2050,2,3,,0,1490,3.318759,0,0,0,,
1581,1,SBT2050,2,3,,0,1494.7,3.31878,0,0,0,,
1581,1,SBT2050,2,3,,0,1499.4,3.31859,0,0,0,,
1581,1,SBT2050,2,3,,0,1504.1,3.3186,0,0,0,,
1581,1,SBT2050,2,3,,0,1508.8,3.31871,0,0,0,,
1581,1,SBT2050,2,3,,0,1513.5,3.31875,0,0,0,,
1581,1,SBT2050,2,3,,0,1518.2,3.31876,0,0,0,,
1581,1,SBT2050,2,3,,0,1522.9,3.318901,0,0,0,,
1581,1,SBT2050,2,3,,0,1527.6,3.31898,0,0,0,,
1581,1,SBT2050,2,3,,0,1532.3,3.31869,0,0,0,,
1581,1,SBT2050,2,3,,0,1537,3.318687,0,0,0,,
1581,1,SBT2050,2,3,,0,1541.7,3.31851,0,0,0,,
1581,1,SBT2050,2,3,,0,1546.4,3.31867,0,0,0,,
1581,1,SBT2050,2,3,,0,1551.1,3.31892,0,0,0,,
1581,1,SBT2050,2,3,,0,1555.8,3.318664,0,0,0,,
1581,1,SBT2050,2,3,,0,1560.5,3.31886,0,0,0,,
1581,1,SBT2050,2,3,,0,1565.2,3.31866,0,0,0,,
1581,1,SBT2050,2,3,,0,1569.9,3.31867,0,0,0,,
1581,1,SBT2050,2,3,,0,1574.6,3.31894,0,0,0,,
1581,1,SBT2050,2,3,,0,1579.3,3.31886,0,0,0,,
1581,1,SBT2050,2,3,,0,1584,3.3186,0,0,0,,
1581,1,SBT2050,2,3,,0,1588.7,3.31875,0,0,0,,
1581,1,SBT2050,2,3,,0,1593.4,3.31873,0,0,0,,
1581,1,SBT2050,2,3,,0,1598.1,3.31877,0,0,0,,
1581,1,SBT2050,2,3,,0,1602.8,3.31877,0,0,0,,
1581,1,SBT2050,2,3,,0,1607.5,3.31898,0,0,0,,
1581,1,SBT2050,2,3,,0,1612.2,3.31867,0,0,0,,
1581,1,SBT2050,2,3,,0,1616.9,3.31868,0,0,0,,
1581,1,SBT2050,2,3,,0,1621.6,3.31853,0,0,0,,
1581,1,SBT2050,2,3,,0,1626.3,3.31885,0,0,0,,
1581,1,SBT2050,2,3,,0,1631,3.31908,0,0,0,,
1581,1,SBT2050,2,3,,0,1635.7,3.31889,0,0,0,,
1581,1,SBT2050,2,3,,0,1640.4,3.31888,0,0,0,,
1581,1,SBT2050,2,3,,0,1645.1,3.31897,0,0,0,,
1581,1,SBT2050,2,3,,0,1649.8,3.318841,0,0,0,,
1581,1,SBT2050,2,3,,0,1654.5,3.31893,0,0,0,,
1581,1,SBT2050,2,3,,0,1659.2,3.31895,0,0,0,,
1581,1,SBT2050,2,3,,0,1663.9,3.31894,0,0,0,,
1581,1,SBT2050,2,3,,0,1668.6,3.31892,0,0,0,,
1581,1,SBT2050,2,3,,0,1673.3,3.31915,0,0,0,,
1581,1,SBT2050,2,3,,0,1678,3.319019,0,0,0,,
1581,1,SBT2050,2,3,,0,1682.7,3.31879,0,0,0,,
1581,1,SBT2050,2,3,,0,1687.4,3.319069,0,0,0,,
1581,1,SBT2050,2,3,,0,1692.1,3.31923,0,0,0,,
1581,1,SBT2050,2,3,,0,1696.8,3.31891,0,0,0,,
1581,1,SBT2050,2,3,,0,1701.5,3.319,0,0,0,,
1581,1,SBT2050,2,3,,0,1706.2,3.318933,0,0,0,,
1581,1,SBT2050,2,3,,0,1710.9,3.31893,0,0,0,,
1581,1,SBT2050,2,3,,0,1715.6,3.31878,0,0,0,,
1581,1,SBT2050,2,3,,0,1720.3,3.31889,0,0,0,,
1581,1,SBT2050,2,3,,0,1725,3.31887,0,0,0,24.9,
1581,1,SBT2050,2,3,,0,1729.7,3.31886,0,0,0,,
1581,1,SBT2050,2,3,,0,1734.4,3.318932,0,0,0,,
1581,1,SBT2050,2,3,,0,1739.1,3.31894,0,0,0,,
1581,1,SBT2050,2,3,,0,1743.8,3.31885,0,0,0,,
1581,1,SBT2050,2,3,,0,1748.5,3.3189,0,0,0,,
1581,1,SBT2050,2,3,,0,1753.2,3.31897,0,0,0,,
1581,1,SBT2050,2,3,,0,1757.9,3.31901,0,0,0,,
1581,1,SBT2050,2,3,,0,1762.6,3.318997,0,0,0,,
1581,1,SBT2050,2,3,,0,1767.3,3.318877,0,0,0,,
1581,1,SBT2050,2,3,,0,1772,3.31902,0,0,0,25,
1581,1,SBT2050,2,3,,0,1776.7,3.319197,0,0,0,,
1581,1,SBT2050,2,3,,0,1781.4,3.31915,0,0,0,,
1581,1,SBT2050,2,3,,0,1786.1,3.31895,0,0,0,,
1581,1,SBT2050,2,3,,0,1790.8,3.3189,0,0,0,,
1581,1,SBT2050,2,3,,0,1795.5,3.319031,0,0,0,,
1581,1,SBT2050,2,3,,5,1800.2,3.319036,0,0,0,,
1581,1,SBT2050,2,3,,7,1804.8,3.5386,2.4816,1.016,0,,
1581,1,SBT2050,2,3,,7,1809.5,3.74257,5.844,6.445,0,,
1581,1,SBT2050,2,3,,7,1814.1,3.85531,7.583,15.076,0,,
1581,1,SBT2050,2,3,,7,1818.8,3.94098,8.799,25.919,0,,
1581,1,SBT2050,2,3,,7,1823.4,3.9871,9.174,37.461,0,,
1581,1,SBT2050,2,3,,7,1828.1,4.00615,9.021,49.372,0,,
1581,1,SBT2050,2,3,,7,1832.7,3.99999,8.449,60.559,0,,
1581,1,SBT2050,2,3,,7,1837.4,4.00803,8.305,71.49,0,,
1581,1,SBT2050,2,3,,7,1842,4.01469,8.199,82.037,0,27.8,
1581,1,SBT2050,2,3,,7,1846.7,4.019152,8.074,92.66,0,,
1581,1,SBT2050,2,3,,7,1851.3,4.02249,7.974,102.908,0,,
1581,1,SBT2050,2,3,,7,1856,4.02291,7.853,113.229,0,29.2,
1581,1,SBT2050,2,3,,7,1860.6,4.02238,7.742,123.195,0,,
1581,1,SBT2050,2,3,,7,1865.3,4.02157,7.65,133.239,0,,
1581,1,SBT2050,2,3,,7,1869.9,4.01951,7.553,142.947,0,,
1581,1,SBT2050,2,3,,7,1874.5,4.01635,7.449,152.536,0,,
1581,1,SBT2050,2,3,,7,1879.2,4.01375,7.382,162.218,0,,
1581,1,SBT2050,2,3,,7,1883.8,4.00971,7.292,171.589,0,,
1581,1,SBT2050,2,3,,7,1888.5,4.00586,7.211,181.058,0,,
1581,1,SBT2050,2,3,,7,1893.1,4.00221,7.145,190.23,0,,
1581,1,SBT2050,2,3,,7,1897.8,3.9983,7.072,199.51,0,,
1581,1,SBT2050,2,3,,7,1902.4,3.99433,7.002,208.506,0,,
1581,1,SBT2050,2,3,,7,1907.1,3.99116,6.948,217.612,0,,
1581,1,SBT2050,2,3,,7,1911.7,3.98699,6.881,226.444,0,,
1581,1,SBT2050,2,3,,7,1916.4,3.98387,6.827,235.397,0,,
1581,1,SBT2050,2,3,,7,1921,3.980752,6.78,244.093,0,34.2,
1581,1,SBT2050,2,3,,7,1925.7,3.977386,6.724,252.909,0,,
1581,1,SBT2050,2,3,,7,1930.3,3.97439,6.679,261.47,0,,
1581,1,SBT2050,2,3,,7,1935,3.97204,6.634,270.16,0,,
1581,1,SBT2050,2,3,,7,1939.6,3.969218,6.584,278.608,0,,
1581,1,SBT2050,2,3,,7,1944.3,3.967072,6.548,287.181,0,,
1581,1,SBT2050,2,3,,7,1948.9,3.96507,6.516,295.523,0,,
1581,1,SBT2050,2,3,,7,1953.6,3.963,6.474,304,0,,
1581,1,SBT2050,2,3,,7,1958.2,3.96136,6.436,312.249,0,,
1581,1,SBT2050,2,3,,7,1962.9,3.95981,6.407,320.634,0,,
1581,1,SBT2050,2,3,,7,1967.5,3.95834,6.376,328.805,0,,
1581,1,SBT2050,2,3,,7,1972.2,3.95687,6.346,337.112,0,,
1581,1,SBT2050,2,3,,7,1976.8,3.95536,6.303,345.197,0,,
1581,1,SBT2050,2,3,,7,1981.5,3.954218,6.273,353.408,0,,
1581,1,SBT2050,2,3,,7,1986.1,3.95367,6.258,361.415,0,,
1581,1,SBT2050,2,3,,7,1990.8,3.95321,6.238,369.572,0,,
1581,1,SBT2050,2,3,,7,1995.4,3.95236,6.213,377.534,0,,
1581,1,SBT2050,2,3,,7,2000.1,3.95202,6.186,385.628,0,,
1581,1,SBT2050,2,3,,7,2004.7,3.95113,6.153,393.51,0,,
1581,1,SBT2050,2,3,,7,2009.357,3.95031,6.125,401.454,0,,
1581,1,SBT2050,2,3,,7,2014,3.95022,6.107,409.34,0,,
1581,1,SBT2050,2,3,,7,2018.6,3.94972,6.08,417.123,0,,
1581,1,SBT2050,2,3,,7,2023.3,3.94985,6.058,425.045,0,,
1581,1,SBT2050,2,3,,7,2027.9,3.94973,6.038,432.772,0,,
1581,1,SBT2050,2,3,,7,2032.6,3.95003,6.022,440.649,0,,
1581,1,SBT2050,2,3,,7,2037.2,3.94976,5.993,448.326,0,,
1581,1,SBT2050,2,3,,7,2041.9,3.95005,5.969,456.134,0,,
1581,1,SBT2050,2,3,,7,2046.5,3.9495,5.932,463.741,0,,
1581,1,SBT2050,2,3,,7,2051.2,3.94995,5.92,471.48,0,,
1581,1,SBT2050,2,3,,7,2055.8,3.94959,5.888,479.022,0,,
1581,1,SBT2050,2,3,,7,2060.5,3.95026,5.867,486.702,0,,
1581,1,SBT2050,2,3,,7,2065.1,3.95092,5.858,494.197,0,,
1581,1,SBT2050,2,3,,7,2069.8,3.9507,5.827,501.826,0,,
1581,1,SBT2050,2,3,,7,2074.4,3.95153,5.813,509.266,0,,
1581,1,SBT2050,2,3,,7,2079.1,3.951874,5.783,516.838,0,,
1581,1,SBT2050,2,3,,7,2083.7,3.95182,5.757,524.21,0,,
1581,1,SBT2050,2,3,,7,2088.4,3.95277,5.753,531.723,0,,
1581,1,SBT2050,2,3,,7,2093,3.95352,5.733,539.063,0,,
1581,1,SBT2050,2,3,,7,2097.7,3.95385,5.707,546.533,0,,
1581,1,SBT2050,2,3,,7,2102.3,3.95417,5.681,553.81,0,,
1581,1,SBT2050,2,3,,7,2107,3.95444,5.65,561.207,0,,
1581,1,SBT2050,2,3,,7,2111.6,3.95469,5.621,568.411,0,,
1581,1,SBT2050,2,3,,7,2116.3,3.95576,5.612,575.744,0,,
1581,1,SBT2050,2,3,,7,2120.9,3.956478,5.59,582.904,0,,
1581,1,SBT2050,2,3,,7,2125.6,3.95705,5.564,590.189,0,,
1581,1,SBT2050,2,3,,7,2130.2,3.957764,5.542,597.286,0,,
1581,1,SBT2050,2,3,,7,2134.9,3.95831,5.524,604.505,0,,
1581,1,SBT2050,2,3,,7,2139.5,3.95956,5.508,611.556,0,,
1581,1,SBT2050,2,3,,7,2144.2,3.96032,5.488,618.736,0,,
1581,1,SBT2050,2,3,,7,2148.8,3.96079,5.463,625.733,0,,
1581,1,SBT2050,2,3,,7,2153.4,3.96143,5.443,632.699,0,,
1581,1,SBT2050,2,3,,7,2158.1,3.96212,5.415,639.786,0,,
1581,1,SBT2050,2,3,,7,2162.7,3.96295,5.393,646.692,0,,
1581,1,SBT2050,2,3,,7,2167.4,3.96382,5.371,653.718,0,,
1581,1,SBT2050,2,3,,7,2172,3.96435,5.347,660.566,0,,
1581,1,SBT2050,2,3,,7,2176.7,3.96515,5.324,667.533,0,,
1581,1,SBT2050,2,3,,7,2181.3,3.96609,5.305,674.323,0,,
1581,1,SBT2050,2,3,,7,2186,3.96707,5.28,681.233,0,,
1581,1,SBT2050,2,3,,7,2190.6,3.967698,5.259,687.968,0,,
1581,1,SBT2050,2,3,,7,2195.3,3.96863,5.239,694.821,0,,
1581,1,SBT2050,2,3,,7,2199.9,3.96957,5.218,701.501,0,,
1581,1,SBT2050,2,3,,7,2204.6,3.97062,5.194,708.298,0,,
1581,1,SBT2050,2,3,,7,2209.2,3.971488,5.175,714.924,0,,
1581,1,SBT2050,2,3,,7,2213.9,3.97202,5.145,721.664,0,,
1581,1,SBT2050,2,3,,7,2218.5,3.972708,5.118,728.227,0,,
1581,1,SBT2050,2,3,,7,2223.2,3.974,5.103,734.902,0,,
1581,1,SBT2050,2,3,,7,2227.8,3.97466,5.075,741.404,0,,
1581,1,SBT2050,2,3,,7,2232.5,3.9756,5.051,748.018,0,,
1581,1,SBT2050,2,3,,7,2237.1,3.97652,5.037,754.465,0,,
1581,1,SBT2050,2,3,,7,2241.8,3.97739,5.002,761.02,0,,
1581,1,SBT2050,2,3,,7,2246.4,3.97798,4.982,767.399,0,,
1581,1,SBT2050,2,3,,7,2251.1,3.97902,4.963,773.889,0,,
1581,1,SBT2050,2,3,,7,2255.7,3.97999,4.94,780.217,0,,
1581,1,SBT2050,2,3,,7,2260.4,3.98093,4.925,786.656,0,,
1581,1,SBT2050,2,3,,7,2265,3.98171,4.89,792.923,0,,
1581,1,SBT2050,2,3,,7,2269.7,3.98281,4.867,799.295,0,,
1581,1,SBT2050,2,3,,7,2274.3,3.98353,4.852,805.506,0,,
1581,1,SBT2050,2,3,,7,2279,3.98441,4.83,811.827,0,,
1581,1,SBT2050,2,3,,7,2283.6,3.98528,4.803,817.987,0,,
1581,1,SBT2050,2,3,,7,2288.3,3.986086,4.782,824.245,0,,
1581,1,SBT2050,2,3,,7,2292.9,3.987082,4.761,830.342,0,,
1581,1,SBT2050,2,3,,7,2297.5,3.987846,4.734,836.413,0,,
1581,1,SBT2050,2,3,,7,2302.2,3.98889,4.7126,842.579,0,,
1581,1,SBT2050,2,3,,7,2306.8,3.98968,4.6924,848.587,0,,
1581,1,SBT2050,2,3,,7,2311.5,3.99045,4.6683,854.702,0,,
1581,1,SBT2050,2,3,,7,2316.1,3.99135,4.6463,860.653,0,,
1581,1,SBT2050,2,3,,7,2320.8,3.99231,4.6236,866.704,0,,
1581,1,SBT2050,2,3,,7,2325.4,3.99351,4.6091,872.603,0,,
1581,1,SBT2050,2,3,,7,2330.1,3.99412,4.5792,878.596,0,,
1581,1,SBT2050,2,3,,7,2334.7,3.995,4.5585,884.434,0,,
1581,1,SBT2050,2,3,,7,2339.4,3.9957,4.5368,890.371,0,,
1581,1,SBT2050,2,3,,7,2344,3.99652,4.5119,896.15,0,,
1581,1,SBT2050,2,3,,7,2348.7,3.99745,4.4922,902.028,0,,
1581,1,SBT2050,2,3,,7,2353.3,3.9982,4.4679,907.751,0,,
1581,1,SBT2050,2,3,,7,2358,3.99922,4.4471,913.569,0,,
1581,1,SBT2050,2,3,,7,2362.6,4.000078,4.4276,919.239,0,,
1581,1,SBT2050,2,3,,7,2367.3,4.00098,4.4062,925.005,0,,
1581,1,SBT2050,2,3,,7,2371.9,4.001832,4.3832,930.618,0,,
1581,1,SBT2050,2,3,,7,2376.6,4.00259,4.3575,936.327,0,,
1581,1,SBT2050,2,3,,7,2381.2,4.00335,4.339,941.883,0,,
1581,1,SBT2050,2,3,,7,2385.9,4.00442,4.3188,947.534,0,,
1581,1,SBT2050,2,3,,7,2390.5,4.00514,4.2978,953.042,0,,
1581,1,SBT2050,2,3,,7,2395.2,4.00583,4.2764,958.638,0,,
1581,1,SBT2050,2,3,,7,2399.8,4.0067,4.2511,964.087,0,,
1581,1,SBT2050,2,3,,7,2404.5,4.007482,4.2283,969.623,0,,
1581,1,SBT2050,2,3,,7,2409.1,4.00833,4.2126,975.017,0,,
1581,1,SBT2050,2,3,,7,2413.8,4.00926,4.1987,980.505,0,,
1581,1,SBT2050,2,3,,7,2418.4,4.01126,4.1909,985.864,0,,
1581,1,SBT2050,2,3,,7,2423.1,4.01224,4.1721,991.32,0,,
1581,1,SBT2050,2,3,,7,2427.7,4.0131,4.1618,996.645,0,,
1581,1,SBT2050,2,3,,7,2432.4,4.01481,4.1499,1002.071,0,,
1581,1,SBT2050,2,3,,7,2437,4.01591,4.1355,1007.362,0,,
1581,1,SBT2050,2,3,,7,2441.6,4.01745,4.1206,1012.64,0,,
1581,1,SBT2050,2,3,,7,2446.3,4.0187,4.1087,1018.011,0,,
1581,1,SBT2050,2,3,,7,2450.9,4.01979,4.0982,1023.254,0,,
1581,1,SBT2050,2,3,,7,2455.6,4.02152,4.0841,1028.598,0,,
1581,1,SBT2050,2,3,,7,2460.2,4.02271,4.0725,1033.809,0,,
1581,1,SBT2050,2,3,,7,2464.9,4.02388,4.0584,1039.118,0,,
1581,1,SBT2050,2,3,,7,2469.5,4.02542,4.043,1044.294,0,,
1581,1,SBT2050,2,3,,7,2474.2,4.02669,4.0343,1049.567,0,,
1581,1,SBT2050,2,3,,7,2478.8,4.02826,4.0223,1054.715,0,,
1581,1,SBT2050,2,3,,7,2483.5,4.0293,4.0057,1059.956,0,,
1581,1,SBT2050,2,3,,7,2488.1,4.030836,3.9974,1065.069,0,,
1581,1,SBT2050,2,3,,7,2492.8,4.032072,3.9803,1070.279,0,,
1581,1,SBT2050,2,3,,7,2497.4,4.03297,3.9639,1075.356,0,,
1581,1,SBT2050,2,3,,7,2502.1,4.034392,3.9498,1080.52,0,,
1581,1,SBT2050,2,3,,7,2506.7,4.03568,3.9397,1085.561,0,,
1581,1,SBT2050,2,3,,7,2511.4,4.0372,3.9299,1090.699,0,,
1581,1,SBT2050,2,3,,7,2516,4.03826,3.914,1095.708,0,,
1581,1,SBT2050,2,3,,7,2520.7,4.03931,3.8947,1100.804,0,,
1581,1,SBT2050,2,3,,7,2525.3,4.04097,3.8856,1105.774,0,,
1581,1,SBT2050,2,3,,7,2530,4.04231,3.8759,1110.84,0,,
1581,1,SBT2050,2,3,,7,2534.6,4.04331,3.8581,1115.781,0,,
1581,1,SBT2050,2,3,,7,2539.3,4.04468,3.849,1120.812,0,,
1581,1,SBT2050,2,3,,7,2543.9,4.04592,3.8309,1125.718,0,,
1581,1,SBT2050,2,3,,7,2548.6,4.04701,3.8196,1130.713,0,,
1581,1,SBT2050,2,3,,7,2553.2,4.04844,3.8068,1135.587,0,,
1581,1,SBT2050,2,3,,7,2557.9,4.049948,3.793,1140.547,0,,
1581,1,SBT2050,2,3,,7,2562.5,4.05084,3.7836,1145.388,0,,
1581,1,SBT2050,2,3,,7,2567.2,4.05222,3.7702,1150.321,0,,
1581,1,SBT2050,2,3,,7,2571.8,4.05339,3.757,1155.13,0,,
1581,1,SBT2050,2,3,,7,2576.483,4.05476,3.744,1160.012,0,,
1581,1,SBT2050,2,3,,7,2581.1,4.05595,3.7303,1164.804,0,,
1581,1,SBT2050,2,3,,7,2585.7,4.05731,3.72,1169.564,0,,
1581,1,SBT2050,2,3,,7,2590.4,4.05848,3.7131,1174.416,0,,
1581,1,SBT2050,2,3,,7,2595,4.059846,3.6999,1179.153,0,35.9,
1581,1,SBT2050,2,3,,7,2599.7,4.06091,3.6876,1183.977,0,,
1581,1,SBT2050,2,3,,7,2604.3,4.06215,3.6765,1188.681,0,,
1581,1,SBT2050,2,3,,7,2609,4.06332,3.6601,1193.471,0,,
1581,1,SBT2050,2,3,,7,2613.6,4.06426,3.6445,1198.139,0,,
1581,1,SBT2050,2,3,,7,2618.3,4.06549,3.6305,1202.888,0,,
1581,1,SBT2050,2,3,,7,2622.9,4.06665,3.6202,1207.519,0,,
1581,1,SBT2050,2,3,,7,2627.6,4.06755,3.6061,1212.239,0,,
1581,1,SBT2050,2,3,,7,2632.2,4.068832,3.5938,1216.839,0,,
1581,1,SBT2050,2,3,,7,2636.9,4.06969,3.5766,1221.521,0,,
1581,1,SBT2050,2,3,,7,2641.5,4.07108,3.5639,1226.083,0,,
1581,1,SBT2050,2,3,,7,2646.2,4.07241,3.5567,1230.731,0,,
1581,1,SBT2050,2,3,,7,2650.8,4.073634,3.5484,1235.271,0,,
1581,1,SBT2050,2,3,,7,2655.5,4.07465,3.5362,1239.899,0,,
1581,1,SBT2050,2,3,,7,2660.1,4.07573,3.5238,1244.41,0,,
1581,1,SBT2050,2,3,,7,2664.8,4.077108,3.5136,1249.003,0,,
1581,1,SBT2050,2,3,,7,2669.4,4.07821,3.5012,1253.485,0,,
1581,1,SBT2050,2,3,,7,2674.1,4.07905,3.4861,1258.043,0,,
1581,1,SBT2050,2,3,,7,2678.7,4.080156,3.4776,1262.492,0,,
1581,1,SBT2050,2,3,,7,2683.4,4.08138,3.4623,1267.022,0,,
1581,1,SBT2050,2,3,,7,2688,4.08247,3.4497,1271.437,0,,
1581,1,SBT2050,2,3,,7,2692.7,4.08338,3.4343,1275.933,0,,
1581,1,SBT2050,2,3,,7,2697.3,4.08426,3.4222,1280.313,0,,
1581,1,SBT2050,2,3,,7,2702,4.08553,3.4122,1284.773,0,34.9,
1581,1,SBT2050,2,3,,7,2706.6,4.08601,3.3945,1289.123,0,,
1581,1,SBT2050,2,3,,7,2711.3,4.08744,3.384,1293.547,0,,
1581,1,SBT2050,2,3,,7,2715.9,4.088484,3.3756,1297.866,0,,
1581,1,SBT2050,2,3,,7,2720.515,4.08933,3.3616,1302.188,0,,
1581,1,SBT2050,2,3,,7,2725.2,4.09028,3.3484,1306.553,0,,
1581,1,SBT2050,2,3,,7,2729.8,4.09168,3.3388,1310.825,0,,
1581,1,SBT2050,2,3,,7,2734.5,4.092232,3.3195,1315.171,0,,
1581,1,SBT2050,2,3,,7,2739.1,4.09312,3.3045,1319.404,0,,
1581,1,SBT2050,2,3,,7,2743.8,4.09392,3.2889,1323.707,0,,
1581,1,SBT2050,2,3,,7,2748.4,4.09486,3.2814,1327.904,0,,
1581,1,SBT2050,2,3,,7,2753.1,4.09634,3.2746,1332.183,0,,
1581,1,SBT2050,2,3,,7,2757.7,4.09716,3.2581,1336.358,0,,
1581,1,SBT2050,2,3,,7,2762.4,4.09827,3.2477,1340.604,0,,
1581,1,SBT2050,2,3,,7,2767,4.09931,3.2389,1344.747,0,34.4,
1581,1,SBT2050,2,3,,7,2771.7,4.0999,3.2207,1348.965,0,,
1581,1,SBT2050,2,3,,7,2776.3,4.10096,3.2113,1353.074,0,,
1581,1,SBT2050,2,3,,7,2781,4.1015,3.1914,1357.253,0,,
1581,1,SBT2050,2,3,,7,2785.6,4.10258,3.1796,1361.322,0,,
1581,1,SBT2050,2,3,,7,2790.3,4.10373,3.1738,1365.469,0,,
1581,1,SBT2050,2,3,,7,2794.9,4.10486,3.1627,1369.519,0,,
1581,1,SBT2050,2,3,,7,2799.6,4.105596,3.1451,1373.636,0,,
1581,1,SBT2050,2,3,,7,2804.2,4.10634,3.1377,1377.65,0,,
1581,1,SBT2050,2,3,,7,2808.9,4.10716,3.1196,1381.737,0,,
1581,1,SBT2050,2,3,,7,2813.5,4.1082,3.1059,1385.714,0,,
1581,1,SBT2050,2,3,,7,2818.2,4.10913,3.1003,1389.765,0,,
1581,1,SBT2050,2,3,,7,2822.8,4.110104,3.0893,1393.721,0,,
1581,1,SBT2050,2,3,,7,2827.5,4.11067,3.071,1397.742,0,,
1581,1,SBT2050,2,3,,7,2832.1,4.1116,3.0639,1401.661,0,,
1581,1,SBT2050,2,3,,7,2836.8,4.11209,3.0412,1405.644,0,,
1581,1,SBT2050,2,3,,7,2841.4,4.113264,3.0327,1409.524,0,,
1581,1,SBT2050,2,3,,7,2846.1,4.1137,3.0151,1413.472,0,,
1581,1,SBT2050,2,3,,7,2850.7,4.11418,3.002,1417.315,0,,
1581,1,SBT2050,2,3,,7,2855.4,4.115528,2.9972,1421.23,0,,
1581,1,SBT2050,2,3,,7,2860,4.1161,2.9813,1425.051,0,,
1581,1,SBT2050,2,3,,7,2864.6,4.117,2.9694,1428.852,0,,
1581,1,SBT2050,2,3,,7,2869.3,4.11813,2.966,1432.726,0,,
1581,1,SBT2050,2,3,,7,2873.9,4.11871,2.9478,1436.504,0,,
1581,1,SBT2050,2,3,,7,2878.6,4.11966,2.9393,1440.346,0,,
1581,1,SBT2050,2,3,,7,2883.2,4.120658,2.9284,1444.097,0,,
1581,1,SBT2050,2,3,,7,2887.9,4.12134,2.9152,1447.909,0,,
1581,1,SBT2050,2,3,,7,2892.5,4.12251,2.9119,1451.63,0,,
1581,1,SBT2050,2,3,,7,2897.2,4.12333,2.8985,1455.425,0,,
1581,1,SBT2050,2,3,,7,2901.8,4.124098,2.8926,1459.125,0,,
1581,1,SBT2050,2,3,,7,2906.5,4.125206,2.8875,1462.898,0,,
1581,1,SBT2050,2,3,,7,2911.1,4.1268,2.8873,1466.587,0,,
1581,1,SBT2050,2,3,,7,2915.8,4.1276,2.8693,1470.343,0,,
1581,1,SBT2050,2,3,,7,2920.4,4.128518,2.8643,1474.005,0,,
1581,1,SBT2050,2,3,,7,2925.1,4.12982,2.8534,1477.74,0,,
1581,1,SBT2050,2,3,,7,2929.7,4.130146,2.8342,1481.372,0,,
1581,1,SBT2050,2,3,,7,2934.4,4.13138,2.8348,1485.072,0,,
1581,1,SBT2050,2,3,,7,2939,4.1326,2.8281,1488.69,0,,
1581,1,SBT2050,2,3,,7,2943.7,4.133492,2.816,1492.373,0,,
1581,1,SBT2050,2,3,,7,2948.3,4.13465,2.8113,1495.967,0,,
1581,1,SBT2050,2,3,,7,2953,4.13547,2.8005,1499.633,0,,
1581,1,SBT2050,2,3,,7,2957.6,4.13617,2.7878,1503.202,0,,
1581,1,SBT2050,2,3,,7,2962.3,4.13753,2.7798,1506.837,0,,
1581,1,SBT2050,2,3,,7,2966.9,4.13815,2.7635,1510.376,0,,
1581,1,SBT2050,2,3,,7,2971.6,4.139116,2.7576,1513.979,0,,
1581,1,SBT2050,2,3,,7,2976.2,4.14025,2.7552,1517.501,0,,
1581,1,SBT2050,2,3,,7,2980.9,4.14075,2.7374,1521.085,0,,
1581,1,SBT2050,2,3,,7,2985.5,4.14188,2.7308,1524.578,0,,
1581,1,SBT2050,2,3,,7,2990.2,4.14302,2.7288,1528.142,0,,
1581,1,SBT2050,2,3,,7,2994.8,4.14397,2.7227,1531.627,0,,
1581,1,SBT2050,2,3,,7,2999.5,4.144552,2.7078,1535.171,0,,
1581,1,SBT2050,2,3,,7,3004.1,4.14577,2.6989,1538.628,0,,
1581,1,SBT2050,2,3,,7,3008.7,4.14606,2.6831,1542.064,0,,
1581,1,SBT2050,2,3,,7,3013.4,4.14706,2.6788,1545.564,0,,
1581,1,SBT2050,2,3,,7,3018,4.14824,2.6766,1548.985,0,,
1581,1,SBT2050,2,3,,7,3022.7,4.14956,2.6751,1552.478,0,,
1581,1,SBT2050,2,3,,7,3027.3,4.15085,2.6694,1555.894,0,,
1581,1,SBT2050,2,3,,7,3032,4.15151,2.6545,1559.367,0,,
1581,1,SBT2050,2,3,,7,3036.6,4.15261,2.6496,1562.756,0,,
1581,1,SBT2050,2,3,,7,3041.3,4.15342,2.6397,1566.211,0,,
1581,1,SBT2050,2,3,,7,3045.9,4.15433,2.627,1569.574,0,,
1581,1,SBT2050,2,3,,7,3050.6,4.15558,2.623,1573.001,0,,
1581,1,SBT2050,2,3,,7,3055.2,4.15632,2.6094,1576.345,0,,
1581,1,SBT2050,2,3,,7,3059.9,4.156986,2.6001,1579.745,0,,
1581,1,SBT2050,2,3,,7,3064.5,4.15815,2.5962,1583.064,0,,
1581,1,SBT2050,2,3,,7,3069.2,4.158748,2.581,1586.444,0,,
1581,1,SBT2050,2,3,,7,3073.8,4.15963,2.5728,1589.735,0,,
1581,1,SBT2050,2,3,,7,3078.5,4.16097,2.5701,1593.093,0,,
1581,1,SBT2050,2,3,,7,3083.1,4.16152,2.5572,1596.37,0,,
1581,1,SBT2050,2,3,,7,3087.8,4.16204,2.5472,1599.701,0,,
1581,1,SBT2050,2,3,,7,3092.4,4.16348,2.5441,1602.954,0,,
1581,1,SBT2050,2,3,,7,3097.1,4.16383,2.5276,1606.261,0,,
1581,1,SBT2050,2,3,,7,3101.7,4.16501,2.5205,1609.485,0,,
1581,1,SBT2050,2,3,,7,3106.4,4.16571,2.5181,1612.774,0,,
1581,1,SBT2050,2,3,,7,3111,4.16666,2.5055,1615.985,0,,
1581,1,SBT2050,2,3,,7,3115.7,4.167224,2.4954,1619.249,0,,
1581,1,SBT2050,2,3,,7,3120.3,4.16833,2.4925,1622.435,0,,
1581,1,SBT2050,2,3,,7,3125,4.16962,2.4897,1625.688,0,,
1581,1,SBT2050,2,3,,7,3129.6,4.170532,2.4809,1628.866,0,,
1581,1,SBT2050,2,3,,7,3134.3,4.17125,2.4703,1632.097,0,,
1581,1,SBT2050,2,3,,7,3138.9,4.17238,2.4647,1635.249,0,,
1581,1,SBT2050,2,3,,7,3143.6,4.1734,2.462,1638.465,0,,
1581,1,SBT2050,2,3,,7,3148.2,4.1739,2.4472,1641.6,0,,
1581,1,SBT2050,2,3,,7,3152.8,4.17485,2.4389,1644.721,0,,
1581,1,SBT2050,2,3,,7,3157.5,4.17617,2.4355,1647.903,0,,
1581,1,SBT2050,2,3,,7,3162.1,4.17719,2.4305,1651.012,0,,
1581,1,SBT2050,2,3,,7,3166.8,4.17759,2.4162,1654.174,0,,
1581,1,SBT2050,2,3,,7,3171.4,4.17858,2.4106,1657.257,0,,
1581,1,SBT2050,2,3,,7,3176.1,4.17955,2.4072,1660.402,0,,
1581,1,SBT2050,2,3,,7,3180.7,4.18049,2.4045,1663.477,0,,
1581,1,SBT2050,2,3,,7,3185.4,4.18148,2.3904,1666.606,0,,
1581,1,SBT2050,2,3,,7,3190,4.18196,2.3827,1669.654,0,,
1581,1,SBT2050,2,3,,7,3194.7,4.18331,2.3786,1672.762,0,,
1581,1,SBT2050,2,3,,7,3199.3,4.18387,2.3672,1675.794,0,,
1581,1,SBT2050,2,3,,7,3204,4.18448,2.3566,1678.876,0,,
1581,1,SBT2050,2,3,,7,3208.6,4.18549,2.3528,1681.885,0,,
1581,1,SBT2050,2,3,,7,3213.3,4.18667,2.3503,1684.955,0,,
1581,1,SBT2050,2,3,,7,3217.9,4.18742,2.3433,1687.956,0,,
1581,1,SBT2050,2,3,,7,3222.6,4.18855,2.3358,1691.013,0,,
1581,1,SBT2050,2,3,,7,3227.2,4.18913,2.327,1693.992,0,,
1581,1,SBT2050,2,3,,7,3231.9,4.19023,2.3215,1697.026,0,,
1581,1,SBT2050,2,3,,7,3236.5,4.19094,2.3182,1699.99,0,,
1581,1,SBT2050,2,3,,7,3241.2,4.19213,2.3112,1703.013,0,,
1581,1,SBT2050,2,3,,7,3245.8,4.1926,2.2977,1705.956,0,,
1581,1,SBT2050,2,3,,7,3250.5,4.19348,2.2919,1708.953,0,,
1581,1,SBT2050,2,3,,7,3255.1,4.19479,2.2889,1711.88,0,,
1581,1,SBT2050,2,3,,7,3259.8,4.19557,2.2855,1714.866,0,,
1581,1,SBT2050,2,3,,7,3264.4,4.19664,2.2788,1717.783,0,,
1581,1,SBT2050,2,3,,7,3269.1,4.19719,2.2655,1720.747,0,,
1581,1,SBT2050,2,3,,7,3273.7,4.19771,2.2564,1723.638,0,,
1581,1,SBT2050,2,3,,7,3278.4,4.19873,2.2515,1726.578,0,,
1581,1,SBT2050,2,3,,7,3283,4.19937,2.2412,1729.449,0,,
1581,1,SBT2050,2,3,,7,3287.641,4.20033,2.2348,1732.334,0,,
1581,1,SBT2050,2,3,,7,3292.3,4.20149,2.2315,1735.224,0,,
1581,1,SBT2050,2,3,,7,3296.9,4.201932,2.2172,1738.066,0,,
1581,1,SBT2050,2,3,,7,3301.6,4.20275,2.2097,1740.956,0,,
1581,1,SBT2050,2,3,,7,3306.2,4.203394,2.2066,1743.777,0,,
1581,1,SBT2050,2,3,,7,3310.9,4.20458,2.2028,1746.656,0,,
1581,1,SBT2050,2,3,,7,3315.5,4.20527,2.193,1749.467,0,,
1581,1,SBT2050,2,3,,7,3320.2,4.20553,2.1839,1752.324,0,,
1581,1,SBT2050,2,3,,7,3324.8,4.20662,2.1783,1755.11,0,,
1581,1,SBT2050,2,3,,7,3329.5,4.20786,2.175,1757.952,0,,
1581,1,SBT2050,2,3,,7,3334.1,4.20864,2.1713,1760.728,0,,
1581,1,SBT2050,2,3,,7,3338.8,4.20932,2.1563,1763.552,0,,
1581,1,SBT2050,2,3,,7,3343.4,4.20995,2.151,1766.303,0,,
1581,1,SBT2050,2,3,,7,3348.1,4.21114,2.1468,1769.108,0,,
1581,1,SBT2050,2,3,,7,3352.7,4.2117,2.1369,1771.848,0,,
1581,1,SBT2050,2,3,,7,3357.4,4.21257,2.1277,1774.631,0,,
1581,1,SBT2050,2,3,,7,3362,4.21315,2.1225,1777.346,0,,
1581,1,SBT2050,2,3,,7,3366.7,4.21425,2.1183,1780.114,0,,
1581,1,SBT2050,2,3,,7,3371.3,4.21502,2.1151,1782.819,0,,
1581,1,SBT2050,2,3,,7,3376,4.21599,2.1084,1785.577,0,,
1581,1,SBT2050,2,3,,7,3380.6,4.21666,2.0959,1788.263,0,,
1581,1,SBT2050,2,3,,7,3385.3,4.21691,2.0913,1790.996,0,,
1581,1,SBT2050,2,3,,7,3389.9,4.21802,2.0872,1793.666,0,,
1581,1,SBT2050,2,3,,7,3394.6,4.21924,2.0833,1796.388,0,,
1581,1,SBT2050,2,3,,7,3399.2,4.21996,2.0726,1799.044,0,,
1581,1,SBT2050,2,3,,7,3403.9,4.22025,2.0639,1801.744,0,,
1581,1,SBT2050,2,3,,7,3408.5,4.22115,2.0599,1804.378,0,,
1581,1,SBT2050,2,3,,7,3413.2,4.22212,2.056,1807.065,0,,
1581,1,SBT2050,2,3,,7,3417.8,4.22294,2.0444,1809.686,0,,
1581,1,SBT2050,2,3,,7,3422.5,4.2234,2.0371,1812.35,0,,
1581,1,SBT2050,2,3,,7,3427.1,4.224322,2.0322,1814.949,0,,
1581,1,SBT2050,2,3,,7,3431.7,4.22503,2.0278,1817.544,0,,
1581,1,SBT2050,2,3,,7,3436.4,4.22633,2.0256,1820.19,0,,
1581,1,SBT2050,2,3,,7,3441,4.22735,2.0212,1822.775,0,,
1581,1,SBT2050,2,3,,7,3445.7,4.22759,2.007,1825.404,0,,
1581,1,SBT2050,2,3,,7,3450.3,4.228448,2.0021,1827.965,0,,
1581,1,SBT2050,2,3,,7,3455,4.22932,1.9975,1830.576,0,,
1581,1,SBT2050,2,3,,7,3459.6,4.230316,1.9935,1833.126,0,,
1581,1,SBT2050,2,3,,7,3464.3,4.23096,1.9874,1835.726,0,,
1581,1,SBT2050,2,3,,7,3468.9,4.23158,1.9757,1838.257,0,,
1581,1,SBT2050,2,3,,7,3473.6,4.23263,1.9699,1840.833,0,,
1581,1,SBT2050,2,3,,7,3478.2,4.23329,1.9667,1843.348,0,,
1581,1,SBT2050,2,3,,7,3482.9,4.23388,1.9626,1845.913,0,,
1581,1,SBT2050,2,3,,7,3487.5,4.23505,1.9595,1848.419,0,,
1581,1,SBT2050,2,3,,7,3492.2,4.23541,1.9473,1850.969,0,,
1581,1,SBT2050,2,3,,7,3496.8,4.236028,1.94,1853.452,0,,
1581,1,SBT2050,2,3,,7,3501.5,4.23694,1.9366,1855.983,0,,
1581,1,SBT2050,2,3,,7,3506.1,4.23768,1.9323,1858.454,0,,
1581,1,SBT2050,2,3,,7,3510.8,4.23856,1.9287,1860.975,0,,
1581,1,SBT2050,2,3,,7,3515.4,4.239474,1.9257,1863.437,0,,
1581,1,SBT2050,2,3,,7,3520.1,4.24069,1.9217,1865.948,0,,
1581,1,SBT2050,2,3,,7,3524.7,4.24135,1.9149,1868.401,0,,
1581,1,SBT2050,2,3,,7,3529.4,4.241918,1.9046,1870.893,0,,
1581,1,SBT2050,2,3,,7,3534,4.2429,1.8983,1873.322,0,,
1581,1,SBT2050,2,3,,7,3538.7,4.24363,1.8942,1875.798,0,,
1581,1,SBT2050,2,3,,7,3543.3,4.24431,1.8879,1878.216,0,,
1581,1,SBT2050,2,3,,7,3548,4.245084,1.879,1880.676,0,,
1581,1,SBT2050,2,3,,7,3552.6,4.24527,1.8714,1883.072,0,,
1581,1,SBT2050,2,3,,7,3557.3,4.2466,1.8677,1885.513,0,,
1581,1,SBT2050,2,3,,7,3561.9,4.24748,1.8636,1887.897,0,,
1581,1,SBT2050,2,3,,7,3566.6,4.248086,1.8602,1890.327,0,,
1581,1,SBT2050,2,3,,7,3571.2,4.24939,1.8568,1892.702,0,,
1581,1,SBT2050,2,3,,7,3575.8,4.25003,1.85,1895.072,0,,
1581,1,SBT2050,2,3,,7,3580.5,4.250322,1.84,1897.48,0,,
1581,1,SBT2050,2,3,,7,3585.1,4.25087,1.8338,1899.826,0,,
1581,1,SBT2050,2,3,,7,3589.8,4.25172,1.8298,1902.218,0,,
1581,1,SBT2050,2,3,,7,3594.4,4.2529,1.8265,1904.553,0,,
1581,1,SBT2050,2,3,,7,3599.1,4.25327,1.8178,1906.934,0,,
1581,1,SBT2050,2,3,,7,3603.7,4.25396,1.8086,1909.25,0,,
1581,1,SBT2050,2,3,,7,3608.4,4.25474,1.8042,1911.607,0,,
1581,1,SBT2050,2,3,,7,3613,4.25543,1.7999,1913.91,0,,
1581,1,SBT2050,2,3,,7,3617.7,4.25631,1.7961,1916.257,0,,
1581,1,SBT2050,2,3,,7,3622.3,4.2574,1.7933,1918.55,0,,
1581,1,SBT2050,2,3,,7,3627,4.25785,1.7856,1920.885,0,,
1581,1,SBT2050,2,3,,7,3631.6,4.25904,1.7848,1923.166,0,,
1581,1,SBT2050,2,3,,7,3636.3,4.25982,1.78,1925.494,0,,
1581,1,SBT2050,2,3,,7,3640.9,4.26052,1.7686,1927.759,0,,
1581,1,SBT2050,2,3,,7,3645.6,4.26095,1.763,1930.065,0,,
1581,1,SBT2050,2,3,,7,3650.2,4.26205,1.7596,1932.315,0,,
1581,1,SBT2050,2,3,,7,3654.9,4.26265,1.7528,1934.61,0,,
1581,1,SBT2050,2,3,,7,3659.5,4.26334,1.7479,1936.845,0,,
1581,1,SBT2050,2,3,,7,3664.2,4.26432,1.7479,1939.127,0,,
1581,1,SBT2050,2,3,,7,3668.8,4.26469,1.737,1941.355,0,,
1581,1,SBT2050,2,3,,7,3673.5,4.26522,1.7311,1943.618,0,,
1581,1,SBT2050,2,3,,7,3678.1,4.26607,1.7267,1945.826,0,,
1581,1,SBT2050,2,3,,7,3682.8,4.26686,1.7227,1948.078,0,,
1581,1,SBT2050,2,3,,7,3687.4,4.26789,1.7195,1950.277,0,,
1581,1,SBT2050,2,3,,7,3692.1,4.26843,1.7139,1952.518,0,,
1581,1,SBT2050,2,3,,7,3696.7,4.269196,1.7035,1954.702,0,,
1581,1,SBT2050,2,3,,7,3701.4,4.269628,1.698,1956.923,0,,
1581,1,SBT2050,2,3,,7,3706,4.27043,1.6934,1959.089,0,,
1581,1,SBT2050,2,3,,7,3710.7,4.271066,1.6898,1961.298,0,,
1581,1,SBT2050,2,3,,7,3715.3,4.27201,1.687,1963.455,0,,
1581,1,SBT2050,2,3,,7,3719.9,4.27286,1.6835,1965.609,0,,
1581,1,SBT2050,2,3,,7,3724.6,4.27308,1.6704,1967.798,0,,
1581,1,SBT2050,2,3,,7,3729.2,4.27376,1.6654,1969.929,0,,
1581,1,SBT2050,2,3,,7,3733.9,4.27438,1.6612,1972.1,0,,
1581,1,SBT2050,2,3,,7,3738.5,4.27523,1.6583,1974.221,0,,
1581,1,SBT2050,2,3,,7,3743.2,4.27602,1.6546,1976.383,0,,
1581,1,SBT2050,2,3,,7,3747.8,4.27681,1.6511,1978.495,0,,
1581,1,SBT2050,2,3,,7,3752.5,4.27759,1.6481,1980.649,0,,
1581,1,SBT2050,2,3,,7,3757.1,4.27839,1.6448,1982.752,0,,
1581,1,SBT2050,2,3,,7,3761.8,4.2789,1.6366,1984.895,0,,
1581,1,SBT2050,2,3,,7,3766.4,4.279598,1.6282,1986.98,0,,
1581,1,SBT2050,2,3,,7,3771.1,4.279902,1.6227,1989.102,0,,
1581,1,SBT2050,2,3,,7,3775.7,4.28092,1.6189,1991.173,0,,
1581,1,SBT2050,2,3,,7,3780.4,4.28176,1.6162,1993.285,0,,
1581,1,SBT2050,2,3,,7,3785,4.28254,1.6125,1995.347,0,,
1581,1,SBT2050,2,3,,7,3789.7,4.28326,1.6092,1997.45,0,,
1581,1,SBT2050,2,3,,7,3794.3,4.28436,1.6061,1999.504,0,,
1581,1,SBT2050,2,3,,7,3799,4.28492,1.6026,2001.599,0,,
1581,1,SBT2050,2,3,,7,3803.6,4.28562,1.599,2003.645,0,,
1581,1,SBT2050,2,3,,7,3808.3,4.28628,1.5913,2005.729,0,,
1581,1,SBT2050,2,3,,7,3812.9,4.28653,1.5821,2007.755,0,,
1581,1,SBT2050,2,3,,7,3817.6,4.28754,1.5773,2009.817,0,,
1581,1,SBT2050,2,3,,7,3822.2,4.288112,1.5745,2011.831,0,,
1581,1,SBT2050,2,3,,7,3826.9,4.28862,1.5711,2013.884,0,,
1581,1,SBT2050,2,3,,7,3831.5,4.28957,1.5681,2015.889,0,,
1581,1,SBT2050,2,3,,7,3836.2,4.29001,1.5644,2017.934,0,,
1581,1,SBT2050,2,3,,7,3840.8,4.29067,1.5612,2019.931,0,,
1581,1,SBT2050,2,3,,7,3845.5,4.29159,1.5585,2021.967,0,,
1581,1,SBT2050,2,3,,7,3850.1,4.29213,1.555,2023.956,0,,
1581,1,SBT2050,2,3,,7,3854.767,4.29298,1.5509,2025.969,0,,
1581,1,SBT2050,2,3,,7,3859.4,4.29367,1.5433,2027.961,0,,
1581,1,SBT2050,2,3,,7,3864,4.29378,1.5343,2029.926,0,29,
1581,1,SBT2050,2,3,,7,3868.7,4.2947,1.5314,2031.928,0,,
1581,1,SBT2050,2,3,,7,3873.3,4.29504,1.5276,2033.882,0,,
1581,1,SBT2050,2,3,,7,3878,4.295716,1.5235,2035.874,0,,
1581,1,SBT2050,2,3,,7,3882.6,4.29631,1.5205,2037.819,0,,
1581,1,SBT2050,2,3,,7,3887.3,4.297022,1.5177,2039.802,0,,
1581,1,SBT2050,2,3,,7,3891.9,4.29778,1.5143,2041.739,0,,
1581,1,SBT2050,2,3,,7,3896.6,4.29874,1.5103,2043.713,0,,
1581,1,SBT2050,2,3,,7,3901.2,4.29897,1.5079,2045.642,0,,
1581,1,SBT2050,2,3,,7,3905.9,4.29973,1.5042,2047.608,0,,
1581,1,SBT2050,2,3,,7,3910.5,4.30034,1.5012,2049.528,0,,
1581,1,SBT2050,2,3,,7,3915.2,4.30099,1.4979,2051.485,0,,
1581,1,SBT2050,2,3,,7,3919.8,4.3017,1.4942,2053.397,0,,
1581,1,SBT2050,2,3,,7,3924.5,4.30216,1.4915,2055.345,0,,
1581,1,SBT2050,2,3,,7,3929.1,4.302568,1.4877,2057.248,0,,
1581,1,SBT2050,2,3,,7,3933.8,4.30319,1.4844,2059.189,0,,
1581,1,SBT2050,2,3,,7,3938.4,4.30369,1.4816,2061.083,0,,
1581,1,SBT2050,2,3,,7,3943.1,4.304556,1.4783,2063.015,0,,
1581,1,SBT2050,2,3,,7,3947.7,4.30501,1.4742,2064.901,0,,
1581,1,SBT2050,2,3,,7,3952.4,4.30581,1.4716,2066.824,0,,
1581,1,SBT2050,2,3,,7,3957,4.30634,1.468,2068.702,0,,
1581,1,SBT2050,2,3,,7,3961.7,4.30687,1.4642,2070.616,0,,
1581,1,SBT2050,2,3,,7,3966.3,4.30714,1.4612,2072.485,0,,
1581,1,SBT2050,2,3,,7,3971,4.30794,1.4577,2074.391,0,,
1581,1,SBT2050,2,3,,7,3975.6,4.30819,1.4539,2076.251,0,,
1581,1,SBT2050,2,3,,7,3980.3,4.30861,1.4512,2078.148,0,,
1581,1,SBT2050,2,3,,7,3984.9,4.30905,1.4475,2079.999,0,,
1581,1,SBT2050,2,3,,7,3989.6,4.31002,1.446,2081.888,0,,
1581,1,SBT2050,2,3,,7,3994.2,4.31043,1.4411,2083.733,0,,
1581,1,SBT2050,2,3,,7,3998.801,4.31087,1.4372,2085.572,0,,
1581,1,SBT2050,2,3,,7,4003.5,4.31139,1.4396,2087.45,0,,
1581,1,SBT2050,2,3,,7,4008.1,4.31177,1.4367,2089.288,0,,
1581,1,SBT2050,2,3,,7,4012.8,4.31222,1.4329,2091.162,0,,
1581,1,SBT2050,2,3,,7,4017.4,4.31243,1.4298,2092.991,0,,
1581,1,SBT2050,2,3,,7,4022.1,4.31289,1.426,2094.855,0,,
1581,1,SBT2050,2,3,,7,4026.7,4.31317,1.4223,2096.675,0,,
1581,1,SBT2050,2,3,,7,4031.4,4.31364,1.4191,2098.529,0,,
1581,1,SBT2050,2,3,,7,4036,4.31393,1.4155,2100.34,0,,
1581,1,SBT2050,2,3,,7,4040.7,4.314228,1.4115,2102.186,0,,
1581,1,SBT2050,2,3,,7,4045.3,4.31455,1.4085,2103.988,0,,
1581,1,SBT2050,2,3,,7,4050,4.31492,1.405,2105.827,0,29,
1581,1,SBT2050,2,3,,7,4054.6,4.31555,1.4042,2107.621,0,,
1581,1,SBT2050,2,3,,7,4059.3,4.31562,1.4013,2109.453,0,,
1581,1,SBT2050,2,3,,7,4063.9,4.31607,1.3981,2111.241,0,,
1581,1,SBT2050,2,3,,7,4068.6,4.3165,1.3942,2113.064,0,,
1581,1,SBT2050,2,3,,7,4073.2,4.316668,1.3915,2114.844,0,,
1581,1,SBT2050,2,3,,7,4077.9,4.31693,1.3881,2116.658,0,,
1581,1,SBT2050,2,3,,7,4082.5,4.31706,1.3854,2118.43,0,,
1581,1,SBT2050,2,3,,7,4087.2,4.31718,1.3818,2120.236,0,,
1581,1,SBT2050,2,3,,7,4091.8,4.31749,1.3785,2122,0,,
1581,1,SBT2050,2,3,,7,4096.5,4.31753,1.3792,2123.799,0,,
1581,1,SBT2050,2,3,,7,4101.1,4.317912,1.3753,2125.559,0,,
1581,1,SBT2050,2,3,,7,4105.8,4.31796,1.3723,2127.352,0,,
1581,1,SBT2050,2,3,,7,4110.4,4.318502,1.3729,2129.106,0,,
1581,1,SBT2050,2,3,,7,4115.1,4.318324,1.3668,2130.892,0,,
1581,1,SBT2050,2,3,,7,4119.7,4.31837,1.3664,2132.639,0,,
1581,1,SBT2050,2,3,,7,4124.4,4.31887,1.3636,2134.422,0,,
1581,1,SBT2050,2,3,,7,4129,4.318658,1.3609,2136.162,0,,
1581,1,SBT2050,2,3,,7,4133.7,4.31845,1.3577,2137.937,0,,
1581,1,SBT2050,2,3,,7,4138.3,4.3192,1.3584,2139.673,0,,
1581,1,SBT2050,2,3,,7,4142.9,4.319062,1.3559,2141.405,0,,
1581,1,SBT2050,2,3,,7,4147.6,4.31895,1.3525,2143.173,0,,
1581,1,SBT2050,2,3,,7,4152.2,4.31895,1.3502,2144.9,0,,
1581,1,SBT2050,2,3,,7,4156.9,4.31884,1.3475,2146.661,0,,
1581,1,SBT2050,2,3,,7,4161.5,4.31894,1.3487,2148.383,0,,
1581,1,SBT2050,2,3,,7,4166.2,4.31901,1.3452,2150.141,0,,
1581,1,SBT2050,2,3,,7,4170.8,4.31873,1.3428,2151.858,0,,
1581,1,SBT2050,2,3,,7,4175.5,4.3193,1.3437,2153.612,0,,
1581,1,SBT2050,2,3,,7,4180.1,4.31881,1.3381,2155.326,0,,
1581,1,SBT2050,2,3,,7,4184.8,4.31915,1.3382,2157.074,0,,
1581,1,SBT2050,2,3,,7,4189.4,4.31904,1.3363,2158.783,0,,
1581,1,SBT2050,2,3,,7,4194.1,4.31917,1.3378,2160.527,0,,
1581,1,SBT2050,2,3,,7,4198.7,4.31901,1.3344,2162.234,0,,
1581,1,SBT2050,2,3,,7,4203.4,4.3191,1.3325,2163.974,0,,
1581,1,SBT2050,2,3,,7,4208,4.31885,1.3329,2165.676,0,,
1581,1,SBT2050,2,3,,7,4212.7,4.31892,1.3306,2167.415,0,,
1581,1,SBT2050,2,3,,7,4217.3,4.31868,1.3317,2169.114,0,,
1581,1,SBT2050,2,3,,7,4222,4.31866,1.3295,2170.852,0,,
1581,1,SBT2050,2,3,,7,4226.6,4.31875,1.3304,2172.55,0,,
1581,1,SBT2050,2,3,,7,4231.3,4.31832,1.3286,2174.286,0,,
1581,1,SBT2050,2,3,,7,4235.9,4.31829,1.3268,2175.983,0,,
1581,1,SBT2050,2,3,,7,4240.6,4.31843,1.3292,2177.716,0,,
1581,1,SBT2050,2,3,,7,4245.2,4.31817,1.3265,2179.412,0,,
1581,1,SBT2050,2,3,,7,4249.9,4.317614,1.3244,2181.142,0,,
1581,1,SBT2050,2,3,,7,4254.5,4.317616,1.326,2182.837,0,,
1581,1,SBT2050,2,3,,7,4259.2,4.31726,1.3241,2184.567,0,,
1581,1,SBT2050,2,3,,7,4263.8,4.31722,1.3251,2186.262,0,,
1581,1,SBT2050,2,3,,7,4268.5,4.31696,1.3268,2187.992,0,,
1581,1,SBT2050,2,3,,7,4273.1,4.31646,1.3251,2189.688,0,,
1581,1,SBT2050,2,3,,7,4277.8,4.316428,1.3235,2191.417,0,,
1581,1,SBT2050,2,3,,7,4282.4,4.31656,1.3273,2193.112,0,,
1581,1,SBT2050,2,3,,7,4287,4.31588,1.3241,2194.805,0,30.6,
1581,1,SBT2050,2,3,,7,4291.7,4.3158,1.328,2196.536,0,,
1581,1,SBT2050,2,3,,7,4296.3,4.31544,1.3244,2198.23,0,,
1581,1,SBT2050,2,3,,7,4301,4.31555,1.3289,2199.961,0,,
1581,1,SBT2050,2,3,,7,4305.6,4.315174,1.3279,2201.658,0,,
1581,1,SBT2050,2,3,,7,4310.3,4.31473,1.3271,2203.391,0,,
1581,1,SBT2050,2,3,,7,4314.9,4.31496,1.3324,2205.091,0,,
1581,1,SBT2050,2,3,,7,4319.6,4.31401,1.328,2206.827,0,,
1581,1,SBT2050,2,3,,7,4324.2,4.314552,1.3335,2208.527,0,,
1581,1,SBT2050,2,3,,7,4328.9,4.31473,1.3365,2210.269,0,,
1581,1,SBT2050,2,3,,7,4333.5,4.31385,1.331,2211.974,0,,
1581,1,SBT2050,2,3,,7,4338.2,4.31383,1.3335,2213.712,0,,
1581,1,SBT2050,2,3,,7,4342.8,4.31369,1.3376,2215.421,0,,
1581,1,SBT2050,2,3,,7,4347.5,4.31312,1.3347,2217.164,0,,
1581,1,SBT2050,2,3,,7,4352.1,4.31342,1.344,2218.875,0,,
1581,1,SBT2050,2,3,,7,4356.8,4.31376,1.3485,2220.634,0,,
1581,1,SBT2050,2,3,,7,4361.4,4.314118,1.3551,2222.362,0,,
1581,1,SBT2050,2,3,,7,4366.1,4.31397,1.3561,2224.132,0,,
1581,1,SBT2050,2,3,,7,4370.7,4.31396,1.3602,2225.868,0,,
1581,1,SBT2050,2,3,,7,4375.4,4.314494,1.3689,2227.65,0,,
1581,1,SBT2050,2,3,,7,4380,4.31454,1.3719,2229.402,0,31.8,
1581,1,SBT2050,2,3,,7,4384.7,4.31509,1.3799,2231.197,0,,
1581,1,SBT2050,2,3,,7,4389.3,4.316148,1.3955,2232.97,0,,
1581,1,SBT2050,2,3,,7,4394,4.317202,1.4096,2234.801,0,,
1581,1,SBT2050,2,3,,7,4398.6,4.31886,1.4274,2236.613,0,,
1581,1,SBT2050,2,3,,7,4403.3,4.32087,1.4477,2238.49,0,,
1581,1,SBT2050,2,3,,7,4407.9,4.32288,1.4697,2240.353,0,,
1581,1,SBT2050,2,3,,7,4412.6,4.32522,1.4948,2242.285,0,,
1581,1,SBT2050,2,3,,7,4417.2,4.32813,1.5205,2244.21,0,,
1581,1,SBT2050,2,3,,7,4421.893,4.33151,1.5533,2246.215,0,,
1581,1,SBT2050,2,3,,7,4426.5,4.33405,1.5772,2248.218,0,,
1581,1,SBT2050,2,3,,7,4431.1,4.33803,1.617,2250.261,0,,
1581,1,SBT2050,2,3,,7,4435.8,4.3427,1.6611,2252.402,0,,
1581,1,SBT2050,2,3,,7,4440.4,4.346212,1.6921,2254.544,0,,
1581,1,SBT2050,2,3,,7,4445.1,4.3506,1.7325,2256.781,0,,
1581,1,SBT2050,2,3,,7,4449.7,4.35469,1.7688,2259.018,0,,
1581,1,SBT2050,2,3,,7,4454.4,4.35821,1.7996,2261.348,0,,
1581,1,SBT2050,2,3,,7,4459,4.36357,1.8478,2263.679,0,,
1581,1,SBT2050,2,3,,7,4463.7,4.36869,1.8989,2266.122,0,,
1581,1,SBT2050,2,3,,7,4468.3,4.373396,1.9354,2268.571,0,,
1581,1,SBT2050,2,3,,7,4473,4.37786,1.9811,2271.129,0,,
1581,1,SBT2050,2,3,,7,4477.6,4.38271,2.0256,2273.686,0,,
1581,1,SBT2050,2,3,,7,4482.3,4.38741,2.0661,2276.356,0,,
1581,1,SBT2050,2,3,,7,4486.9,4.393164,2.1217,2279.033,0,,
1581,1,SBT2050,2,3,,7,4491.6,4.39863,2.1792,2281.836,0,,
1581,1,SBT2050,2,3,,7,4492.266,4.40002,2.1794,2282.239,0,,