File: ORRG/Test1552.csv
Request Year:,2018,,,,,,,,,,,,
Test:,1552,,,,,,,,,,,,
Test Description:,,,,,,,,,,,,,
TestRegime Name:,Aging_test caseB_1,,,,,,,,,,,,
TestRegime Suffix:,SHP_LC,,,,,,,,,,,,
TestRegime CellSize:,18650,,,,,,,,,,,,
TestRegime Version:,3,,,,,,,,,,,,
Number Of Cells:,1,,,,,,,,,,,,
LotID:,,,,,,,,,,,,,
Lot Description:,,,,,,,,,,,,,
Date Made:,1/21/2003 12:00 AM,,,,,,,,,,,,
Origin:,Other,,,,,,,,,,,,
Requestor:,Admin,,,,,,,,,,,,
Product ID:,Default product,,,,,,,,,,,,
Storage Temp:,R.T./AMB,,,,,,,,,,,,
Storage Delay:,0 days,,,,,,,,,,,,
Test Temp:,R.T./AMB,,,,,,,,,,,,
Start Time:,4/25/2018 9:41 AM,,,,,,,,,,,,
End Time:,4/25/2018 10:56 AM,,,,,,,,,,,,
Operator Instructions:,,,,,,,,,,,,,
Test,Cell,Rack,Shelf,Position,Cell ID,Step,Total Time (Seconds),Voltage (V),Current (A),Charge Capacity (mAh),Discharge Capacity (mAh),Trs (Â°C),
1552,1,SBT2050,2,3,,0,0.1,3.37248,0,0,0,,
1552,1,SBT2050,2,3,,0,4.8,3.37243,0,0,0,,
1552,1,SBT2050,2,3,,0,9.5,3.37249,0,0,0,,
1552,1,SBT2050,2,3,,0,14.2,3.37271,0,0,0,,
1552,1,SBT2050,2,3,,0,18.9,3.37248,0,0,0,,
1552,1,SBT2050,2,3,,0,23.6,3.37276,0,0,0,,
1552,1,SBT2050,2,3,,0,28.3,3.372868,0,0,0,,
1552,1,SBT2050,2,3,,0,33,3.37279,0,0,0,,
1552,1,SBT2050,2,3,,0,37.7,3.37247,0,0,0,,
1552,1,SBT2050,2,3,,0,42.4,3.37259,0,0,0,,
1552,1,SBT2050,2,3,,0,47.1,3.37277,0,0,0,,
1552,1,SBT2050,2,3,,0,51.8,3.37278,0,0,0,,
1552,1,SBT2050,2,3,,0,56.5,3.37279,0,0,0,,
1552,1,SBT2050,2,3,,0,61.2,3.37267,0,0,0,,
1552,1,SBT2050,2,3,,0,65.9,3.37283,0,0,0,,
1552,1,SBT2050,2,3,,0,70.6,3.37263,0,0,0,,
1552,1,SBT2050,2,3,,0,75.3,3.37273,0,0,0,,
1552,1,SBT2050,2,3,,0,80,3.3727,0,0,0,,
1552,1,SBT2050,2,3,,0,84.7,3.37291,0,0,0,,
1552,1,SBT2050,2,3,,0,89.4,3.37264,0,0,0,,
1552,1,SBT2050,2,3,,0,94.1,3.37282,0,0,0,,
1552,1,SBT2050,2,3,,0,98.8,3.372808,0,0,0,,
1552,1,SBT2050,2,3,,0,103.5,3.37286,0,0,0,,
1552,1,SBT2050,2,3,,0,108.2,3.37267,0,0,0,,
1552,1,SBT2050,2,3,,0,112.9,3.37268,0,0,0,,
1552,1,SBT2050,2,3,,0,117.6,3.37282,0,0,0,,
1552,1,SBT2050,2,3,,0,122.3,3.37274,0,0,0,,
1552,1,SBT2050,2,3,,0,127,3.3726,0,0,0,,
1552,1,SBT2050,2,3,,0,131.7,3.37291,0,0,0,,
1552,1,SBT2050,2,3,,0,136.4,3.372934,0,0,0,,
1552,1,SBT2050,2,3,,0,141.1,3.372628,0,0,0,,
1552,1,SBT2050,2,3,,0,145.8,3.37305,0,0,0,,
1552,1,SBT2050,2,3,,0,150.5,3.37311,0,0,0,,
1552,1,SBT2050,2,3,,0,155.2,3.37278,0,0,0,,
1552,1,SBT2050,2,3,,0,159.9,3.3729,0,0,0,,
1552,1,SBT2050,2,3,,0,164.6,3.37291,0,0,0,,
1552,1,SBT2050,2,3,,0,169.3,3.372914,0,0,0,,
1552,1,SBT2050,2,3,,0,174,3.37315,0,0,0,,
1552,1,SBT2050,2,3,,0,178.7,3.37319,0,0,0,,
1552,1,SBT2050,2,3,,0,183.4,3.373104,0,0,0,,
1552,1,SBT2050,2,3,,0,188.1,3.373002,0,0,0,,
1552,1,SBT2050,2,3,,0,192.8,3.3728,0,0,0,,
1552,1,SBT2050,2,3,,0,197.5,3.37317,0,0,0,,
1552,1,SBT2050,2,3,,0,202.2,3.37337,0,0,0,,
1552,1,SBT2050,2,3,,0,206.9,3.373482,0,0,0,,
1552,1,SBT2050,2,3,,0,211.6,3.37358,0,0,0,,
1552,1,SBT2050,2,3,,0,216.3,3.37319,0,0,0,,
1552,1,SBT2050,2,3,,0,221,3.37326,0,0,0,25.1,
1552,1,SBT2050,2,3,,0,225.7,3.37335,0,0,0,,
1552,1,SBT2050,2,3,,0,230.4,3.37361,0,0,0,,
1552,1,SBT2050,2,3,,0,235.1,3.37345,0,0,0,,
1552,1,SBT2050,2,3,,0,239.8,3.3736,0,0,0,,
1552,1,SBT2050,2,3,,0,244.5,3.37361,0,0,0,,
1552,1,SBT2050,2,3,,0,249.2,3.373326,0,0,0,,
1552,1,SBT2050,2,3,,0,253.9,3.37366,0,0,0,,
1552,1,SBT2050,2,3,,0,258.6,3.37363,0,0,0,,
1552,1,SBT2050,2,3,,0,263.3,3.37366,0,0,0,,
1552,1,SBT2050,2,3,,0,268,3.37366,0,0,0,,
1552,1,SBT2050,2,3,,0,272.7,3.37377,0,0,0,,
1552,1,SBT2050,2,3,,0,277.4,3.37383,0,0,0,,
1552,1,SBT2050,2,3,,0,282.1,3.37374,0,0,0,,
1552,1,SBT2050,2,3,,0,286.8,3.37359,0,0,0,,
1552,1,SBT2050,2,3,,0,291.5,3.37379,0,0,0,,
1552,1,SBT2050,2,3,,0,296.2,3.37382,0,0,0,,
1552,1,SBT2050,2,3,,0,300.9,3.37365,0,0,0,,
1552,1,SBT2050,2,3,,0,305.6,3.37365,0,0,0,,
1552,1,SBT2050,2,3,,0,310.3,3.37391,0,0,0,,
1552,1,SBT2050,2,3,,0,315,3.37356,0,0,0,,
1552,1,SBT2050,2,3,,0,319.7,3.37379,0,0,0,,
1552,1,SBT2050,2,3,,0,324.4,3.3737,0,0,0,,
1552,1,SBT2050,2,3,,0,329.1,3.37388,0,0,0,,
1552,1,SBT2050,2,3,,0,333.8,3.37392,0,0,0,,
1552,1,SBT2050,2,3,,0,338.5,3.37362,0,0,0,,
1552,1,SBT2050,2,3,,0,343.2,3.37381,0,0,0,,
1552,1,SBT2050,2,3,,0,347.9,3.373748,0,0,0,,
1552,1,SBT2050,2,3,,0,352.6,3.37393,0,0,0,,
1552,1,SBT2050,2,3,,0,357.3,3.37396,0,0,0,,
1552,1,SBT2050,2,3,,0,362,3.37379,0,0,0,,
1552,1,SBT2050,2,3,,0,366.7,3.3738,0,0,0,,
1552,1,SBT2050,2,3,,0,371.4,3.37395,0,0,0,,
1552,1,SBT2050,2,3,,0,376.1,3.37378,0,0,0,,
1552,1,SBT2050,2,3,,0,380.8,3.37391,0,0,0,,
1552,1,SBT2050,2,3,,0,385.5,3.37405,0,0,0,,
1552,1,SBT2050,2,3,,0,390.2,3.37411,0,0,0,,
1552,1,SBT2050,2,3,,0,394.9,3.374058,0,0,0,,
1552,1,SBT2050,2,3,,0,399.6,3.374098,0,0,0,,
1552,1,SBT2050,2,3,,0,404.3,3.37403,0,0,0,,
1552,1,SBT2050,2,3,,0,409,3.37396,0,0,0,,
1552,1,SBT2050,2,3,,0,413.7,3.374138,0,0,0,,
1552,1,SBT2050,2,3,,0,418.4,3.374,0,0,0,,
1552,1,SBT2050,2,3,,0,423.1,3.37399,0,0,0,,
1552,1,SBT2050,2,3,,0,427.8,3.373982,0,0,0,,
1552,1,SBT2050,2,3,,0,432.5,3.37395,0,0,0,,
1552,1,SBT2050,2,3,,0,437.2,3.37406,0,0,0,,
1552,1,SBT2050,2,3,,0,441.9,3.37401,0,0,0,,
1552,1,SBT2050,2,3,,0,446.6,3.37414,0,0,0,,
1552,1,SBT2050,2,3,,0,451.3,3.37416,0,0,0,,
1552,1,SBT2050,2,3,,0,456,3.374216,0,0,0,,
1552,1,SBT2050,2,3,,0,460.7,3.374208,0,0,0,,
1552,1,SBT2050,2,3,,0,465.4,3.3741,0,0,0,,
1552,1,SBT2050,2,3,,0,470.1,3.374194,0,0,0,,
1552,1,SBT2050,2,3,,0,474.8,3.37397,0,0,0,,
1552,1,SBT2050,2,3,,0,479.5,3.37412,0,0,0,,
1552,1,SBT2050,2,3,,0,484.2,3.37412,0,0,0,,
1552,1,SBT2050,2,3,,0,488.9,3.37444,0,0,0,,
1552,1,SBT2050,2,3,,0,493.6,3.37418,0,0,0,,
1552,1,SBT2050,2,3,,0,498.3,3.37429,0,0,0,,
1552,1,SBT2050,2,3,,0,503,3.37412,0,0,0,,
1552,1,SBT2050,2,3,,0,507.7,3.37449,0,0,0,,
1552,1,SBT2050,2,3,,0,512.4,3.37435,0,0,0,,
1552,1,SBT2050,2,3,,0,517.1,3.37449,0,0,0,,
1552,1,SBT2050,2,3,,0,521.8,3.37466,0,0,0,,
1552,1,SBT2050,2,3,,0,526.5,3.37448,0,0,0,,
1552,1,SBT2050,2,3,,0,531.2,3.37463,0,0,0,,
1552,1,SBT2050,2,3,,0,535.9,3.37451,0,0,0,,
1552,1,SBT2050,2,3,,0,540.6,3.37476,0,0,0,,
1552,1,SBT2050,2,3,,0,545.3,3.37451,0,0,0,,
1552,1,SBT2050,2,3,,0,550,3.37475,0,0,0,,
1552,1,SBT2050,2,3,,0,554.7,3.37461,0,0,0,,
1552,1,SBT2050,2,3,,0,559.4,3.37463,0,0,0,,
1552,1,SBT2050,2,3,,0,564.1,3.37455,0,0,0,,
1552,1,SBT2050,2,3,,0,568.8,3.37475,0,0,0,,
1552,1,SBT2050,2,3,,0,573.5,3.37476,0,0,0,,
1552,1,SBT2050,2,3,,0,578.2,3.3748,0,0,0,,
1552,1,SBT2050,2,3,,0,582.9,3.37483,0,0,0,,
1552,1,SBT2050,2,3,,0,587.6,3.37454,0,0,0,,
1552,1,SBT2050,2,3,,0,592.3,3.37461,0,0,0,,
1552,1,SBT2050,2,3,,0,597,3.37497,0,0,0,,
1552,1,SBT2050,2,3,,0,601.7,3.37484,0,0,0,,
1552,1,SBT2050,2,3,,0,606.4,3.37475,0,0,0,,
1552,1,SBT2050,2,3,,0,611.1,3.37488,0,0,0,,
1552,1,SBT2050,2,3,,0,615.8,3.37491,0,0,0,,
1552,1,SBT2050,2,3,,0,620.5,3.37509,0,0,0,,
1552,1,SBT2050,2,3,,0,625.2,3.37504,0,0,0,,
1552,1,SBT2050,2,3,,0,629.9,3.37485,0,0,0,,
1552,1,SBT2050,2,3,,0,634.6,3.37459,0,0,0,,
1552,1,SBT2050,2,3,,0,639.3,3.3748,0,0,0,,
1552,1,SBT2050,2,3,,0,644,3.37505,0,0,0,,
1552,1,SBT2050,2,3,,0,648.7,3.37473,0,0,0,,
1552,1,SBT2050,2,3,,0,653.4,3.374766,0,0,0,,
1552,1,SBT2050,2,3,,0,658.1,3.37482,0,0,0,,
1552,1,SBT2050,2,3,,0,662.8,3.37476,0,0,0,,
1552,1,SBT2050,2,3,,0,667.5,3.37477,0,0,0,,
1552,1,SBT2050,2,3,,0,672.2,3.37501,0,0,0,,
1552,1,SBT2050,2,3,,0,676.9,3.37493,0,0,0,,
1552,1,SBT2050,2,3,,0,681.6,3.37498,0,0,0,,
1552,1,SBT2050,2,3,,0,686.3,3.37495,0,0,0,,
1552,1,SBT2050,2,3,,0,691,3.37507,0,0,0,,
1552,1,SBT2050,2,3,,0,695.7,3.37503,0,0,0,,
1552,1,SBT2050,2,3,,0,700.4,3.37489,0,0,0,,
1552,1,SBT2050,2,3,,0,705.1,3.37495,0,0,0,,
1552,1,SBT2050,2,3,,0,709.8,3.37502,0,0,0,,
1552,1,SBT2050,2,3,,0,714.5,3.37517,0,0,0,,
1552,1,SBT2050,2,3,,0,719.2,3.375188,0,0,0,,
1552,1,SBT2050,2,3,,0,723.9,3.375388,0,0,0,,
1552,1,SBT2050,2,3,,0,728.6,3.375164,0,0,0,,
1552,1,SBT2050,2,3,,0,733.3,3.37508,0,0,0,,
1552,1,SBT2050,2,3,,0,738,3.375196,0,0,0,,
1552,1,SBT2050,2,3,,0,742.7,3.37521,0,0,0,,
1552,1,SBT2050,2,3,,0,747.4,3.37523,0,0,0,,
1552,1,SBT2050,2,3,,0,752.1,3.37529,0,0,0,,
1552,1,SBT2050,2,3,,0,756.8,3.37518,0,0,0,,
1552,1,SBT2050,2,3,,0,761.5,3.37527,0,0,0,,
1552,1,SBT2050,2,3,,0,766.2,3.37519,0,0,0,,
1552,1,SBT2050,2,3,,0,770.9,3.37529,0,0,0,,
1552,1,SBT2050,2,3,,0,775.6,3.37506,0,0,0,,
1552,1,SBT2050,2,3,,0,780.3,3.37517,0,0,0,,
1552,1,SBT2050,2,3,,0,785,3.37523,0,0,0,,
1552,1,SBT2050,2,3,,0,789.7,3.3752,0,0,0,,
1552,1,SBT2050,2,3,,0,794.4,3.37493,0,0,0,,
1552,1,SBT2050,2,3,,0,799.1,3.37519,0,0,0,,
1552,1,SBT2050,2,3,,0,803.8,3.37506,0,0,0,,
1552,1,SBT2050,2,3,,0,808.5,3.37526,0,0,0,,
1552,1,SBT2050,2,3,,0,813.2,3.375338,0,0,0,,
1552,1,SBT2050,2,3,,0,817.9,3.3752,0,0,0,,
1552,1,SBT2050,2,3,,0,822.6,3.37551,0,0,0,,
1552,1,SBT2050,2,3,,0,827.3,3.37541,0,0,0,,
1552,1,SBT2050,2,3,,0,832,3.3755,0,0,0,,
1552,1,SBT2050,2,3,,0,836.7,3.37541,0,0,0,,
1552,1,SBT2050,2,3,,0,841.4,3.37543,0,0,0,,
1552,1,SBT2050,2,3,,0,846.1,3.37538,0,0,0,,
1552,1,SBT2050,2,3,,0,850.8,3.37532,0,0,0,,
1552,1,SBT2050,2,3,,0,855.5,3.37534,0,0,0,,
1552,1,SBT2050,2,3,,0,860.2,3.37567,0,0,0,,
1552,1,SBT2050,2,3,,0,864.9,3.37581,0,0,0,,
1552,1,SBT2050,2,3,,0,869.6,3.375636,0,0,0,,
1552,1,SBT2050,2,3,,0,874.3,3.37571,0,0,0,,
1552,1,SBT2050,2,3,,0,879,3.37572,0,0,0,,
1552,1,SBT2050,2,3,,0,883.7,3.37595,0,0,0,,
1552,1,SBT2050,2,3,,0,888.4,3.37557,0,0,0,,
1552,1,SBT2050,2,3,,0,893.1,3.3755,0,0,0,,
1552,1,SBT2050,2,3,,0,897.8,3.375766,0,0,0,,
1552,1,SBT2050,2,3,,0,902.5,3.37583,0,0,0,,
1552,1,SBT2050,2,3,,0,907.2,3.3756,0,0,0,,
1552,1,SBT2050,2,3,,0,911.9,3.3759,0,0,0,,
1552,1,SBT2050,2,3,,0,916.6,3.37546,0,0,0,,
1552,1,SBT2050,2,3,,0,921.3,3.375582,0,0,0,,
1552,1,SBT2050,2,3,,0,926,3.375604,0,0,0,,
1552,1,SBT2050,2,3,,0,930.7,3.37568,0,0,0,,
1552,1,SBT2050,2,3,,0,935.4,3.37565,0,0,0,,
1552,1,SBT2050,2,3,,0,940.1,3.37572,0,0,0,,
1552,1,SBT2050,2,3,,0,944.8,3.37568,0,0,0,,
1552,1,SBT2050,2,3,,0,949.5,3.37583,0,0,0,,
1552,1,SBT2050,2,3,,0,954.2,3.37581,0,0,0,,
1552,1,SBT2050,2,3,,0,958.9,3.37579,0,0,0,,
1552,1,SBT2050,2,3,,0,963.6,3.37617,0,0,0,,
1552,1,SBT2050,2,3,,0,968.3,3.3759,0,0,0,,
1552,1,SBT2050,2,3,,0,973,3.37599,0,0,0,,
1552,1,SBT2050,2,3,,0,977.7,3.376166,0,0,0,,
1552,1,SBT2050,2,3,,0,982.4,3.37598,0,0,0,,
1552,1,SBT2050,2,3,,0,987.1,3.37586,0,0,0,,
1552,1,SBT2050,2,3,,0,991.8,3.37593,0,0,0,,
1552,1,SBT2050,2,3,,0,996.5,3.37594,0,0,0,,
1552,1,SBT2050,2,3,,0,1001.2,3.37594,0,0,0,,
1552,1,SBT2050,2,3,,0,1005.9,3.37617,0,0,0,,
1552,1,SBT2050,2,3,,0,1010.6,3.37601,0,0,0,,
1552,1,SBT2050,2,3,,0,1015.3,3.37624,0,0,0,,
1552,1,SBT2050,2,3,,0,1020,3.37612,0,0,0,25.1,
1552,1,SBT2050,2,3,,0,1024.7,3.37602,0,0,0,,
1552,1,SBT2050,2,3,,0,1029.4,3.37616,0,0,0,,
1552,1,SBT2050,2,3,,0,1034.1,3.37595,0,0,0,,
1552,1,SBT2050,2,3,,0,1038.8,3.37648,0,0,0,,
1552,1,SBT2050,2,3,,0,1043.5,3.376366,0,0,0,,
1552,1,SBT2050,2,3,,0,1048.2,3.37619,0,0,0,,
1552,1,SBT2050,2,3,,0,1052.9,3.37621,0,0,0,,
1552,1,SBT2050,2,3,,0,1057.6,3.37652,0,0,0,,
1552,1,SBT2050,2,3,,0,1062.3,3.376096,0,0,0,,
1552,1,SBT2050,2,3,,0,1067,3.3762,0,0,0,,
1552,1,SBT2050,2,3,,0,1071.7,3.37646,0,0,0,,
1552,1,SBT2050,2,3,,0,1076.4,3.37627,0,0,0,,
1552,1,SBT2050,2,3,,0,1081.1,3.37631,0,0,0,,
1552,1,SBT2050,2,3,,0,1085.8,3.37651,0,0,0,,
1552,1,SBT2050,2,3,,0,1090.5,3.376228,0,0,0,,
1552,1,SBT2050,2,3,,0,1095.2,3.37641,0,0,0,,
1552,1,SBT2050,2,3,,0,1099.9,3.37638,0,0,0,,
1552,1,SBT2050,2,3,,0,1104.6,3.37629,0,0,0,,
1552,1,SBT2050,2,3,,0,1109.3,3.37635,0,0,0,,
1552,1,SBT2050,2,3,,0,1114,3.376328,0,0,0,,
1552,1,SBT2050,2,3,,0,1118.7,3.37638,0,0,0,,
1552,1,SBT2050,2,3,,0,1123.4,3.37638,0,0,0,,
1552,1,SBT2050,2,3,,0,1128.1,3.376366,0,0,0,,
1552,1,SBT2050,2,3,,0,1132.8,3.37627,0,0,0,,
1552,1,SBT2050,2,3,,0,1137.5,3.37637,0,0,0,,
1552,1,SBT2050,2,3,,0,1142.2,3.3762,0,0,0,,
1552,1,SBT2050,2,3,,0,1146.9,3.376312,0,0,0,,
1552,1,SBT2050,2,3,,0,1151.6,3.37649,0,0,0,,
1552,1,SBT2050,2,3,,0,1156.3,3.376512,0,0,0,,
1552,1,SBT2050,2,3,,0,1161,3.37628,0,0,0,,
1552,1,SBT2050,2,3,,0,1165.7,3.37654,0,0,0,,
1552,1,SBT2050,2,3,,0,1170.4,3.37655,0,0,0,,
1552,1,SBT2050,2,3,,0,1175.1,3.37647,0,0,0,,
1552,1,SBT2050,2,3,,0,1179.8,3.37646,0,0,0,,
1552,1,SBT2050,2,3,,0,1184.5,3.37645,0,0,0,,
1552,1,SBT2050,2,3,,0,1189.2,3.37642,0,0,0,,
1552,1,SBT2050,2,3,,0,1193.9,3.37637,0,0,0,,
1552,1,SBT2050,2,3,,0,1198.6,3.37642,0,0,0,,
1552,1,SBT2050,2,3,,0,1203.3,3.37644,0,0,0,,
1552,1,SBT2050,2,3,,0,1208,3.37648,0,0,0,,
1552,1,SBT2050,2,3,,0,1212.7,3.376618,0,0,0,,
1552,1,SBT2050,2,3,,0,1217.4,3.3765,0,0,0,,
1552,1,SBT2050,2,3,,0,1222.1,3.37662,0,0,0,,
1552,1,SBT2050,2,3,,0,1226.8,3.37659,0,0,0,,
1552,1,SBT2050,2,3,,0,1231.5,3.3766,0,0,0,,
1552,1,SBT2050,2,3,,0,1236.2,3.37649,0,0,0,,
1552,1,SBT2050,2,3,,0,1240.9,3.37656,0,0,0,,
1552,1,SBT2050,2,3,,0,1245.6,3.37641,0,0,0,,
1552,1,SBT2050,2,3,,0,1250.3,3.37679,0,0,0,,
1552,1,SBT2050,2,3,,0,1255,3.37659,0,0,0,,
1552,1,SBT2050,2,3,,0,1259.7,3.37672,0,0,0,,
1552,1,SBT2050,2,3,,0,1264.4,3.37681,0,0,0,,
1552,1,SBT2050,2,3,,0,1269.1,3.37655,0,0,0,,
1552,1,SBT2050,2,3,,0,1273.8,3.37659,0,0,0,,
1552,1,SBT2050,2,3,,0,1278.5,3.37677,0,0,0,,
1552,1,SBT2050,2,3,,0,1283.2,3.37674,0,0,0,,
1552,1,SBT2050,2,3,,0,1287.9,3.37676,0,0,0,,
1552,1,SBT2050,2,3,,0,1292.6,3.37681,0,0,0,,
1552,1,SBT2050,2,3,,0,1297.3,3.3766,0,0,0,,
1552,1,SBT2050,2,3,,0,1302,3.37674,0,0,0,,
1552,1,SBT2050,2,3,,0,1306.7,3.37658,0,0,0,,
1552,1,SBT2050,2,3,,0,1311.4,3.376634,0,0,0,,
1552,1,SBT2050,2,3,,0,1316.1,3.37668,0,0,0,,
1552,1,SBT2050,2,3,,0,1320.8,3.3768,0,0,0,,
1552,1,SBT2050,2,3,,0,1325.5,3.376794,0,0,0,,
1552,1,SBT2050,2,3,,0,1330.2,3.37691,0,0,0,,
1552,1,SBT2050,2,3,,0,1334.9,3.37676,0,0,0,,
1552,1,SBT2050,2,3,,0,1339.6,3.37696,0,0,0,,
1552,1,SBT2050,2,3,,0,1344.3,3.376816,0,0,0,,
1552,1,SBT2050,2,3,,0,1349,3.37697,0,0,0,,
1552,1,SBT2050,2,3,,0,1353.7,3.37705,0,0,0,,
1552,1,SBT2050,2,3,,0,1358.4,3.376912,0,0,0,,
1552,1,SBT2050,2,3,,0,1363.1,3.37694,0,0,0,,
1552,1,SBT2050,2,3,,0,1367.8,3.37696,0,0,0,,
1552,1,SBT2050,2,3,,0,1372.5,3.376874,0,0,0,,
1552,1,SBT2050,2,3,,0,1377.2,3.376888,0,0,0,,
1552,1,SBT2050,2,3,,0,1381.9,3.37678,0,0,0,,
1552,1,SBT2050,2,3,,0,1386.6,3.37687,0,0,0,,
1552,1,SBT2050,2,3,,0,1391.3,3.37689,0,0,0,,
1552,1,SBT2050,2,3,,0,1396,3.37707,0,0,0,,
1552,1,SBT2050,2,3,,0,1400.7,3.37718,0,0,0,,
1552,1,SBT2050,2,3,,0,1405.4,3.37695,0,0,0,,
1552,1,SBT2050,2,3,,0,1410.1,3.377016,0,0,0,,
1552,1,SBT2050,2,3,,0,1414.8,3.377,0,0,0,,
1552,1,SBT2050,2,3,,0,1419.5,3.37689,0,0,0,,
1552,1,SBT2050,2,3,,0,1424.2,3.37706,0,0,0,,
1552,1,SBT2050,2,3,,0,1428.9,3.377,0,0,0,,
1552,1,SBT2050,2,3,,0,1433.6,3.37706,0,0,0,,
1552,1,SBT2050,2,3,,0,1438.3,3.37704,0,0,0,,
1552,1,SBT2050,2,3,,0,1443,3.37695,0,0,0,,
1552,1,SBT2050,2,3,,0,1447.7,3.376884,0,0,0,,
1552,1,SBT2050,2,3,,0,1452.4,3.37711,0,0,0,,
1552,1,SBT2050,2,3,,0,1457.1,3.37718,0,0,0,,
1552,1,SBT2050,2,3,,0,1461.8,3.376986,0,0,0,,
1552,1,SBT2050,2,3,,0,1466.5,3.37722,0,0,0,,
1552,1,SBT2050,2,3,,0,1471.2,3.37717,0,0,0,,
1552,1,SBT2050,2,3,,0,1475.9,3.37717,0,0,0,,
1552,1,SBT2050,2,3,,0,1480.6,3.37712,0,0,0,,
1552,1,SBT2050,2,3,,0,1485.3,3.37708,0,0,0,,
1552,1,SBT2050,2,3,,0,1490,3.37705,0,0,0,,
1552,1,SBT2050,2,3,,0,1494.7,3.37726,0,0,0,,
1552,1,SBT2050,2,3,,0,1499.4,3.37732,0,0,0,,
1552,1,SBT2050,2,3,,0,1504.1,3.37721,0,0,0,,
1552,1,SBT2050,2,3,,0,1508.8,3.377008,0,0,0,,
1552,1,SBT2050,2,3,,0,1513.5,3.37732,0,0,0,,
1552,1,SBT2050,2,3,,0,1518.2,3.377212,0,0,0,,
1552,1,SBT2050,2,3,,0,1522.9,3.37724,0,0,0,,
1552,1,SBT2050,2,3,,0,1527.6,3.37723,0,0,0,,
1552,1,SBT2050,2,3,,0,1532.3,3.377506,0,0,0,,
1552,1,SBT2050,2,3,,0,1537,3.37737,0,0,0,,
1552,1,SBT2050,2,3,,0,1541.7,3.3776,0,0,0,,
1552,1,SBT2050,2,3,,0,1546.4,3.37756,0,0,0,,
1552,1,SBT2050,2,3,,0,1551.1,3.377556,0,0,0,,
1552,1,SBT2050,2,3,,0,1555.8,3.3776,0,0,0,,
1552,1,SBT2050,2,3,,0,1560.5,3.37779,0,0,0,,
1552,1,SBT2050,2,3,,0,1565.2,3.37769,0,0,0,,
1552,1,SBT2050,2,3,,0,1569.9,3.377632,0,0,0,,
1552,1,SBT2050,2,3,,0,1574.6,3.37743,0,0,0,,
1552,1,SBT2050,2,3,,0,1579.3,3.37753,0,0,0,,
1552,1,SBT2050,2,3,,0,1584,3.37751,0,0,0,,
1552,1,SBT2050,2,3,,0,1588.7,3.37746,0,0,0,,
1552,1,SBT2050,2,3,,0,1593.4,3.37764,0,0,0,,
1552,1,SBT2050,2,3,,0,1598.1,3.37752,0,0,0,,
1552,1,SBT2050,2,3,,0,1602.8,3.37754,0,0,0,,
1552,1,SBT2050,2,3,,0,1607.5,3.37761,0,0,0,,
1552,1,SBT2050,2,3,,0,1612.2,3.37742,0,0,0,,
1552,1,SBT2050,2,3,,0,1616.9,3.37743,0,0,0,,
1552,1,SBT2050,2,3,,0,1621.6,3.37768,0,0,0,,
1552,1,SBT2050,2,3,,0,1626.3,3.37759,0,0,0,,
1552,1,SBT2050,2,3,,0,1631,3.37762,0,0,0,,
1552,1,SBT2050,2,3,,0,1635.7,3.37759,0,0,0,,
1552,1,SBT2050,2,3,,0,1640.4,3.37775,0,0,0,,
1552,1,SBT2050,2,3,,0,1645.1,3.37771,0,0,0,,
1552,1,SBT2050,2,3,,0,1649.8,3.37774,0,0,0,,
1552,1,SBT2050,2,3,,0,1654.5,3.37767,0,0,0,,
1552,1,SBT2050,2,3,,0,1659.2,3.37759,0,0,0,,
1552,1,SBT2050,2,3,,0,1663.9,3.37779,0,0,0,,
1552,1,SBT2050,2,3,,0,1668.6,3.37776,0,0,0,,
1552,1,SBT2050,2,3,,0,1673.3,3.37756,0,0,0,,
1552,1,SBT2050,2,3,,0,1678,3.37762,0,0,0,,
1552,1,SBT2050,2,3,,0,1682.7,3.3779,0,0,0,,
1552,1,SBT2050,2,3,,0,1687.4,3.377734,0,0,0,,
1552,1,SBT2050,2,3,,0,1692.1,3.37777,0,0,0,,
1552,1,SBT2050,2,3,,0,1696.8,3.377838,0,0,0,,
1552,1,SBT2050,2,3,,0,1701.5,3.37749,0,0,0,,
1552,1,SBT2050,2,3,,0,1706.2,3.3776,0,0,0,,
1552,1,SBT2050,2,3,,0,1710.9,3.37794,0,0,0,,
1552,1,SBT2050,2,3,,0,1715.6,3.37788,0,0,0,,
1552,1,SBT2050,2,3,,0,1720.3,3.37796,0,0,0,,
1552,1,SBT2050,2,3,,0,1725,3.37777,0,0,0,,
1552,1,SBT2050,2,3,,0,1729.7,3.377644,0,0,0,,
1552,1,SBT2050,2,3,,0,1734.4,3.37804,0,0,0,,
1552,1,SBT2050,2,3,,0,1739.1,3.37773,0,0,0,,
1552,1,SBT2050,2,3,,0,1743.8,3.37774,0,0,0,,
1552,1,SBT2050,2,3,,0,1748.5,3.377806,0,0,0,,
1552,1,SBT2050,2,3,,0,1753.2,3.37794,0,0,0,,
1552,1,SBT2050,2,3,,0,1757.9,3.37798,0,0,0,,
1552,1,SBT2050,2,3,,0,1762.6,3.377942,0,0,0,,
1552,1,SBT2050,2,3,,0,1767.3,3.37777,0,0,0,,
1552,1,SBT2050,2,3,,0,1772,3.37764,0,0,0,,
1552,1,SBT2050,2,3,,0,1776.7,3.37758,0,0,0,,
1552,1,SBT2050,2,3,,0,1781.4,3.37774,0,0,0,,
1552,1,SBT2050,2,3,,0,1786.1,3.37789,0,0,0,,
1552,1,SBT2050,2,3,,0,1790.8,3.3779,0,0,0,,
1552,1,SBT2050,2,3,,0,1795.5,3.37805,0,0,0,,
1552,1,SBT2050,2,3,,5,1800.2,3.37781,0,0,0,,
1552,1,SBT2050,2,3,,7,1804.8,3.55303,2.4203,0.924,0,,
1552,1,SBT2050,2,3,,7,1809.5,3.74723,5.755,6.144,0,,
1552,1,SBT2050,2,3,,7,1814.1,3.86308,7.514,14.625,0,,
1552,1,SBT2050,2,3,,7,1818.8,3.95341,8.764,25.367,0,,
1552,1,SBT2050,2,3,,7,1823.4,4.00312,9.145,36.869,0,,
1552,1,SBT2050,2,3,,7,1828.1,4.0255,9.023,48.778,0,,
1552,1,SBT2050,2,3,,7,1832.7,4.02023,8.457,59.985,0,,
1552,1,SBT2050,2,3,,7,1837.4,4.02722,8.315,70.915,0,,
1552,1,SBT2050,2,3,,7,1842,4.032164,8.182,81.444,0,27.8,
1552,1,SBT2050,2,3,,7,1846.7,4.03506,8.053,92.049,0,,
1552,1,SBT2050,2,3,,7,1851.3,4.0366,7.953,102.273,0,,
1552,1,SBT2050,2,3,,7,1856,4.03556,7.834,112.57,0,29.1,
1552,1,SBT2050,2,3,,7,1860.6,4.03335,7.725,122.514,0,,
1552,1,SBT2050,2,3,,7,1865.3,4.030652,7.632,132.537,0,,
1552,1,SBT2050,2,3,,7,1869.9,4.02705,7.535,142.224,0,,
1552,1,SBT2050,2,3,,7,1874.5,4.0228,7.436,151.794,0,,
1552,1,SBT2050,2,3,,7,1879.2,4.019318,7.368,161.457,0,,
1552,1,SBT2050,2,3,,7,1883.8,4.01472,7.273,170.81,0,,
1552,1,SBT2050,2,3,,7,1888.5,4.01019,7.193,180.259,0,,
1552,1,SBT2050,2,3,,7,1893.1,4.00642,7.127,189.412,0,,
1552,1,SBT2050,2,3,,7,1897.8,4.00206,7.053,198.667,0,,
1552,1,SBT2050,2,3,,7,1902.4,3.99829,6.997,207.639,0,,
1552,1,SBT2050,2,3,,7,1907.1,3.99474,6.927,216.721,0,,
1552,1,SBT2050,2,3,,7,1911.7,3.99096,6.86,225.528,0,,
1552,1,SBT2050,2,3,,7,1916.4,3.988076,6.813,234.451,0,,
1552,1,SBT2050,2,3,,7,1921,3.98458,6.754,243.113,0,33.9,
1552,1,SBT2050,2,3,,7,1925.7,3.981658,6.693,251.891,0,,
1552,1,SBT2050,2,3,,7,1930.3,3.97915,6.652,260.415,0,,
1552,1,SBT2050,2,3,,7,1935,3.97652,6.597,269.059,0,,
1552,1,SBT2050,2,3,,7,1939.6,3.974204,6.55,277.465,0,,
1552,1,SBT2050,2,3,,7,1944.3,3.97237,6.51,285.992,0,,
1552,1,SBT2050,2,3,,7,1948.9,3.97016,6.466,294.28,0,,
1552,1,SBT2050,2,3,,7,1953.6,3.96855,6.424,302.695,0,,
1552,1,SBT2050,2,3,,7,1958.2,3.96682,6.39,310.879,0,,
1552,1,SBT2050,2,3,,7,1962.9,3.9654,6.355,319.197,0,,
1552,1,SBT2050,2,3,,7,1967.5,3.96377,6.308,327.294,0,,
1552,1,SBT2050,2,3,,7,1972.2,3.96281,6.276,335.51,0,,
1552,1,SBT2050,2,3,,7,1976.8,3.961774,6.244,343.513,0,,
1552,1,SBT2050,2,3,,7,1981.5,3.961158,6.219,351.647,0,,
1552,1,SBT2050,2,3,,7,1986.1,3.96054,6.193,359.578,0,,
1552,1,SBT2050,2,3,,7,1990.8,3.95981,6.16,367.641,0,,
1552,1,SBT2050,2,3,,7,1995.4,3.95928,6.138,375.497,0,,
1552,1,SBT2050,2,3,,7,2000.1,3.95861,6.105,383.489,0,,
1552,1,SBT2050,2,3,,7,2004.7,3.95898,6.086,391.279,0,,
1552,1,SBT2050,2,3,,7,2009.4,3.95903,6.062,399.209,0,,
1552,1,SBT2050,2,3,,7,2014,3.95816,6.024,406.933,0,37.1,
1552,1,SBT2050,2,3,,7,2018.6,3.958144,5.994,414.613,0,,
1552,1,SBT2050,2,3,,7,2023.3,3.958156,5.974,422.426,0,,
1552,1,SBT2050,2,3,,7,2027.9,3.95843,5.954,430.048,0,,
1552,1,SBT2050,2,3,,7,2032.6,3.95884,5.933,437.811,0,,
1552,1,SBT2050,2,3,,7,2037.2,3.95888,5.907,445.374,0,,
1552,1,SBT2050,2,3,,7,2041.9,3.95951,5.887,453.073,0,,
1552,1,SBT2050,2,3,,7,2046.5,3.95953,5.861,460.585,0,,
1552,1,SBT2050,2,3,,7,2051.2,3.95979,5.836,468.22,0,,
1552,1,SBT2050,2,3,,7,2055.8,3.96007,5.811,475.666,0,,
1552,1,SBT2050,2,3,,7,2060.5,3.96104,5.798,483.25,0,,
1552,1,SBT2050,2,3,,7,2065.1,3.96222,5.789,490.655,0,,
1552,1,SBT2050,2,3,,7,2069.8,3.96252,5.755,498.193,0,,
1552,1,SBT2050,2,3,,7,2074.4,3.96258,5.726,505.528,0,,
1552,1,SBT2050,2,3,,7,2079.1,3.96359,5.711,512.992,0,,
1552,1,SBT2050,2,3,,7,2083.7,3.96393,5.681,520.272,0,,
1552,1,SBT2050,2,3,,7,2088.4,3.964744,5.661,527.672,0,,
1552,1,SBT2050,2,3,,7,2093,3.965624,5.639,534.891,0,,
1552,1,SBT2050,2,3,,7,2097.7,3.96619,5.614,542.239,0,,
1552,1,SBT2050,2,3,,7,2102.3,3.96683,5.588,549.395,0,,
1552,1,SBT2050,2,3,,7,2107,3.96752,5.568,556.672,0,,
1552,1,SBT2050,2,3,,7,2111.6,3.968796,5.55,563.779,0,,
1552,1,SBT2050,2,3,,7,2116.3,3.96939,5.529,571.012,0,,
1552,1,SBT2050,2,3,,7,2120.9,3.97009,5.5,578.056,0,,
1552,1,SBT2050,2,3,,7,2125.6,3.97038,5.471,585.219,0,,
1552,1,SBT2050,2,3,,7,2130.2,3.9712,5.448,592.197,0,,
1552,1,SBT2050,2,3,,7,2134.9,3.97274,5.437,599.303,0,,
1552,1,SBT2050,2,3,,7,2139.5,3.97399,5.422,606.244,0,,
1552,1,SBT2050,2,3,,7,2144.2,3.97447,5.398,613.307,0,,
1552,1,SBT2050,2,3,,7,2148.8,3.975444,5.371,620.189,0,,
1552,1,SBT2050,2,3,,7,2153.489,3.9765,5.354,627.174,0,,
1552,1,SBT2050,2,3,,7,2158.1,3.97711,5.327,634.011,0,,
1552,1,SBT2050,2,3,,7,2162.7,3.97818,5.305,640.803,0,,
1552,1,SBT2050,2,3,,7,2167.4,3.97952,5.299,647.728,0,,
1552,1,SBT2050,2,3,,7,2172,3.98033,5.278,654.486,0,,
1552,1,SBT2050,2,3,,7,2176.7,3.98175,5.252,661.362,0,,
1552,1,SBT2050,2,3,,7,2181.3,3.98225,5.234,668.064,0,,
1552,1,SBT2050,2,3,,7,2186,3.98314,5.2,674.878,0,,
1552,1,SBT2050,2,3,,7,2190.6,3.98338,5.168,681.505,0,,
1552,1,SBT2050,2,3,,7,2195.3,3.984176,5.15,688.243,0,,
1552,1,SBT2050,2,3,,7,2199.9,3.98516,5.126,694.809,0,,
1552,1,SBT2050,2,3,,7,2204.6,3.98592,5.105,701.491,0,,
1552,1,SBT2050,2,3,,7,2209.2,3.986818,5.088,708.005,0,,
1552,1,SBT2050,2,3,,7,2213.9,3.98777,5.065,714.633,0,,
1552,1,SBT2050,2,3,,7,2218.5,3.988722,5.039,721.092,0,,
1552,1,SBT2050,2,3,,7,2223.2,3.989062,5.009,727.649,0,,
1552,1,SBT2050,2,3,,7,2227.8,3.99028,4.988,734.037,0,,
1552,1,SBT2050,2,3,,7,2232.5,3.99111,4.971,740.539,0,,
1552,1,SBT2050,2,3,,7,2237.1,3.99242,4.96,746.882,0,,
1552,1,SBT2050,2,3,,7,2241.8,3.99341,4.945,753.349,0,,
1552,1,SBT2050,2,3,,7,2246.4,3.99411,4.916,759.648,0,,
1552,1,SBT2050,2,3,,7,2251.1,3.99502,4.89,766.049,0,,
1552,1,SBT2050,2,3,,7,2255.7,3.99523,4.86,772.283,0,,
1552,1,SBT2050,2,3,,7,2260.4,3.99634,4.839,778.614,0,,
1552,1,SBT2050,2,3,,7,2265,3.996978,4.817,784.784,0,,
1552,1,SBT2050,2,3,,7,2269.7,3.998,4.799,791.063,0,,
1552,1,SBT2050,2,3,,7,2274.3,3.999008,4.776,797.183,0,,
1552,1,SBT2050,2,3,,7,2279,3.99943,4.7479,803.4,0,,
1552,1,SBT2050,2,3,,7,2283.6,4.00051,4.7278,809.454,0,,
1552,1,SBT2050,2,3,,7,2288.3,4.0017,4.7107,815.616,0,,
1552,1,SBT2050,2,3,,7,2292.9,4.00239,4.6877,821.622,0,,
1552,1,SBT2050,2,3,,7,2297.521,4.00334,4.6633,827.623,0,,
1552,1,SBT2050,2,3,,7,2302.2,4.004208,4.6425,833.668,0,,
1552,1,SBT2050,2,3,,7,2306.8,4.0048,4.6117,839.578,0,,
1552,1,SBT2050,2,3,,7,2311.5,4.00572,4.5939,845.586,0,,
1552,1,SBT2050,2,3,,7,2316.1,4.006622,4.5746,851.443,0,,
1552,1,SBT2050,2,3,,7,2320.8,4.00705,4.5443,857.394,0,,
1552,1,SBT2050,2,3,,7,2325.4,4.008206,4.5268,863.189,0,,
1552,1,SBT2050,2,3,,7,2330.1,4.00894,4.5081,869.086,0,,
1552,1,SBT2050,2,3,,7,2334.7,4.00999,4.4893,874.835,0,,
1552,1,SBT2050,2,3,,7,2339.4,4.010738,4.4648,880.681,0,,
1552,1,SBT2050,2,3,,7,2344,4.011594,4.4419,886.37,0,,
1552,1,SBT2050,2,3,,7,2348.7,4.012076,4.4126,892.151,0,,
1552,1,SBT2050,2,3,,7,2353.3,4.01326,4.4029,897.78,0,,
1552,1,SBT2050,2,3,,7,2358,4.013768,4.378,903.51,0,,
1552,1,SBT2050,2,3,,7,2362.6,4.01485,4.3587,909.093,0,,
1552,1,SBT2050,2,3,,7,2367.3,4.01562,4.3428,914.774,0,,
1552,1,SBT2050,2,3,,7,2371.9,4.01657,4.3169,920.308,0,,
1552,1,SBT2050,2,3,,7,2376.6,4.017114,4.2948,925.931,0,,
1552,1,SBT2050,2,3,,7,2381.2,4.01811,4.2793,931.409,0,,
1552,1,SBT2050,2,3,,7,2385.9,4.01896,4.2533,936.98,0,,
1552,1,SBT2050,2,3,,7,2390.5,4.01979,4.2353,942.402,0,,
1552,1,SBT2050,2,3,,7,2395.2,4.02079,4.2151,947.916,0,,
1552,1,SBT2050,2,3,,7,2399.8,4.02173,4.197,953.291,0,,
1552,1,SBT2050,2,3,,7,2404.5,4.0228,4.1822,958.761,0,,
1552,1,SBT2050,2,3,,7,2409.1,4.024,4.1681,964.094,0,,
1552,1,SBT2050,2,3,,7,2413.8,4.0251,4.1555,969.529,0,,
1552,1,SBT2050,2,3,,7,2418.4,4.02624,4.1422,974.829,0,,
1552,1,SBT2050,2,3,,7,2423.1,4.02792,4.1311,980.229,0,,
1552,1,SBT2050,2,3,,7,2427.7,4.02897,4.113,985.497,0,,
1552,1,SBT2050,2,3,,7,2432.4,4.03026,4.1036,990.86,0,,
1552,1,SBT2050,2,3,,7,2437,4.0315,4.0951,996.097,0,,
1552,1,SBT2050,2,3,,7,2441.6,4.0329,4.0793,1001.322,0,,
1552,1,SBT2050,2,3,,7,2446.3,4.03434,4.0679,1006.64,0,,
1552,1,SBT2050,2,3,,7,2450.9,4.035556,4.0564,1011.829,0,,
1552,1,SBT2050,2,3,,7,2455.6,4.03678,4.0439,1017.12,0,,
1552,1,SBT2050,2,3,,7,2460.2,4.03833,4.0295,1022.278,0,,
1552,1,SBT2050,2,3,,7,2464.9,4.03976,4.019,1027.531,0,,
1552,1,SBT2050,2,3,,7,2469.5,4.04091,4.0023,1032.655,0,,
1552,1,SBT2050,2,3,,7,2474.2,4.04204,3.9905,1037.871,0,,
1552,1,SBT2050,2,3,,7,2478.8,4.043048,3.9722,1042.959,0,,
1552,1,SBT2050,2,3,,7,2483.5,4.044336,3.956,1048.134,0,,
1552,1,SBT2050,2,3,,7,2488.1,4.04535,3.9425,1053.178,0,,
1552,1,SBT2050,2,3,,7,2492.8,4.0467,3.927,1058.318,0,,
1552,1,SBT2050,2,3,,7,2497.4,4.047748,3.9168,1063.33,0,,
1552,1,SBT2050,2,3,,7,2502.1,4.04933,3.9057,1068.435,0,,
1552,1,SBT2050,2,3,,7,2506.7,4.05046,3.893,1073.419,0,,
1552,1,SBT2050,2,3,,7,2511.4,4.051752,3.8782,1078.491,0,,
1552,1,SBT2050,2,3,,7,2516,4.05293,3.8679,1083.44,0,,
1552,1,SBT2050,2,3,,7,2520.7,4.0545,3.858,1088.484,0,,
1552,1,SBT2050,2,3,,7,2525.3,4.055406,3.8441,1093.405,0,,
1552,1,SBT2050,2,3,,7,2530,4.0566,3.824,1098.411,0,,
1552,1,SBT2050,2,3,,7,2534.6,4.057738,3.8111,1103.288,0,,
1552,1,SBT2050,2,3,,7,2539.3,4.05885,3.7994,1108.256,0,,
1552,1,SBT2050,2,3,,7,2543.9,4.059916,3.7826,1113.099,0,,
1552,1,SBT2050,2,3,,7,2548.6,4.06128,3.773,1118.032,0,,
1552,1,SBT2050,2,3,,7,2553.2,4.06235,3.7578,1122.844,0,,
1552,1,SBT2050,2,3,,7,2557.9,4.06357,3.7454,1127.741,0,,
1552,1,SBT2050,2,3,,7,2562.5,4.0646,3.7378,1132.521,0,,
1552,1,SBT2050,2,3,,7,2567.2,4.0663,3.7284,1137.394,0,,
1552,1,SBT2050,2,3,,7,2571.8,4.06726,3.7106,1142.146,0,,
1552,1,SBT2050,2,3,,7,2576.5,4.068602,3.7012,1146.983,0,,
1552,1,SBT2050,2,3,,7,2581.1,4.06953,3.6842,1151.702,0,,
1552,1,SBT2050,2,3,,7,2585.7,4.07053,3.6708,1156.401,0,,
1552,1,SBT2050,2,3,,7,2590.4,4.07179,3.6582,1161.187,0,,
1552,1,SBT2050,2,3,,7,2595,4.07278,3.6438,1165.85,0,,
1552,1,SBT2050,2,3,,7,2599.7,4.07395,3.6341,1170.601,0,,
1552,1,SBT2050,2,3,,7,2604.3,4.07535,3.6272,1175.24,0,,
1552,1,SBT2050,2,3,,7,2609,4.07666,3.6128,1179.968,0,,
1552,1,SBT2050,2,3,,7,2613.6,4.07749,3.5987,1184.575,0,,
1552,1,SBT2050,2,3,,7,2618.3,4.07874,3.5873,1189.267,0,,
1552,1,SBT2050,2,3,,7,2622.9,4.07974,3.5704,1193.838,0,,
1552,1,SBT2050,2,3,,7,2627.6,4.08103,3.5575,1198.493,0,,
1552,1,SBT2050,2,3,,7,2632.2,4.08168,3.5428,1203.03,0,,
1552,1,SBT2050,2,3,,7,2636.9,4.08273,3.5322,1207.648,0,,
1552,1,SBT2050,2,3,,7,2641.5,4.08412,3.5258,1212.156,0,,
1552,1,SBT2050,2,3,,7,2646.2,4.08492,3.51,1216.749,0,,
1552,1,SBT2050,2,3,,7,2650.8,4.08618,3.4971,1221.225,0,,
1552,1,SBT2050,2,3,,7,2655.5,4.087046,3.4838,1225.782,0,,
1552,1,SBT2050,2,3,,7,2660.1,4.08803,3.4687,1230.222,0,,
1552,1,SBT2050,2,3,,7,2664.8,4.08915,3.4593,1234.744,0,,
1552,1,SBT2050,2,3,,7,2669.4,4.09031,3.445,1239.155,0,,
1552,1,SBT2050,2,3,,7,2674.1,4.09146,3.4317,1243.643,0,,
1552,1,SBT2050,2,3,,7,2678.7,4.09241,3.4222,1248.022,0,,
1552,1,SBT2050,2,3,,7,2683.4,4.09342,3.4084,1252.481,0,,
1552,1,SBT2050,2,3,,7,2688,4.09443,3.3949,1256.826,0,34.7,
1552,1,SBT2050,2,3,,7,2692.7,4.095,3.3814,1261.249,0,,
1552,1,SBT2050,2,3,,7,2697.3,4.096446,3.3695,1265.563,0,,
1552,1,SBT2050,2,3,,7,2702,4.09708,3.3565,1269.953,0,,
1552,1,SBT2050,2,3,,7,2706.6,4.09805,3.3393,1274.234,0,,
1552,1,SBT2050,2,3,,7,2711.3,4.09892,3.3277,1278.586,0,,
1552,1,SBT2050,2,3,,7,2715.9,4.100222,3.3182,1282.832,0,,
1552,1,SBT2050,2,3,,7,2720.6,4.1005,3.2983,1287.151,0,,
1552,1,SBT2050,2,3,,7,2725.2,4.10155,3.2889,1291.359,0,,
1552,1,SBT2050,2,3,,7,2729.8,4.10203,3.269,1295.549,0,,
1552,1,SBT2050,2,3,,7,2734.5,4.10286,3.2588,1299.809,0,,
1552,1,SBT2050,2,3,,7,2739.1,4.10396,3.2509,1303.967,0,,
1552,1,SBT2050,2,3,,7,2743.8,4.105028,3.237,1308.205,0,,
1552,1,SBT2050,2,3,,7,2748.4,4.105626,3.2235,1312.331,0,,
1552,1,SBT2050,2,3,,7,2753.1,4.10657,3.2145,1316.532,0,,
1552,1,SBT2050,2,3,,7,2757.7,4.10747,3.1931,1320.625,0,,
1552,1,SBT2050,2,3,,7,2762.4,4.10805,3.1725,1324.78,0,,
1552,1,SBT2050,2,3,,7,2767,4.10861,3.1601,1328.824,0,,
1552,1,SBT2050,2,3,,7,2771.7,4.10993,3.1522,1332.944,0,,
1552,1,SBT2050,2,3,,7,2776.3,4.110996,3.1475,1336.968,0,,
1552,1,SBT2050,2,3,,7,2781,4.11163,3.1262,1341.061,0,,
1552,1,SBT2050,2,3,,7,2785.6,4.112498,3.1156,1345.049,0,,
1552,1,SBT2050,2,3,,7,2790.3,4.11311,3.0969,1349.104,0,,
1552,1,SBT2050,2,3,,7,2794.9,4.11371,3.0835,1353.051,0,,
1552,1,SBT2050,2,3,,7,2799.6,4.114586,3.0726,1357.073,0,,
1552,1,SBT2050,2,3,,7,2804.2,4.11538,3.0559,1360.988,0,,
1552,1,SBT2050,2,3,,7,2808.9,4.115988,3.0448,1364.969,0,,
1552,1,SBT2050,2,3,,7,2813.5,4.11726,3.0396,1368.855,0,,
1552,1,SBT2050,2,3,,7,2818.2,4.11795,3.0258,1372.816,0,,
1552,1,SBT2050,2,3,,7,2822.8,4.11853,3.0094,1376.67,0,,
1552,1,SBT2050,2,3,,7,2827.5,4.11894,2.9938,1380.59,0,,
1552,1,SBT2050,2,3,,7,2832.1,4.11997,2.9769,1384.401,0,,
1552,1,SBT2050,2,3,,7,2836.8,4.12055,2.9687,1388.281,0,,
1552,1,SBT2050,2,3,,7,2841.4,4.1214,2.9568,1392.068,0,,
1552,1,SBT2050,2,3,,7,2846.1,4.12231,2.9414,1395.915,0,,
1552,1,SBT2050,2,3,,7,2850.7,4.12287,2.9307,1399.669,0,,
1552,1,SBT2050,2,3,,7,2855.4,4.12351,2.9157,1403.484,0,,
1552,1,SBT2050,2,3,,7,2860,4.12439,2.9077,1407.203,0,,
1552,1,SBT2050,2,3,,7,2864.647,4.12575,2.9061,1410.956,0,,
1552,1,SBT2050,2,3,,7,2869.3,4.12705,2.9,1414.71,0,,
1552,1,SBT2050,2,3,,7,2873.9,4.12744,2.8864,1418.405,0,,
1552,1,SBT2050,2,3,,7,2878.6,4.12857,2.8814,1422.169,0,,
1552,1,SBT2050,2,3,,7,2883.2,4.12939,2.8685,1425.844,0,,
1552,1,SBT2050,2,3,,7,2887.9,4.13034,2.8593,1429.582,0,,
1552,1,SBT2050,2,3,,7,2892.5,4.13132,2.8491,1433.229,0,,
1552,1,SBT2050,2,3,,7,2897.2,4.13199,2.8362,1436.937,0,,
1552,1,SBT2050,2,3,,7,2901.8,4.13281,2.8283,1440.557,0,,
1552,1,SBT2050,2,3,,7,2906.5,4.133758,2.8151,1444.24,0,,
1552,1,SBT2050,2,3,,7,2911.1,4.13462,2.8098,1447.832,0,,
1552,1,SBT2050,2,3,,7,2915.8,4.1358,2.8085,1451.499,0,,
1552,1,SBT2050,2,3,,7,2920.4,4.137538,2.8086,1455.087,0,,
1552,1,SBT2050,2,3,,7,2925.1,4.13822,2.7912,1458.739,0,,
1552,1,SBT2050,2,3,,7,2929.7,4.138896,2.7851,1462.301,0,,
1552,1,SBT2050,2,3,,7,2934.4,4.140478,2.7828,1465.935,0,,
1552,1,SBT2050,2,3,,7,2939,4.1412,2.7702,1469.485,0,,
1552,1,SBT2050,2,3,,7,2943.7,4.14197,2.7549,1473.094,0,,
1552,1,SBT2050,2,3,,7,2948.3,4.14202,2.7385,1476.602,0,,
1552,1,SBT2050,2,3,,7,2953,4.14319,2.7303,1480.171,0,,
1552,1,SBT2050,2,3,,7,2957.6,4.144468,2.7278,1483.658,0,,
1552,1,SBT2050,2,3,,7,2962.3,4.145008,2.7119,1487.208,0,,
1552,1,SBT2050,2,3,,7,2966.9,4.1459,2.7039,1490.667,0,,
1552,1,SBT2050,2,3,,7,2971.6,4.14687,2.697,1494.195,0,,
1552,1,SBT2050,2,3,,7,2976.2,4.14719,2.683,1497.632,0,,
1552,1,SBT2050,2,3,,7,2980.9,4.1483,2.6769,1501.131,0,,
1552,1,SBT2050,2,3,,7,2985.5,4.14964,2.6754,1504.55,0,,
1552,1,SBT2050,2,3,,7,2990.2,4.15098,2.675,1508.043,0,,
1552,1,SBT2050,2,3,,7,2994.8,4.151876,2.6667,1511.459,0,,
1552,1,SBT2050,2,3,,7,2999.5,4.15245,2.6556,1514.932,0,,
1552,1,SBT2050,2,3,,7,3004.1,4.15379,2.6509,1518.321,0,,
1552,1,SBT2050,2,3,,7,3008.7,4.15446,2.6406,1521.706,0,,
1552,1,SBT2050,2,3,,7,3013.4,4.15542,2.6298,1525.146,0,,
1552,1,SBT2050,2,3,,7,3018,4.15668,2.625,1528.502,0,32.2,
1552,1,SBT2050,2,3,,7,3022.7,4.15704,2.6084,1531.92,0,,
1552,1,SBT2050,2,3,,7,3027.3,4.15804,2.601,1535.248,0,,
1552,1,SBT2050,2,3,,7,3032,4.15884,2.5935,1538.642,0,,
1552,1,SBT2050,2,3,,7,3036.6,4.15951,2.5785,1541.945,0,,
1552,1,SBT2050,2,3,,7,3041.3,4.16026,2.5741,1545.309,0,,
1552,1,SBT2050,2,3,,7,3045.9,4.16162,2.5721,1548.596,0,,
1552,1,SBT2050,2,3,,7,3050.6,4.162764,2.5663,1551.953,0,,
1552,1,SBT2050,2,3,,7,3055.2,4.16338,2.554,1555.224,0,,
1552,1,SBT2050,2,3,,7,3059.9,4.16441,2.5474,1558.553,0,,
1552,1,SBT2050,2,3,,7,3064.5,4.16549,2.5449,1561.807,0,,
1552,1,SBT2050,2,3,,7,3069.2,4.1664,2.5348,1565.125,0,,
1552,1,SBT2050,2,3,,7,3073.8,4.16738,2.5228,1568.355,0,,
1552,1,SBT2050,2,3,,7,3078.5,4.16819,2.5115,1571.643,0,,
1552,1,SBT2050,2,3,,7,3083.1,4.1684,2.4983,1574.84,0,,
1552,1,SBT2050,2,3,,7,3087.8,4.16952,2.4926,1578.098,0,,
1552,1,SBT2050,2,3,,7,3092.4,4.17062,2.4913,1581.283,0,,
1552,1,SBT2050,2,3,,7,3097.1,4.17118,2.4756,1584.526,0,,
1552,1,SBT2050,2,3,,7,3101.7,4.17189,2.4685,1587.684,0,,
1552,1,SBT2050,2,3,,7,3106.4,4.17311,2.4653,1590.905,0,,
1552,1,SBT2050,2,3,,7,3111,4.1746,2.4636,1594.054,0,,
1552,1,SBT2050,2,3,,7,3115.7,4.17501,2.4469,1597.259,0,,
1552,1,SBT2050,2,3,,7,3120.3,4.175708,2.441,1600.381,0,,
1552,1,SBT2050,2,3,,7,3125,4.17699,2.4372,1603.565,0,,
1552,1,SBT2050,2,3,,7,3129.6,4.17811,2.4348,1606.679,0,,
1552,1,SBT2050,2,3,,7,3134.3,4.17851,2.4229,1609.851,0,,
1552,1,SBT2050,2,3,,7,3138.9,4.17939,2.4132,1612.94,0,,
1552,1,SBT2050,2,3,,7,3143.6,4.18031,2.4087,1616.088,0,,
1552,1,SBT2050,2,3,,7,3148.2,4.18116,2.4025,1619.164,0,,
1552,1,SBT2050,2,3,,7,3152.8,4.18187,2.3885,1622.224,0,,
1552,1,SBT2050,2,3,,7,3157.5,4.18269,2.3837,1625.339,0,,
1552,1,SBT2050,2,3,,7,3162.1,4.18385,2.3806,1628.383,0,,
1552,1,SBT2050,2,3,,7,3166.8,4.18437,2.3681,1631.485,0,,
1552,1,SBT2050,2,3,,7,3171.4,4.18509,2.3598,1634.505,0,,
1552,1,SBT2050,2,3,,7,3176.1,4.18625,2.3549,1637.582,0,,
1552,1,SBT2050,2,3,,7,3180.7,4.18714,2.3481,1640.589,0,,
1552,1,SBT2050,2,3,,7,3185.4,4.1878,2.3357,1643.646,0,,
1552,1,SBT2050,2,3,,7,3190,4.18879,2.3299,1646.625,0,,
1552,1,SBT2050,2,3,,7,3194.7,4.18932,2.3256,1649.664,0,,
1552,1,SBT2050,2,3,,7,3199.3,4.190912,2.3236,1652.635,0,,
1552,1,SBT2050,2,3,,7,3204,4.19184,2.3215,1655.667,0,,
1552,1,SBT2050,2,3,,7,3208.6,4.19262,2.3087,1658.628,0,,
1552,1,SBT2050,2,3,,7,3213.3,4.193234,2.3004,1661.637,0,,
1552,1,SBT2050,2,3,,7,3217.9,4.19401,2.2954,1664.573,0,,
1552,1,SBT2050,2,3,,7,3222.6,4.19522,2.2919,1667.568,0,,
1552,1,SBT2050,2,3,,7,3227.2,4.19594,2.286,1670.495,0,,
1552,1,SBT2050,2,3,,7,3231.9,4.196528,2.2723,1673.469,0,,
1552,1,SBT2050,2,3,,7,3236.5,4.197344,2.2667,1676.369,0,,
1552,1,SBT2050,2,3,,7,3241.2,4.198376,2.2634,1679.326,0,,
1552,1,SBT2050,2,3,,7,3245.8,4.19949,2.2565,1682.216,0,,
1552,1,SBT2050,2,3,,7,3250.5,4.200716,2.2508,1685.158,0,,
1552,1,SBT2050,2,3,,7,3255.1,4.20117,2.2401,1688.025,0,,
1552,1,SBT2050,2,3,,7,3259.8,4.20203,2.2347,1690.946,0,,
1552,1,SBT2050,2,3,,7,3264.4,4.20305,2.2316,1693.799,0,,
1552,1,SBT2050,2,3,,7,3269.1,4.20389,2.2218,1696.709,0,,
1552,1,SBT2050,2,3,,7,3273.7,4.20437,2.2102,1699.54,0,,
1552,1,SBT2050,2,3,,7,3278.4,4.20547,2.206,1702.423,0,,
1552,1,SBT2050,2,3,,7,3283,4.20584,2.1991,1705.239,0,,
1552,1,SBT2050,2,3,,7,3287.7,4.20675,2.185,1708.1,0,,
1552,1,SBT2050,2,3,,7,3292.3,4.20746,2.1802,1710.89,0,,
1552,1,SBT2050,2,3,,7,3296.9,4.20824,2.1767,1713.673,0,,
1552,1,SBT2050,2,3,,7,3301.6,4.20948,2.1732,1716.513,0,,
1552,1,SBT2050,2,3,,7,3306.2,4.210618,2.171,1719.289,0,,
1552,1,SBT2050,2,3,,7,3310.9,4.21082,2.1592,1722.117,0,,
1552,1,SBT2050,2,3,,7,3315.5,4.2114,2.1508,1724.87,0,,
1552,1,SBT2050,2,3,,7,3320.2,4.21223,2.1455,1727.674,0,,
1552,1,SBT2050,2,3,,7,3324.8,4.21308,2.1416,1730.413,0,,
1552,1,SBT2050,2,3,,7,3329.5,4.214482,2.1385,1733.207,0,,
1552,1,SBT2050,2,3,,7,3334.1,4.21485,2.125,1735.931,0,,
1552,1,SBT2050,2,3,,7,3338.8,4.215418,2.117,1738.7,0,,
1552,1,SBT2050,2,3,,7,3343.4,4.21647,2.1133,1741.402,0,,
1552,1,SBT2050,2,3,,7,3348.1,4.21734,2.1063,1744.159,0,,
1552,1,SBT2050,2,3,,7,3352.7,4.21785,2.094,1746.841,0,,
1552,1,SBT2050,2,3,,7,3357.4,4.21872,2.089,1749.572,0,,
1552,1,SBT2050,2,3,,7,3362,4.21958,2.0853,1752.238,0,,
1552,1,SBT2050,2,3,,7,3366.7,4.220498,2.0817,1754.958,0,,
1552,1,SBT2050,2,3,,7,3371.3,4.22136,2.0719,1757.61,0,,
1552,1,SBT2050,2,3,,7,3376,4.222484,2.0674,1760.314,0,,
1552,1,SBT2050,2,3,,7,3380.6,4.22293,2.0596,1762.95,0,,
1552,1,SBT2050,2,3,,7,3385.3,4.22366,2.054,1765.634,0,,
1552,1,SBT2050,2,3,,7,3389.9,4.22485,2.0502,1768.256,0,,
1552,1,SBT2050,2,3,,7,3394.6,4.22536,2.0412,1770.928,0,,
1552,1,SBT2050,2,3,,7,3399.2,4.225926,2.0307,1773.528,0,,
1552,1,SBT2050,2,3,,7,3403.9,4.22678,2.0256,1776.176,0,,
1552,1,SBT2050,2,3,,7,3408.5,4.22757,2.0224,1778.762,0,,
1552,1,SBT2050,2,3,,7,3413.2,4.22862,2.0186,1781.4,0,,
1552,1,SBT2050,2,3,,7,3417.8,4.22971,2.015,1783.977,0,,
1552,1,SBT2050,2,3,,7,3422.5,4.2306,2.0086,1786.604,0,,
1552,1,SBT2050,2,3,,7,3427.1,4.23122,1.9981,1789.164,0,,
1552,1,SBT2050,2,3,,7,3431.773,4.23184,1.9912,1791.753,0,,
1552,1,SBT2050,2,3,,7,3436.4,4.232568,1.9877,1794.309,0,,
1552,1,SBT2050,2,3,,7,3441,4.23323,1.9804,1796.846,0,,
1552,1,SBT2050,2,3,,7,3445.7,4.23403,1.9685,1799.423,0,,
1552,1,SBT2050,2,3,,7,3450.3,4.234724,1.9637,1801.935,0,,
1552,1,SBT2050,2,3,,7,3455,4.235702,1.9593,1804.496,0,,
1552,1,SBT2050,2,3,,7,3459.6,4.236412,1.9563,1806.998,0,,
1552,1,SBT2050,2,3,,7,3464.3,4.237576,1.9525,1809.549,0,,
1552,1,SBT2050,2,3,,7,3468.9,4.23839,1.9455,1812.041,0,,
1552,1,SBT2050,2,3,,7,3473.6,4.239,1.9376,1814.575,0,,
1552,1,SBT2050,2,3,,7,3478.2,4.23971,1.9313,1817.047,0,,
1552,1,SBT2050,2,3,,7,3482.9,4.24054,1.9253,1819.564,0,,
1552,1,SBT2050,2,3,,7,3487.5,4.2411,1.9216,1822.021,0,,
1552,1,SBT2050,2,3,,7,3492.2,4.2422,1.9177,1824.527,0,,
1552,1,SBT2050,2,3,,7,3496.8,4.24268,1.9086,1826.974,0,,
1552,1,SBT2050,2,3,,7,3501.5,4.24356,1.8999,1829.459,0,,
1552,1,SBT2050,2,3,,7,3506.1,4.2442,1.894,1831.883,0,,
1552,1,SBT2050,2,3,,7,3510.8,4.244928,1.89,1834.353,0,,
1552,1,SBT2050,2,3,,7,3515.4,4.24596,1.887,1836.766,0,,
1552,1,SBT2050,2,3,,7,3520.1,4.24659,1.8831,1839.227,0,,
1552,1,SBT2050,2,3,,7,3524.7,4.24769,1.8768,1841.629,0,,
1552,1,SBT2050,2,3,,7,3529.4,4.2479,1.8679,1844.075,0,,
1552,1,SBT2050,2,3,,7,3534,4.24882,1.8603,1846.456,0,,
1552,1,SBT2050,2,3,,7,3538.7,4.24989,1.8556,1848.882,0,,
1552,1,SBT2050,2,3,,7,3543.3,4.25037,1.8523,1851.251,0,,
1552,1,SBT2050,2,3,,7,3548,4.25135,1.8483,1853.666,0,,
1552,1,SBT2050,2,3,,7,3552.6,4.25221,1.8455,1856.026,0,,
1552,1,SBT2050,2,3,,7,3557.3,4.25272,1.8317,1858.424,0,,
1552,1,SBT2050,2,3,,7,3561.9,4.253296,1.8259,1860.76,0,,
1552,1,SBT2050,2,3,,7,3566.6,4.2542,1.8223,1863.141,0,,
1552,1,SBT2050,2,3,,7,3571.2,4.25511,1.8182,1865.467,0,,
1552,1,SBT2050,2,3,,7,3575.805,4.25599,1.8141,1867.791,0,,
1552,1,SBT2050,2,3,,7,3580.5,4.25661,1.8112,1870.154,0,,
1552,1,SBT2050,2,3,,7,3585.1,4.25713,1.8003,1872.463,0,,
1552,1,SBT2050,2,3,,7,3589.8,4.25785,1.792,1874.807,0,,
1552,1,SBT2050,2,3,,7,3594.4,4.258476,1.7881,1877.095,0,,
1552,1,SBT2050,2,3,,7,3599.1,4.25972,1.784,1879.427,0,,
1552,1,SBT2050,2,3,,7,3603.7,4.26019,1.7805,1881.704,0,,
1552,1,SBT2050,2,3,,7,3608.4,4.26133,1.7773,1884.027,0,,
1552,1,SBT2050,2,3,,7,3613,4.26214,1.7707,1886.295,0,,
1552,1,SBT2050,2,3,,7,3617.7,4.26252,1.7594,1888.599,0,,
1552,1,SBT2050,2,3,,7,3622.3,4.26318,1.755,1890.844,0,,
1552,1,SBT2050,2,3,,7,3627,4.26407,1.7507,1893.132,0,,
1552,1,SBT2050,2,3,,7,3631.6,4.26523,1.7474,1895.366,0,,
1552,1,SBT2050,2,3,,7,3636.3,4.26584,1.7438,1897.645,0,,
1552,1,SBT2050,2,3,,7,3640.9,4.26618,1.7308,1899.863,0,,
1552,1,SBT2050,2,3,,7,3645.6,4.26692,1.7282,1902.12,0,,
1552,1,SBT2050,2,3,,7,3650.2,4.268346,1.7314,1904.331,0,,
1552,1,SBT2050,2,3,,7,3654.9,4.26899,1.722,1906.587,0,,
1552,1,SBT2050,2,3,,7,3659.5,4.26962,1.7153,1908.783,0,,
1552,1,SBT2050,2,3,,7,3664.2,4.26997,1.7054,1911.017,0,,
1552,1,SBT2050,2,3,,7,3668.8,4.27038,1.6983,1913.194,0,,
1552,1,SBT2050,2,3,,7,3673.5,4.27147,1.6927,1915.407,0,,
1552,1,SBT2050,2,3,,7,3678.1,4.272082,1.6879,1917.566,0,,
1552,1,SBT2050,2,3,,7,3682.8,4.27304,1.684,1919.767,0,,
1552,1,SBT2050,2,3,,7,3687.4,4.27375,1.6811,1921.917,0,,
1552,1,SBT2050,2,3,,7,3692.1,4.27456,1.6776,1924.11,0,,
1552,1,SBT2050,2,3,,7,3696.7,4.27478,1.6644,1926.245,0,,
1552,1,SBT2050,2,3,,7,3701.4,4.27558,1.6593,1928.414,0,,
1552,1,SBT2050,2,3,,7,3706,4.27657,1.6548,1930.531,0,,
1552,1,SBT2050,2,3,,7,3710.7,4.27732,1.6515,1932.69,0,,
1552,1,SBT2050,2,3,,7,3715.3,4.27817,1.6488,1934.798,0,,
1552,1,SBT2050,2,3,,7,3719.9,4.278318,1.6355,1936.895,0,,
1552,1,SBT2050,2,3,,7,3724.6,4.27896,1.6302,1939.027,0,,
1552,1,SBT2050,2,3,,7,3729.2,4.27978,1.6261,1941.106,0,,
1552,1,SBT2050,2,3,,7,3733.9,4.28073,1.6223,1943.226,0,,
1552,1,SBT2050,2,3,,7,3738.5,4.28132,1.6198,1945.298,0,,
1552,1,SBT2050,2,3,,7,3743.2,4.282284,1.6165,1947.41,0,,
1552,1,SBT2050,2,3,,7,3747.8,4.28329,1.6107,1949.473,0,,
1552,1,SBT2050,2,3,,7,3752.5,4.28417,1.6079,1951.572,0,,
1552,1,SBT2050,2,3,,7,3757.1,4.28496,1.604,1953.625,0,,
1552,1,SBT2050,2,3,,7,3761.8,4.28551,1.5932,1955.712,0,,
1552,1,SBT2050,2,3,,7,3766.4,4.28598,1.5886,1957.744,0,,
1552,1,SBT2050,2,3,,7,3771.1,4.28715,1.5845,1959.815,0,,
1552,1,SBT2050,2,3,,7,3775.7,4.28773,1.581,1961.837,0,,
1552,1,SBT2050,2,3,,7,3780.4,4.28872,1.5785,1963.9,0,,
1552,1,SBT2050,2,3,,7,3785,4.28889,1.5671,1965.908,0,,
1552,1,SBT2050,2,3,,7,3789.7,4.28996,1.5665,1967.951,0,,
1552,1,SBT2050,2,3,,7,3794.3,4.29023,1.5584,1969.948,0,,
1552,1,SBT2050,2,3,,7,3799,4.29123,1.5531,1971.979,0,,
1552,1,SBT2050,2,3,,7,3803.6,4.29185,1.5501,1973.961,0,,
1552,1,SBT2050,2,3,,7,3808.3,4.29249,1.5464,1975.981,0,,
1552,1,SBT2050,2,3,,7,3812.9,4.29385,1.5434,1977.955,0,,
1552,1,SBT2050,2,3,,7,3817.6,4.29462,1.5406,1979.968,0,,
1552,1,SBT2050,2,3,,7,3822.2,4.29531,1.532,1981.933,0,,
1552,1,SBT2050,2,3,,7,3826.9,4.2959,1.5299,1983.933,0,,
1552,1,SBT2050,2,3,,7,3831.5,4.29649,1.5208,1985.881,0,,
1552,1,SBT2050,2,3,,7,3836.2,4.29701,1.5153,1987.863,0,,
1552,1,SBT2050,2,3,,7,3840.8,4.29787,1.5111,1989.796,0,,
1552,1,SBT2050,2,3,,7,3845.5,4.29868,1.509,1991.768,0,,
1552,1,SBT2050,2,3,,7,3850.1,4.29963,1.5058,1993.693,0,,
1552,1,SBT2050,2,3,,7,3854.8,4.30079,1.5026,1995.657,0,,
1552,1,SBT2050,2,3,,7,3859.4,4.30121,1.5002,1997.575,0,,
1552,1,SBT2050,2,3,,7,3864,4.30234,1.4968,1999.49,0,,
1552,1,SBT2050,2,3,,7,3868.7,4.30268,1.4909,2001.442,0,,
1552,1,SBT2050,2,3,,7,3873.3,4.303626,1.4845,2003.344,0,,
1552,1,SBT2050,2,3,,7,3878,4.30427,1.476,2005.276,0,,
1552,1,SBT2050,2,3,,7,3882.6,4.30469,1.472,2007.159,0,,
1552,1,SBT2050,2,3,,7,3887.3,4.30531,1.4686,2009.077,0,,
1552,1,SBT2050,2,3,,7,3891.9,4.3062,1.4651,2010.951,0,,
1552,1,SBT2050,2,3,,7,3896.6,4.30705,1.4599,2012.862,0,,
1552,1,SBT2050,2,3,,7,3901.2,4.30728,1.4485,2014.718,0,,
1552,1,SBT2050,2,3,,7,3905.9,4.30798,1.4429,2016.606,0,,
1552,1,SBT2050,2,3,,7,3910.5,4.30869,1.4401,2018.448,0,,
1552,1,SBT2050,2,3,,7,3915.2,4.30953,1.437,2020.326,0,,
1552,1,SBT2050,2,3,,7,3919.8,4.31042,1.4342,2022.16,0,,
1552,1,SBT2050,2,3,,7,3924.5,4.31114,1.4316,2024.031,0,,
1552,1,SBT2050,2,3,,7,3929.1,4.31198,1.4289,2025.859,0,,
1552,1,SBT2050,2,3,,7,3933.8,4.312802,1.426,2027.722,0,,
1552,1,SBT2050,2,3,,7,3938.4,4.31365,1.4211,2029.542,0,,
1552,1,SBT2050,2,3,,7,3943.1,4.31397,1.4095,2031.389,0,,
1552,1,SBT2050,2,3,,7,3947.7,4.314388,1.4038,2033.186,0,,
1552,1,SBT2050,2,3,,7,3952.4,4.31523,1.4011,2035.018,0,,
1552,1,SBT2050,2,3,,7,3957,4.31626,1.3983,2036.806,0,,
1552,1,SBT2050,2,3,,7,3961.7,4.31703,1.3954,2038.63,0,,
1552,1,SBT2050,2,3,,7,3966.3,4.31752,1.393,2040.412,0,,
1552,1,SBT2050,2,3,,7,3971,4.31884,1.3901,2042.229,0,,
1552,1,SBT2050,2,3,,7,3975.6,4.31966,1.3879,2044.004,0,,
1552,1,SBT2050,2,3,,7,3980.3,4.32044,1.3823,2045.813,0,,
1552,1,SBT2050,2,3,,7,3984.9,4.32058,1.3706,2047.571,0,,
1552,1,SBT2050,2,3,,7,3989.6,4.32143,1.3664,2049.358,0,,
1552,1,SBT2050,2,3,,7,3994.2,4.322078,1.3628,2051.101,0,,
1552,1,SBT2050,2,3,,7,3998.899,4.32255,1.3598,2052.879,0,,
1552,1,SBT2050,2,3,,7,4003.5,4.323836,1.3577,2054.615,0,,
1552,1,SBT2050,2,3,,7,4008.1,4.32475,1.355,2056.348,0,,
1552,1,SBT2050,2,3,,7,4012.8,4.32545,1.3501,2058.114,0,,
1552,1,SBT2050,2,3,,7,4017.4,4.32623,1.3492,2059.838,0,,
1552,1,SBT2050,2,3,,7,4022.1,4.32658,1.338,2061.593,0,,
1552,1,SBT2050,2,3,,7,4026.7,4.32675,1.3314,2063.298,0,,
1552,1,SBT2050,2,3,,7,4031.4,4.32786,1.3284,2065.034,0,,
1552,1,SBT2050,2,3,,7,4036,4.328424,1.3253,2066.729,0,,
1552,1,SBT2050,2,3,,7,4040.7,4.32922,1.3226,2068.458,0,,
1552,1,SBT2050,2,3,,7,4045.3,4.330006,1.3205,2070.147,0,,
1552,1,SBT2050,2,3,,7,4050,4.33109,1.3177,2071.869,0,,
1552,1,SBT2050,2,3,,7,4054.6,4.331542,1.3161,2073.552,0,,
1552,1,SBT2050,2,3,,7,4059.3,4.33263,1.3079,2075.266,0,,
1552,1,SBT2050,2,3,,7,4063.9,4.33235,1.2982,2076.93,0,,
1552,1,SBT2050,2,3,,7,4068.6,4.33295,1.2944,2078.622,0,,
1552,1,SBT2050,2,3,,7,4073.2,4.333728,1.2913,2080.274,0,,
1552,1,SBT2050,2,3,,7,4077.9,4.33451,1.2884,2081.958,0,,
1552,1,SBT2050,2,3,,7,4082.5,4.3356,1.2863,2083.603,0,,
1552,1,SBT2050,2,3,,7,4087.2,4.33655,1.2843,2085.281,0,,
1552,1,SBT2050,2,3,,7,4091.8,4.33724,1.2816,2086.92,0,,
1552,1,SBT2050,2,3,,7,4096.5,4.33834,1.2796,2088.592,0,,
1552,1,SBT2050,2,3,,7,4101.1,4.33905,1.2769,2090.225,0,,
1552,1,SBT2050,2,3,,7,4105.8,4.33953,1.2681,2091.887,0,,
1552,1,SBT2050,2,3,,7,4110.4,4.34002,1.2602,2093.502,0,,
1552,1,SBT2050,2,3,,7,4115.1,4.34051,1.2555,2095.144,0,,
1552,1,SBT2050,2,3,,7,4119.7,4.341526,1.2528,2096.747,0,,
1552,1,SBT2050,2,3,,7,4124.4,4.34202,1.2507,2098.381,0,,
1552,1,SBT2050,2,3,,7,4129,4.34311,1.2481,2099.978,0,,
1552,1,SBT2050,2,3,,7,4133.7,4.34392,1.2457,2101.606,0,,
1552,1,SBT2050,2,3,,7,4138.3,4.344596,1.2438,2103.197,0,,
1552,1,SBT2050,2,3,,7,4142.931,4.34561,1.2413,2104.796,0,,
1552,1,SBT2050,2,3,,7,4147.6,4.34659,1.2397,2106.404,0,,
1552,1,SBT2050,2,3,,7,4152.2,4.3467,1.2318,2107.984,0,,
1552,1,SBT2050,2,3,,7,4156.9,4.34735,1.2236,2109.588,0,,
1552,1,SBT2050,2,3,,7,4161.5,4.34757,1.2191,2111.149,0,,
1552,1,SBT2050,2,3,,7,4166.2,4.34811,1.2159,2112.738,0,,
1552,1,SBT2050,2,3,,7,4170.8,4.34925,1.2133,2114.289,0,,
1552,1,SBT2050,2,3,,7,4175.5,4.350108,1.211,2115.872,0,,
1552,1,SBT2050,2,3,,7,4180.1,4.35087,1.2089,2117.418,0,,
1552,1,SBT2050,2,3,,7,4184.8,4.35196,1.2068,2118.995,0,,
1552,1,SBT2050,2,3,,7,4189.4,4.35258,1.2048,2120.535,0,,
1552,1,SBT2050,2,3,,7,4194.1,4.35366,1.2023,2122.106,0,,
1552,1,SBT2050,2,3,,7,4198.7,4.35385,1.1919,2123.635,0,,
1552,1,SBT2050,2,3,,7,4203.4,4.355128,1.1946,2125.193,0,,
1552,1,SBT2050,2,3,,7,4208,4.35638,1.1948,2126.72,0,,
1552,1,SBT2050,2,3,,7,4212.7,4.35701,1.1878,2128.278,0,,
1552,1,SBT2050,2,3,,7,4217.3,4.35709,1.1799,2129.791,0,,
1552,1,SBT2050,2,3,,7,4222,4.35755,1.175,2131.328,0,,
1552,1,SBT2050,2,3,,7,4226.6,4.35838,1.1726,2132.827,0,,
1552,1,SBT2050,2,3,,7,4231.3,4.35914,1.1701,2134.356,0,,
1552,1,SBT2050,2,3,,7,4235.9,4.35996,1.1679,2135.85,0,,
1552,1,SBT2050,2,3,,7,4240.6,4.36087,1.1659,2137.373,0,,
1552,1,SBT2050,2,3,,7,4245.2,4.362178,1.1635,2138.862,0,,
1552,1,SBT2050,2,3,,7,4249.9,4.36262,1.1614,2140.379,0,,
1552,1,SBT2050,2,3,,7,4254.5,4.36353,1.1596,2141.862,0,,
1552,1,SBT2050,2,3,,7,4259.2,4.36466,1.157,2143.375,0,,
1552,1,SBT2050,2,3,,7,4263.8,4.365136,1.1526,2144.851,0,,
1552,1,SBT2050,2,3,,7,4268.5,4.36556,1.145,2146.351,0,,
1552,1,SBT2050,2,3,,7,4273.1,4.36591,1.138,2147.809,0,,
1552,1,SBT2050,2,3,,7,4277.8,4.36656,1.137,2149.292,0,,
1552,1,SBT2050,2,3,,7,4282.4,4.36764,1.1335,2150.743,0,,
1552,1,SBT2050,2,3,,7,4287,4.36789,1.1303,2152.189,0,,
1552,1,SBT2050,2,3,,7,4291.7,4.369062,1.1279,2153.663,0,,
1552,1,SBT2050,2,3,,7,4296.3,4.37011,1.126,2155.103,0,,
1552,1,SBT2050,2,3,,7,4301,4.37073,1.1239,2156.572,0,,
1552,1,SBT2050,2,3,,7,4305.6,4.37166,1.1221,2158.007,0,,
1552,1,SBT2050,2,3,,7,4310.3,4.372462,1.1198,2159.47,0,,
1552,1,SBT2050,2,3,,7,4314.9,4.37249,1.1089,2160.895,0,,
1552,1,SBT2050,2,3,,7,4319.6,4.37298,1.1036,2162.339,0,,
1552,1,SBT2050,2,3,,7,4324.2,4.37361,1.0998,2163.746,0,,
1552,1,SBT2050,2,3,,7,4328.9,4.37416,1.0973,2165.18,0,,
1552,1,SBT2050,2,3,,7,4333.5,4.37498,1.0956,2166.581,0,,
1552,1,SBT2050,2,3,,7,4338.2,4.37566,1.0937,2168.01,0,,
1552,1,SBT2050,2,3,,7,4342.8,4.37666,1.0916,2169.406,0,,
1552,1,SBT2050,2,3,,7,4347.5,4.377352,1.0899,2170.83,0,,
1552,1,SBT2050,2,3,,7,4352.1,4.37808,1.0877,2172.221,0,,
1552,1,SBT2050,2,3,,7,4356.8,4.37911,1.0858,2173.639,0,,
1552,1,SBT2050,2,3,,7,4361.4,4.37998,1.0839,2175.025,0,,
1552,1,SBT2050,2,3,,7,4366.1,4.38082,1.0817,2176.439,0,,
1552,1,SBT2050,2,3,,7,4370.7,4.38213,1.0797,2177.82,0,,
1552,1,SBT2050,2,3,,7,4375.4,4.3825,1.0776,2179.228,0,,
1552,1,SBT2050,2,3,,7,4380,4.38254,1.066,2180.596,0,27.5,
1552,1,SBT2050,2,3,,7,4384.7,4.38283,1.0602,2181.984,0,,
1552,1,SBT2050,2,3,,7,4389.3,4.38381,1.0607,2183.338,0,,
1552,1,SBT2050,2,3,,7,4394,4.38559,1.0637,2184.727,0,,
1552,1,SBT2050,2,3,,7,4398.6,4.38579,1.057,2186.082,0,,
1552,1,SBT2050,2,3,,7,4403.3,4.38612,1.0529,2187.458,0,,
1552,1,SBT2050,2,3,,7,4407.9,4.38716,1.0497,2188.801,0,,
1552,1,SBT2050,2,3,,7,4412.6,4.38796,1.0482,2190.171,0,,
1552,1,SBT2050,2,3,,7,4417.2,4.38861,1.046,2191.509,0,,
1552,1,SBT2050,2,3,,7,4421.9,4.38976,1.044,2192.873,0,,
1552,1,SBT2050,2,3,,7,4426.5,4.39032,1.0423,2194.206,0,,
1552,1,SBT2050,2,3,,7,4431.1,4.3916,1.04,2195.536,0,,
1552,1,SBT2050,2,3,,7,4435.8,4.3922,1.038,2196.893,0,,
1552,1,SBT2050,2,3,,7,4440.4,4.39306,1.0362,2198.218,0,,
1552,1,SBT2050,2,3,,7,4445.1,4.393844,1.0339,2199.57,0,,
1552,1,SBT2050,2,3,,7,4449.7,4.39476,1.0317,2200.89,0,,
1552,1,SBT2050,2,3,,7,4454.4,4.3953,1.0274,2202.235,0,,
1552,1,SBT2050,2,3,,7,4459,4.39542,1.0175,2203.54,0,,
1552,1,SBT2050,2,3,,7,4463.7,4.396056,1.0135,2204.866,0,,
1552,1,SBT2050,2,3,,7,4468.3,4.39628,1.0112,2206.16,0,,
1552,1,SBT2050,2,3,,7,4473,4.397158,1.0089,2207.478,0,,
1552,1,SBT2050,2,3,,7,4477.6,4.3982,1.0072,2208.766,0,,
1552,1,SBT2050,2,3,,7,4482.3,4.39884,1.0054,2210.08,0,,
1552,1,SBT2050,2,3,,7,4486.9,4.39962,1.0033,2211.363,0,,
1552,1,SBT2050,2,3,,7,4487.225,4.400012,1.0033,2211.454,0,,