File: ORRG/Test1573.csv
Request Year:,2018,,,,,,,,,,,,
Test:,1573,,,,,,,,,,,,
Test Description:,,,,,,,,,,,,,
TestRegime Name:,Dchg_1C,,,,,,,,,,,,
TestRegime Suffix:,SHP_LC,,,,,,,,,,,,
TestRegime CellSize:,18650,,,,,,,,,,,,
TestRegime Version:,1,,,,,,,,,,,,
Number Of Cells:,1,,,,,,,,,,,,
LotID:,,,,,,,,,,,,,
Lot Description:,,,,,,,,,,,,,
Date Made:,1/21/2003 12:00 AM,,,,,,,,,,,,
Origin:,Other,,,,,,,,,,,,
Requestor:,Admin,,,,,,,,,,,,
Product ID:,Default product,,,,,,,,,,,,
Storage Temp:,R.T./AMB,,,,,,,,,,,,
Storage Delay:,0 days,,,,,,,,,,,,
Test Temp:,R.T./AMB,,,,,,,,,,,,
Start Time:,4/27/2018 10:52 AM,,,,,,,,,,,,
End Time:,4/27/2018 11:39 AM,,,,,,,,,,,,
Operator Instructions:,,,,,,,,,,,,,
Test,Cell,Rack,Shelf,Position,Cell ID,Step,Total Time (Seconds),Voltage (V),Current (A),Charge Capacity (mAh),Discharge Capacity (mAh),TC1 (Â°C),
1573,1,SBT2050,2,3,,0,1,4.0186,0,0,0,28,
1573,1,SBT2050,2,3,,0,5,4.01884,0,0,0,27.9,
1573,1,SBT2050,2,3,,0,9,4.01847,0,0,0,27.9,
1573,1,SBT2050,2,3,,0,13,4.01875,0,0,0,27.9,
1573,1,SBT2050,2,3,,0,17,4.018604,0,0,0,27.9,
1573,1,SBT2050,2,3,,0,21,4.01858,0,0,0,27.9,
1573,1,SBT2050,2,3,,0,25,4.01827,0,0,0,27.9,
1573,1,SBT2050,2,3,,0,29,4.018346,0,0,0,27.9,
1573,1,SBT2050,2,3,,0,33,4.01832,0,0,0,27.9,
1573,1,SBT2050,2,3,,0,37,4.01813,0,0,0,27.9,
1573,1,SBT2050,2,3,,0,41,4.01817,0,0,0,27.9,
1573,1,SBT2050,2,3,,0,45,4.018188,0,0,0,27.9,
1573,1,SBT2050,2,3,,0,49,4.01802,0,0,0,27.9,
1573,1,SBT2050,2,3,,0,53,4.018182,0,0,0,27.9,
1573,1,SBT2050,2,3,,0,57,4.01809,0,0,0,27.8,
1573,1,SBT2050,2,3,,1,61,3.85158,-2.6999,0,0.749,27.9,
1573,1,SBT2050,2,3,,1,65,3.82919,-2.6998,0,3.749,27.9,
1573,1,SBT2050,2,3,,1,69,3.81581,-2.6999,0,6.749,27.9,
1573,1,SBT2050,2,3,,1,73,3.80615,-2.7002,0,9.749,27.9,
1573,1,SBT2050,2,3,,1,77,3.79826,-2.6998,0,12.749,27.9,
1573,1,SBT2050,2,3,,1,81,3.79173,-2.7,0,15.748,28,
1573,1,SBT2050,2,3,,1,85,3.78596,-2.6998,0,18.748,28,
1573,1,SBT2050,2,3,,1,89,3.78111,-2.6997,0,21.748,28,
1573,1,SBT2050,2,3,,1,93,3.77649,-2.6997,0,24.748,28.1,
1573,1,SBT2050,2,3,,1,97,3.77308,-2.6997,0,27.748,28.1,
1573,1,SBT2050,2,3,,1,101,3.76933,-2.7003,0,30.748,28.1,
1573,1,SBT2050,2,3,,1,105,3.76614,-2.7001,0,33.748,28.2,
1573,1,SBT2050,2,3,,1,109,3.76295,-2.6999,0,36.748,28.2,
1573,1,SBT2050,2,3,,1,113,3.76004,-2.6997,0,39.748,28.2,
1573,1,SBT2050,2,3,,1,117,3.75732,-2.6997,0,42.748,28.2,
1573,1,SBT2050,2,3,,1,121,3.75482,-2.6996,0,45.748,28.3,
1573,1,SBT2050,2,3,,1,125,3.75247,-2.7001,0,48.748,28.3,
1573,1,SBT2050,2,3,,1,129,3.75012,-2.6994,0,51.748,28.3,
1573,1,SBT2050,2,3,,1,133,3.74785,-2.7001,0,54.748,28.3,
1573,1,SBT2050,2,3,,1,137,3.74548,-2.7,0,57.748,28.3,
1573,1,SBT2050,2,3,,1,141,3.74371,-2.7,0,60.747,28.4,
1573,1,SBT2050,2,3,,1,145,3.74188,-2.7001,0,63.747,28.4,
1573,1,SBT2050,2,3,,1,149,3.7399,-2.6998,0,66.747,28.4,
1573,1,SBT2050,2,3,,1,153,3.73821,-2.6996,0,69.747,28.4,
1573,1,SBT2050,2,3,,1,157,3.73634,-2.6998,0,72.747,28.4,
1573,1,SBT2050,2,3,,1,161,3.73427,-2.6999,0,75.747,28.5,
1573,1,SBT2050,2,3,,1,165,3.73287,-2.6993,0,78.747,28.5,
1573,1,SBT2050,2,3,,1,169,3.73112,-2.7003,0,81.747,28.5,
1573,1,SBT2050,2,3,,1,173,3.72966,-2.7005,0,84.747,28.5,
1573,1,SBT2050,2,3,,1,177,3.727818,-2.6996,0,87.747,28.5,
1573,1,SBT2050,2,3,,1,181,3.72615,-2.6999,0,90.747,28.5,
1573,1,SBT2050,2,3,,1,185,3.724486,-2.6998,0,93.747,28.5,
1573,1,SBT2050,2,3,,1,189,3.72332,-2.6999,0,96.747,28.5,
1573,1,SBT2050,2,3,,1,193,3.72152,-2.6996,0,99.747,28.6,
1573,1,SBT2050,2,3,,1,197,3.720422,-2.6999,0,102.747,28.6,
1573,1,SBT2050,2,3,,1,201,3.718742,-2.7001,0,105.747,28.6,
1573,1,SBT2050,2,3,,1,205,3.717618,-2.6999,0,108.747,28.6,
1573,1,SBT2050,2,3,,1,209,3.71591,-2.7,0,111.747,28.6,
1573,1,SBT2050,2,3,,1,213,3.71455,-2.6998,0,114.747,28.6,
1573,1,SBT2050,2,3,,1,217,3.713348,-2.7,0,117.746,28.6,
1573,1,SBT2050,2,3,,1,221,3.711992,-2.7,0,120.746,28.7,
1573,1,SBT2050,2,3,,1,225,3.71077,-2.7,0,123.746,28.7,
1573,1,SBT2050,2,3,,1,229,3.70957,-2.7,0,126.746,28.7,
1573,1,SBT2050,2,3,,1,233,3.70812,-2.6998,0,129.746,28.7,
1573,1,SBT2050,2,3,,1,237,3.70685,-2.7001,0,132.746,28.7,
1573,1,SBT2050,2,3,,1,241,3.70566,-2.7006,0,135.746,28.7,
1573,1,SBT2050,2,3,,1,245,3.70447,-2.7,0,138.746,28.7,
1573,1,SBT2050,2,3,,1,249,3.70311,-2.6998,0,141.746,28.7,
1573,1,SBT2050,2,3,,1,253,3.70211,-2.7,0,144.746,28.7,
1573,1,SBT2050,2,3,,1,257,3.700548,-2.6994,0,147.746,28.7,
1573,1,SBT2050,2,3,,1,261,3.69938,-2.7003,0,150.746,28.7,
1573,1,SBT2050,2,3,,1,265,3.69841,-2.6999,0,153.746,28.7,
1573,1,SBT2050,2,3,,1,269,3.69723,-2.6996,0,156.746,28.7,
1573,1,SBT2050,2,3,,1,273,3.696,-2.7,0,159.746,28.8,
1573,1,SBT2050,2,3,,1,277,3.69478,-2.7002,0,162.745,28.8,
1573,1,SBT2050,2,3,,1,281,3.69344,-2.7002,0,165.745,28.8,
1573,1,SBT2050,2,3,,1,285,3.69235,-2.7002,0,168.745,28.7,
1573,1,SBT2050,2,3,,1,289,3.69103,-2.7002,0,171.745,28.8,
1573,1,SBT2050,2,3,,1,293,3.69011,-2.7,0,174.745,28.8,
1573,1,SBT2050,2,3,,1,297,3.68886,-2.7,0,177.745,28.8,
1573,1,SBT2050,2,3,,1,301,3.687496,-2.6997,0,180.745,28.8,
1573,1,SBT2050,2,3,,1,305,3.68653,-2.6997,0,183.745,28.8,
1573,1,SBT2050,2,3,,1,309,3.6853,-2.6999,0,186.745,28.8,
1573,1,SBT2050,2,3,,1,313,3.684226,-2.7,0,189.745,28.8,
1573,1,SBT2050,2,3,,1,317,3.68293,-2.6999,0,192.745,28.8,
1573,1,SBT2050,2,3,,1,321,3.681856,-2.6997,0,195.745,28.8,
1573,1,SBT2050,2,3,,1,325,3.68068,-2.7002,0,198.745,28.8,
1573,1,SBT2050,2,3,,1,329,3.67975,-2.6996,0,201.745,28.8,
1573,1,SBT2050,2,3,,1,333,3.67854,-2.6999,0,204.744,28.8,
1573,1,SBT2050,2,3,,1,337,3.677442,-2.6994,0,207.744,28.8,
1573,1,SBT2050,2,3,,1,341,3.67614,-2.6996,0,210.744,28.8,
1573,1,SBT2050,2,3,,1,345,3.67502,-2.6999,0,213.744,28.8,
1573,1,SBT2050,2,3,,1,349,3.67398,-2.6994,0,216.744,28.9,
1573,1,SBT2050,2,3,,1,353,3.67292,-2.6996,0,219.744,28.9,
1573,1,SBT2050,2,3,,1,357,3.67192,-2.7,0,222.744,28.9,
1573,1,SBT2050,2,3,,1,361,3.67094,-2.6996,0,225.744,28.9,
1573,1,SBT2050,2,3,,1,365,3.669888,-2.6999,0,228.744,28.9,
1573,1,SBT2050,2,3,,1,369,3.66873,-2.7,0,231.744,28.9,
1573,1,SBT2050,2,3,,1,373,3.6677,-2.7,0,234.744,28.9,
1573,1,SBT2050,2,3,,1,377,3.66672,-2.6999,0,237.744,28.9,
1573,1,SBT2050,2,3,,1,381,3.66564,-2.7001,0,240.744,28.9,
1573,1,SBT2050,2,3,,1,385,3.66452,-2.6999,0,243.744,28.9,
1573,1,SBT2050,2,3,,1,389,3.663462,-2.6999,0,246.744,28.9,
1573,1,SBT2050,2,3,,1,393,3.66238,-2.6998,0,249.743,28.9,
1573,1,SBT2050,2,3,,1,397,3.66137,-2.7,0,252.743,28.9,
1573,1,SBT2050,2,3,,1,401,3.66046,-2.7002,0,255.743,28.9,
1573,1,SBT2050,2,3,,1,405,3.65928,-2.7001,0,258.743,28.9,
1573,1,SBT2050,2,3,,1,409,3.65834,-2.6999,0,261.743,28.9,
1573,1,SBT2050,2,3,,1,413,3.65722,-2.7,0,264.743,28.9,
1573,1,SBT2050,2,3,,1,417,3.65604,-2.7002,0,267.743,28.9,
1573,1,SBT2050,2,3,,1,421,3.65484,-2.7001,0,270.743,28.9,
1573,1,SBT2050,2,3,,1,425,3.65382,-2.7,0,273.743,28.9,
1573,1,SBT2050,2,3,,1,429,3.65279,-2.6992,0,276.743,28.9,
1573,1,SBT2050,2,3,,1,433,3.651576,-2.6999,0,279.743,28.9,
1573,1,SBT2050,2,3,,1,437,3.65042,-2.6997,0,282.743,29,
1573,1,SBT2050,2,3,,1,441,3.64951,-2.7002,0,285.743,28.9,
1573,1,SBT2050,2,3,,1,445,3.64852,-2.7,0,288.743,29,
1573,1,SBT2050,2,3,,1,449,3.64734,-2.6997,0,291.743,29,
1573,1,SBT2050,2,3,,1,453,3.64637,-2.6995,0,294.743,29,
1573,1,SBT2050,2,3,,1,457,3.6453,-2.7,0,297.743,29,
1573,1,SBT2050,2,3,,1,461,3.64433,-2.6997,0,300.743,29,
1573,1,SBT2050,2,3,,1,465,3.64332,-2.6997,0,303.743,29,
1573,1,SBT2050,2,3,,1,469,3.64233,-2.7003,0,306.742,29,
1573,1,SBT2050,2,3,,1,473,3.6411,-2.7,0,309.742,29,
1573,1,SBT2050,2,3,,1,477,3.64017,-2.7001,0,312.742,29,
1573,1,SBT2050,2,3,,1,481,3.6392,-2.7,0,315.742,29,
1573,1,SBT2050,2,3,,1,485,3.63832,-2.7002,0,318.742,29,
1573,1,SBT2050,2,3,,1,489,3.63699,-2.7001,0,321.742,29,
1573,1,SBT2050,2,3,,1,493,3.635626,-2.7,0,324.742,29,
1573,1,SBT2050,2,3,,1,497,3.63498,-2.6996,0,327.742,29,
1573,1,SBT2050,2,3,,1,501,3.63398,-2.7,0,330.742,29,
1573,1,SBT2050,2,3,,1,505,3.63273,-2.6999,0,333.742,29,
1573,1,SBT2050,2,3,,1,509,3.6316,-2.7002,0,336.742,29,
1573,1,SBT2050,2,3,,1,513,3.63061,-2.6996,0,339.742,29,
1573,1,SBT2050,2,3,,1,517,3.62945,-2.7004,0,342.742,29,
1573,1,SBT2050,2,3,,1,521,3.62862,-2.7002,0,345.742,29,
1573,1,SBT2050,2,3,,1,525,3.62757,-2.7,0,348.742,29,
1573,1,SBT2050,2,3,,1,529,3.62662,-2.7001,0,351.742,29,
1573,1,SBT2050,2,3,,1,533,3.62555,-2.7,0,354.742,29,
1573,1,SBT2050,2,3,,1,537,3.62429,-2.7,0,357.742,29,
1573,1,SBT2050,2,3,,1,541,3.62316,-2.6999,0,360.741,29,
1573,1,SBT2050,2,3,,1,545,3.622162,-2.7,0,363.741,29,
1573,1,SBT2050,2,3,,1,549,3.62116,-2.7,0,366.741,29,
1573,1,SBT2050,2,3,,1,553,3.619904,-2.6998,0,369.741,29,
1573,1,SBT2050,2,3,,1,557,3.618966,-2.7,0,372.741,29,
1573,1,SBT2050,2,3,,1,561,3.61804,-2.6998,0,375.741,29,
1573,1,SBT2050,2,3,,1,565,3.61692,-2.7002,0,378.741,29,
1573,1,SBT2050,2,3,,1,569,3.61595,-2.7001,0,381.741,29,
1573,1,SBT2050,2,3,,1,573,3.61485,-2.6996,0,384.741,29,
1573,1,SBT2050,2,3,,1,577,3.61375,-2.7001,0,387.741,29,
1573,1,SBT2050,2,3,,1,581,3.61242,-2.6998,0,390.741,29,
1573,1,SBT2050,2,3,,1,585,3.61164,-2.6996,0,393.741,29,
1573,1,SBT2050,2,3,,1,589,3.61057,-2.7004,0,396.741,29,
1573,1,SBT2050,2,3,,1,593,3.60968,-2.6999,0,399.741,29,
1573,1,SBT2050,2,3,,1,597,3.60842,-2.7002,0,402.741,29,
1573,1,SBT2050,2,3,,1,601,3.607446,-2.7004,0,405.741,29,
1573,1,SBT2050,2,3,,1,605,3.60627,-2.7001,0,408.741,29,
1573,1,SBT2050,2,3,,1,609,3.60546,-2.7005,0,411.741,29,
1573,1,SBT2050,2,3,,1,613,3.60456,-2.6999,0,414.741,29,
1573,1,SBT2050,2,3,,1,617,3.60317,-2.6999,0,417.74,29,
1573,1,SBT2050,2,3,,1,621,3.60222,-2.6998,0,420.74,29,
1573,1,SBT2050,2,3,,1,625,3.60138,-2.7004,0,423.74,29,
1573,1,SBT2050,2,3,,1,629,3.60037,-2.7001,0,426.74,29,
1573,1,SBT2050,2,3,,1,633,3.59919,-2.6999,0,429.74,29,
1573,1,SBT2050,2,3,,1,637,3.59805,-2.6996,0,432.74,29,
1573,1,SBT2050,2,3,,1,641,3.597178,-2.6999,0,435.74,29.1,
1573,1,SBT2050,2,3,,1,645,3.59615,-2.7,0,438.74,29.1,
1573,1,SBT2050,2,3,,1,649,3.59499,-2.7001,0,441.74,29.1,
1573,1,SBT2050,2,3,,1,653,3.59395,-2.6997,0,444.74,29.1,
1573,1,SBT2050,2,3,,1,657,3.59287,-2.6997,0,447.74,29.1,
1573,1,SBT2050,2,3,,1,661,3.5918,-2.7,0,450.74,29,
1573,1,SBT2050,2,3,,1,665,3.59099,-2.6999,0,453.74,29.1,
1573,1,SBT2050,2,3,,1,669,3.58971,-2.7005,0,456.74,29.1,
1573,1,SBT2050,2,3,,1,673,3.58862,-2.7,0,459.74,29,
1573,1,SBT2050,2,3,,1,677,3.58765,-2.6999,0,462.74,29.1,
1573,1,SBT2050,2,3,,1,681,3.58668,-2.6998,0,465.74,29.1,
1573,1,SBT2050,2,3,,1,685,3.5855,-2.7001,0,468.74,29.1,
1573,1,SBT2050,2,3,,1,689,3.58429,-2.6998,0,471.739,29.1,
1573,1,SBT2050,2,3,,1,693,3.58342,-2.7002,0,474.739,29.1,
1573,1,SBT2050,2,3,,1,697,3.5823,-2.6996,0,477.739,29.1,
1573,1,SBT2050,2,3,,1,701,3.58131,-2.6999,0,480.739,29,
1573,1,SBT2050,2,3,,1,705,3.5804,-2.6998,0,483.739,29.1,
1573,1,SBT2050,2,3,,1,709,3.5793,-2.7001,0,486.739,29.1,
1573,1,SBT2050,2,3,,1,713,3.57814,-2.6996,0,489.739,29.1,
1573,1,SBT2050,2,3,,1,717,3.57714,-2.6997,0,492.739,29.1,
1573,1,SBT2050,2,3,,1,721,3.57618,-2.6998,0,495.739,29.1,
1573,1,SBT2050,2,3,,1,725,3.57499,-2.6998,0,498.739,29.1,
1573,1,SBT2050,2,3,,1,729,3.573966,-2.7,0,501.739,29.1,
1573,1,SBT2050,2,3,,1,733,3.57294,-2.7002,0,504.739,29.1,
1573,1,SBT2050,2,3,,1,737,3.57174,-2.7,0,507.739,29.1,
1573,1,SBT2050,2,3,,1,741,3.57082,-2.7001,0,510.739,29.1,
1573,1,SBT2050,2,3,,1,745,3.569444,-2.7001,0,513.739,29.1,
1573,1,SBT2050,2,3,,1,749,3.56836,-2.6995,0,516.739,29.1,
1573,1,SBT2050,2,3,,1,753,3.56755,-2.6998,0,519.739,29.1,
1573,1,SBT2050,2,3,,1,757,3.566292,-2.6995,0,522.738,29.1,
1573,1,SBT2050,2,3,,1,761,3.565384,-2.7001,0,525.738,29.1,
1573,1,SBT2050,2,3,,1,765,3.56447,-2.7,0,528.738,29.1,
1573,1,SBT2050,2,3,,1,769,3.56333,-2.6995,0,531.738,29.1,
1573,1,SBT2050,2,3,,1,773,3.56203,-2.7,0,534.738,29.1,
1573,1,SBT2050,2,3,,1,777,3.56107,-2.6998,0,537.738,29.1,
1573,1,SBT2050,2,3,,1,781,3.55992,-2.6999,0,540.738,29.1,
1573,1,SBT2050,2,3,,1,785,3.55875,-2.6999,0,543.738,29.1,
1573,1,SBT2050,2,3,,1,789,3.55782,-2.6999,0,546.738,29.1,
1573,1,SBT2050,2,3,,1,793,3.55677,-2.6999,0,549.738,29.1,
1573,1,SBT2050,2,3,,1,797,3.55578,-2.7,0,552.738,29.1,
1573,1,SBT2050,2,3,,1,801,3.55451,-2.6999,0,555.738,29.1,
1573,1,SBT2050,2,3,,1,805,3.55372,-2.6999,0,558.738,29.1,
1573,1,SBT2050,2,3,,1,809,3.55222,-2.7,0,561.738,29.1,
1573,1,SBT2050,2,3,,1,813,3.55131,-2.6999,0,564.738,29.1,
1573,1,SBT2050,2,3,,1,817,3.55013,-2.6999,0,567.738,29.1,
1573,1,SBT2050,2,3,,1,821,3.54897,-2.6997,0,570.737,29.1,
1573,1,SBT2050,2,3,,1,825,3.547776,-2.7002,0,573.737,29.1,
1573,1,SBT2050,2,3,,1,829,3.54703,-2.6999,0,576.737,29.1,
1573,1,SBT2050,2,3,,1,833,3.54587,-2.6999,0,579.737,29.1,
1573,1,SBT2050,2,3,,1,837,3.54481,-2.7002,0,582.737,29.1,
1573,1,SBT2050,2,3,,1,841,3.543698,-2.7002,0,585.737,29.1,
1573,1,SBT2050,2,3,,1,845,3.54249,-2.6998,0,588.737,29.1,
1573,1,SBT2050,2,3,,1,849,3.5415,-2.7,0,591.737,29.1,
1573,1,SBT2050,2,3,,1,853,3.54023,-2.6997,0,594.737,29.1,
1573,1,SBT2050,2,3,,1,857,3.53919,-2.7,0,597.737,29.1,
1573,1,SBT2050,2,3,,1,861,3.53816,-2.7,0,600.737,29.1,
1573,1,SBT2050,2,3,,1,865,3.53702,-2.6995,0,603.737,29.1,
1573,1,SBT2050,2,3,,1,869,3.536098,-2.7,0,606.737,29.1,
1573,1,SBT2050,2,3,,1,873,3.5349,-2.7,0,609.737,29.1,
1573,1,SBT2050,2,3,,1,877,3.533522,-2.7001,0,612.737,29.1,
1573,1,SBT2050,2,3,,1,881,3.53263,-2.6998,0,615.737,29.2,
1573,1,SBT2050,2,3,,1,885,3.53135,-2.7001,0,618.737,29.1,
1573,1,SBT2050,2,3,,1,889,3.53026,-2.6998,0,621.736,29.1,
1573,1,SBT2050,2,3,,1,893,3.52913,-2.6998,0,624.736,29.1,
1573,1,SBT2050,2,3,,1,897,3.52806,-2.7,0,627.736,29.1,
1573,1,SBT2050,2,3,,1,901,3.52717,-2.7001,0,630.736,29.1,
1573,1,SBT2050,2,3,,1,905,3.52596,-2.6998,0,633.736,29.2,
1573,1,SBT2050,2,3,,1,909,3.5248,-2.7001,0,636.736,29.2,
1573,1,SBT2050,2,3,,1,913,3.52379,-2.7,0,639.736,29.1,
1573,1,SBT2050,2,3,,1,917,3.52263,-2.6998,0,642.736,29.1,
1573,1,SBT2050,2,3,,1,921,3.52135,-2.6998,0,645.736,29.1,
1573,1,SBT2050,2,3,,1,925,3.52045,-2.7003,0,648.736,29.2,
1573,1,SBT2050,2,3,,1,929,3.51922,-2.6998,0,651.736,29.2,
1573,1,SBT2050,2,3,,1,933,3.51817,-2.7001,0,654.736,29.1,
1573,1,SBT2050,2,3,,1,937,3.516988,-2.7001,0,657.736,29.1,
1573,1,SBT2050,2,3,,1,941,3.516204,-2.7001,0,660.736,29.1,
1573,1,SBT2050,2,3,,1,945,3.51514,-2.7,0,663.735,29.1,
1573,1,SBT2050,2,3,,1,949,3.51405,-2.6997,0,666.735,29.2,
1573,1,SBT2050,2,3,,1,953,3.51284,-2.6997,0,669.735,29.2,
1573,1,SBT2050,2,3,,1,957,3.5117,-2.7001,0,672.735,29.2,
1573,1,SBT2050,2,3,,1,961,3.51058,-2.6998,0,675.735,29.2,
1573,1,SBT2050,2,3,,1,965,3.50939,-2.7003,0,678.735,29.2,
1573,1,SBT2050,2,3,,1,969,3.50842,-2.7003,0,681.735,29.2,
1573,1,SBT2050,2,3,,1,973,3.50744,-2.6996,0,684.735,29.2,
1573,1,SBT2050,2,3,,1,977,3.50628,-2.6998,0,687.735,29.2,
1573,1,SBT2050,2,3,,1,981,3.50521,-2.7001,0,690.735,29.2,
1573,1,SBT2050,2,3,,1,985,3.50421,-2.7,0,693.735,29.2,
1573,1,SBT2050,2,3,,1,989,3.50293,-2.6998,0,696.735,29.2,
1573,1,SBT2050,2,3,,1,993,3.50209,-2.6998,0,699.735,29.2,
1573,1,SBT2050,2,3,,1,997,3.50068,-2.6998,0,702.735,29.2,
1573,1,SBT2050,2,3,,1,1001,3.499716,-2.6995,0,705.734,29.2,
1573,1,SBT2050,2,3,,1,1005,3.49865,-2.6998,0,708.734,29.2,
1573,1,SBT2050,2,3,,1,1009,3.49733,-2.7001,0,711.734,29.2,
1573,1,SBT2050,2,3,,1,1013,3.49647,-2.6999,0,714.734,29.2,
1573,1,SBT2050,2,3,,1,1017,3.4954,-2.6999,0,717.734,29.2,
1573,1,SBT2050,2,3,,1,1021,3.49395,-2.6998,0,720.734,29.2,
1573,1,SBT2050,2,3,,1,1025,3.49302,-2.7001,0,723.734,29.2,
1573,1,SBT2050,2,3,,1,1029,3.49188,-2.7004,0,726.734,29.2,
1573,1,SBT2050,2,3,,1,1033,3.49088,-2.7003,0,729.734,29.2,
1573,1,SBT2050,2,3,,1,1037,3.48944,-2.6997,0,732.734,29.2,
1573,1,SBT2050,2,3,,1,1041,3.48857,-2.7001,0,735.734,29.2,
1573,1,SBT2050,2,3,,1,1045,3.48764,-2.7,0,738.734,29.2,
1573,1,SBT2050,2,3,,1,1049,3.486486,-2.6998,0,741.734,29.1,
1573,1,SBT2050,2,3,,1,1053,3.48527,-2.7004,0,744.734,29.2,
1573,1,SBT2050,2,3,,1,1057,3.48425,-2.6998,0,747.734,29.2,
1573,1,SBT2050,2,3,,1,1061,3.48295,-2.6999,0,750.734,29.2,
1573,1,SBT2050,2,3,,1,1065,3.481956,-2.7001,0,753.734,29.2,
1573,1,SBT2050,2,3,,1,1069,3.48085,-2.7003,0,756.734,29.2,
1573,1,SBT2050,2,3,,1,1073,3.47958,-2.7,0,759.733,29.1,
1573,1,SBT2050,2,3,,1,1077,3.478512,-2.7001,0,762.733,29.1,
1573,1,SBT2050,2,3,,1,1081,3.47745,-2.6999,0,765.733,29.1,
1573,1,SBT2050,2,3,,1,1085,3.476262,-2.6998,0,768.733,29.1,
1573,1,SBT2050,2,3,,1,1089,3.47539,-2.6999,0,771.733,29.2,
1573,1,SBT2050,2,3,,1,1093,3.47433,-2.6999,0,774.733,29.2,
1573,1,SBT2050,2,3,,1,1097,3.4734,-2.6999,0,777.733,29.2,
1573,1,SBT2050,2,3,,1,1101,3.47228,-2.6993,0,780.733,29.2,
1573,1,SBT2050,2,3,,1,1105,3.47108,-2.6998,0,783.733,29.2,
1573,1,SBT2050,2,3,,1,1109,3.46995,-2.7001,0,786.733,29.2,
1573,1,SBT2050,2,3,,1,1113,3.46891,-2.6996,0,789.733,29.2,
1573,1,SBT2050,2,3,,1,1117,3.46761,-2.6996,0,792.733,29.1,
1573,1,SBT2050,2,3,,1,1121,3.466576,-2.6998,0,795.733,29.1,
1573,1,SBT2050,2,3,,1,1125,3.465662,-2.6995,0,798.733,29.1,
1573,1,SBT2050,2,3,,1,1129,3.46438,-2.6996,0,801.733,29.2,
1573,1,SBT2050,2,3,,1,1133,3.46348,-2.6997,0,804.733,29.2,
1573,1,SBT2050,2,3,,1,1137,3.46225,-2.6997,0,807.733,29.2,
1573,1,SBT2050,2,3,,1,1141,3.46112,-2.6999,0,810.732,29.2,
1573,1,SBT2050,2,3,,1,1145,3.460278,-2.7001,0,813.732,29.2,
1573,1,SBT2050,2,3,,1,1149,3.45889,-2.6999,0,816.732,29.2,
1573,1,SBT2050,2,3,,1,1153,3.45764,-2.6999,0,819.732,29.2,
1573,1,SBT2050,2,3,,1,1157,3.456676,-2.7001,0,822.732,29.2,
1573,1,SBT2050,2,3,,1,1161,3.45542,-2.6998,0,825.732,29.2,
1573,1,SBT2050,2,3,,1,1165,3.45447,-2.6998,0,828.732,29.2,
1573,1,SBT2050,2,3,,1,1169,3.45336,-2.7001,0,831.732,29.2,
1573,1,SBT2050,2,3,,1,1173,3.45246,-2.7,0,834.732,29.2,
1573,1,SBT2050,2,3,,1,1177,3.45127,-2.7003,0,837.732,29.2,
1573,1,SBT2050,2,3,,1,1181,3.45007,-2.6994,0,840.732,29.2,
1573,1,SBT2050,2,3,,1,1185,3.449154,-2.6998,0,843.732,29.2,
1573,1,SBT2050,2,3,,1,1189,3.44819,-2.7,0,846.732,29.2,
1573,1,SBT2050,2,3,,1,1193,3.446916,-2.6997,0,849.732,29.2,
1573,1,SBT2050,2,3,,1,1197,3.44579,-2.6998,0,852.732,29.2,
1573,1,SBT2050,2,3,,1,1201,3.44457,-2.7001,0,855.731,29.2,
1573,1,SBT2050,2,3,,1,1205,3.44365,-2.7001,0,858.731,29.2,
1573,1,SBT2050,2,3,,1,1209,3.442702,-2.6997,0,861.731,29.2,
1573,1,SBT2050,2,3,,1,1213,3.44161,-2.7001,0,864.731,29.2,
1573,1,SBT2050,2,3,,1,1217,3.44047,-2.6998,0,867.731,29.2,
1573,1,SBT2050,2,3,,1,1221,3.43937,-2.7,0,870.731,29.2,
1573,1,SBT2050,2,3,,1,1225,3.43849,-2.7,0,873.731,29.2,
1573,1,SBT2050,2,3,,1,1229,3.437388,-2.6998,0,876.731,29.2,
1573,1,SBT2050,2,3,,1,1233,3.43629,-2.7002,0,879.731,29.2,
1573,1,SBT2050,2,3,,1,1237,3.435044,-2.6993,0,882.731,29.2,
1573,1,SBT2050,2,3,,1,1241,3.43395,-2.7001,0,885.731,29.2,
1573,1,SBT2050,2,3,,1,1245,3.43295,-2.7001,0,888.731,29.2,
1573,1,SBT2050,2,3,,1,1249,3.431866,-2.6999,0,891.731,29.2,
1573,1,SBT2050,2,3,,1,1253,3.43075,-2.6999,0,894.731,29.2,
1573,1,SBT2050,2,3,,1,1257,3.42945,-2.7,0,897.73,29.2,
1573,1,SBT2050,2,3,,1,1261,3.42873,-2.6998,0,900.73,29.3,
1573,1,SBT2050,2,3,,1,1265,3.4274,-2.6998,0,903.73,29.3,
1573,1,SBT2050,2,3,,1,1269,3.42646,-2.7004,0,906.73,29.3,
1573,1,SBT2050,2,3,,1,1273,3.42513,-2.7001,0,909.73,29.3,
1573,1,SBT2050,2,3,,1,1277,3.42435,-2.6999,0,912.73,29.3,
1573,1,SBT2050,2,3,,1,1281,3.42332,-2.6999,0,915.73,29.2,
1573,1,SBT2050,2,3,,1,1285,3.42213,-2.7001,0,918.73,29.2,
1573,1,SBT2050,2,3,,1,1289,3.4211,-2.6995,0,921.73,29.2,
1573,1,SBT2050,2,3,,1,1293,3.41987,-2.7002,0,924.73,29.2,
1573,1,SBT2050,2,3,,1,1297,3.41892,-2.7,0,927.73,29.2,
1573,1,SBT2050,2,3,,1,1301,3.41783,-2.6999,0,930.73,29.2,
1573,1,SBT2050,2,3,,1,1305,3.41686,-2.6999,0,933.73,29.2,
1573,1,SBT2050,2,3,,1,1309,3.41578,-2.6999,0,936.73,29.2,
1573,1,SBT2050,2,3,,1,1313,3.41491,-2.6999,0,939.73,29.3,
1573,1,SBT2050,2,3,,1,1317,3.4135,-2.7001,0,942.73,29.3,
1573,1,SBT2050,2,3,,1,1321,3.41261,-2.7001,0,945.73,29.2,
1573,1,SBT2050,2,3,,1,1325,3.41134,-2.7004,0,948.73,29.2,
1573,1,SBT2050,2,3,,1,1329,3.41026,-2.6998,0,951.73,29.2,
1573,1,SBT2050,2,3,,1,1333,3.40921,-2.7002,0,954.729,29.2,
1573,1,SBT2050,2,3,,1,1337,3.40826,-2.7001,0,957.729,29.2,
1573,1,SBT2050,2,3,,1,1341,3.40706,-2.6998,0,960.729,29.3,
1573,1,SBT2050,2,3,,1,1345,3.40575,-2.7001,0,963.729,29.3,
1573,1,SBT2050,2,3,,1,1349,3.404858,-2.7001,0,966.729,29.2,
1573,1,SBT2050,2,3,,1,1353,3.40376,-2.6999,0,969.729,29.2,
1573,1,SBT2050,2,3,,1,1357,3.402674,-2.6999,0,972.729,29.2,
1573,1,SBT2050,2,3,,1,1361,3.40163,-2.6998,0,975.729,29.3,
1573,1,SBT2050,2,3,,1,1365,3.40048,-2.6998,0,978.729,29.3,
1573,1,SBT2050,2,3,,1,1369,3.39927,-2.6998,0,981.729,29.3,
1573,1,SBT2050,2,3,,1,1373,3.39825,-2.6999,0,984.729,29.3,
1573,1,SBT2050,2,3,,1,1377,3.39721,-2.6999,0,987.729,29.3,
1573,1,SBT2050,2,3,,1,1381,3.39605,-2.7001,0,990.729,29.3,
1573,1,SBT2050,2,3,,1,1385,3.395216,-2.6997,0,993.729,29.2,
1573,1,SBT2050,2,3,,1,1389,3.39403,-2.6998,0,996.729,29.2,
1573,1,SBT2050,2,3,,1,1393,3.392782,-2.7,0,999.729,29.2,
1573,1,SBT2050,2,3,,1,1397,3.39187,-2.6995,0,1002.729,29.3,
1573,1,SBT2050,2,3,,1,1401,3.3908,-2.7,0,1005.729,29.3,
1573,1,SBT2050,2,3,,1,1405,3.38987,-2.7002,0,1008.729,29.2,
1573,1,SBT2050,2,3,,1,1409,3.388838,-2.6999,0,1011.729,29.3,
1573,1,SBT2050,2,3,,1,1413,3.38783,-2.6999,0,1014.728,29.2,
1573,1,SBT2050,2,3,,1,1417,3.38667,-2.7,0,1017.728,29.3,
1573,1,SBT2050,2,3,,1,1421,3.38579,-2.7001,0,1020.728,29.3,
1573,1,SBT2050,2,3,,1,1425,3.38453,-2.7004,0,1023.728,29.3,
1573,1,SBT2050,2,3,,1,1429,3.3834,-2.6998,0,1026.728,29.3,
1573,1,SBT2050,2,3,,1,1433,3.38229,-2.7,0,1029.728,29.3,
1573,1,SBT2050,2,3,,1,1437,3.38132,-2.6998,0,1032.728,29.3,
1573,1,SBT2050,2,3,,1,1441,3.38017,-2.7002,0,1035.728,29.3,
1573,1,SBT2050,2,3,,1,1445,3.37883,-2.7001,0,1038.728,29.3,
1573,1,SBT2050,2,3,,1,1449,3.37798,-2.7,0,1041.728,29.3,
1573,1,SBT2050,2,3,,1,1453,3.37684,-2.7001,0,1044.728,29.3,
1573,1,SBT2050,2,3,,1,1457,3.375744,-2.7003,0,1047.728,29.3,
1573,1,SBT2050,2,3,,1,1461,3.374658,-2.6997,0,1050.728,29.3,
1573,1,SBT2050,2,3,,1,1465,3.373762,-2.7001,0,1053.728,29.3,
1573,1,SBT2050,2,3,,1,1469,3.37251,-2.7003,0,1056.727,29.3,
1573,1,SBT2050,2,3,,1,1473,3.37131,-2.6997,0,1059.727,29.3,
1573,1,SBT2050,2,3,,1,1477,3.37027,-2.6998,0,1062.727,29.3,
1573,1,SBT2050,2,3,,1,1481,3.36928,-2.6998,0,1065.727,29.3,
1573,1,SBT2050,2,3,,1,1485,3.36819,-2.6998,0,1068.727,29.3,
1573,1,SBT2050,2,3,,1,1489,3.367302,-2.6998,0,1071.727,29.3,
1573,1,SBT2050,2,3,,1,1493,3.36609,-2.6997,0,1074.727,29.3,
1573,1,SBT2050,2,3,,1,1497,3.36517,-2.7,0,1077.727,29.3,
1573,1,SBT2050,2,3,,1,1501,3.36394,-2.6998,0,1080.727,29.3,
1573,1,SBT2050,2,3,,1,1505,3.36284,-2.6998,0,1083.727,29.3,
1573,1,SBT2050,2,3,,1,1509,3.36172,-2.6999,0,1086.727,29.3,
1573,1,SBT2050,2,3,,1,1513,3.360922,-2.7001,0,1089.727,29.3,
1573,1,SBT2050,2,3,,1,1517,3.35978,-2.7,0,1092.727,29.4,
1573,1,SBT2050,2,3,,1,1521,3.358508,-2.6998,0,1095.727,29.4,
1573,1,SBT2050,2,3,,1,1525,3.357466,-2.6994,0,1098.727,29.4,
1573,1,SBT2050,2,3,,1,1529,3.35669,-2.6998,0,1101.726,29.4,
1573,1,SBT2050,2,3,,1,1533,3.355378,-2.7001,0,1104.726,29.3,
1573,1,SBT2050,2,3,,1,1537,3.35443,-2.6998,0,1107.726,29.4,
1573,1,SBT2050,2,3,,1,1541,3.353248,-2.6998,0,1110.726,29.4,
1573,1,SBT2050,2,3,,1,1545,3.35225,-2.7,0,1113.726,29.4,
1573,1,SBT2050,2,3,,1,1549,3.35099,-2.6997,0,1116.726,29.4,
1573,1,SBT2050,2,3,,1,1553,3.349913,-2.7,0,1119.726,29.4,
1573,1,SBT2050,2,3,,1,1557,3.348707,-2.7002,0,1122.726,29.4,
1573,1,SBT2050,2,3,,1,1561,3.347827,-2.7001,0,1125.726,29.4,
1573,1,SBT2050,2,3,,1,1565,3.346547,-2.6997,0,1128.726,29.4,
1573,1,SBT2050,2,3,,1,1569,3.345403,-2.7,0,1131.726,29.4,
1573,1,SBT2050,2,3,,1,1573,3.3443,-2.6997,0,1134.726,29.4,
1573,1,SBT2050,2,3,,1,1577,3.34321,-2.6998,0,1137.726,29.4,
1573,1,SBT2050,2,3,,1,1581,3.34213,-2.7001,0,1140.726,29.4,
1573,1,SBT2050,2,3,,1,1585,3.34101,-2.7,0,1143.725,29.4,
1573,1,SBT2050,2,3,,1,1589,3.33972,-2.7002,0,1146.725,29.4,
1573,1,SBT2050,2,3,,1,1593,3.33844,-2.7,0,1149.725,29.4,
1573,1,SBT2050,2,3,,1,1597,3.33768,-2.7001,0,1152.725,29.4,
1573,1,SBT2050,2,3,,1,1601,3.33653,-2.7001,0,1155.725,29.4,
1573,1,SBT2050,2,3,,1,1605,3.33539,-2.7001,0,1158.725,29.4,
1573,1,SBT2050,2,3,,1,1609,3.33423,-2.7,0,1161.725,29.4,
1573,1,SBT2050,2,3,,1,1613,3.3334,-2.7,0,1164.725,29.4,
1573,1,SBT2050,2,3,,1,1617,3.33227,-2.6997,0,1167.725,29.5,
1573,1,SBT2050,2,3,,1,1621,3.33105,-2.6997,0,1170.725,29.5,
1573,1,SBT2050,2,3,,1,1625,3.32984,-2.7001,0,1173.725,29.4,
1573,1,SBT2050,2,3,,1,1629,3.32881,-2.7001,0,1176.725,29.4,
1573,1,SBT2050,2,3,,1,1633,3.32758,-2.7001,0,1179.725,29.4,
1573,1,SBT2050,2,3,,1,1637,3.32647,-2.6994,0,1182.725,29.4,
1573,1,SBT2050,2,3,,1,1641,3.32529,-2.7,0,1185.724,29.4,
1573,1,SBT2050,2,3,,1,1645,3.32442,-2.7004,0,1188.724,29.5,
1573,1,SBT2050,2,3,,1,1649,3.32319,-2.6995,0,1191.724,29.5,
1573,1,SBT2050,2,3,,1,1653,3.32187,-2.6997,0,1194.724,29.5,
1573,1,SBT2050,2,3,,1,1657,3.32094,-2.6999,0,1197.724,29.5,
1573,1,SBT2050,2,3,,1,1661,3.319828,-2.6997,0,1200.724,29.5,
1573,1,SBT2050,2,3,,1,1665,3.31851,-2.6997,0,1203.724,29.5,
1573,1,SBT2050,2,3,,1,1669,3.31735,-2.7,0,1206.724,29.5,
1573,1,SBT2050,2,3,,1,1673,3.31618,-2.7002,0,1209.724,29.5,
1573,1,SBT2050,2,3,,1,1677,3.315019,-2.6995,0,1212.724,29.5,
1573,1,SBT2050,2,3,,1,1681,3.31399,-2.6995,0,1215.724,29.5,
1573,1,SBT2050,2,3,,1,1685,3.312843,-2.6998,0,1218.724,29.5,
1573,1,SBT2050,2,3,,1,1689,3.31168,-2.7,0,1221.724,29.5,
1573,1,SBT2050,2,3,,1,1693,3.31044,-2.7003,0,1224.724,29.5,
1573,1,SBT2050,2,3,,1,1697,3.309295,-2.6997,0,1227.724,29.5,
1573,1,SBT2050,2,3,,1,1701,3.308296,-2.7001,0,1230.723,29.5,
1573,1,SBT2050,2,3,,1,1705,3.306984,-2.7001,0,1233.723,29.5,
1573,1,SBT2050,2,3,,1,1709,3.3059,-2.7003,0,1236.723,29.5,
1573,1,SBT2050,2,3,,1,1713,3.30452,-2.6997,0,1239.723,29.5,
1573,1,SBT2050,2,3,,1,1717,3.30365,-2.6997,0,1242.723,29.5,
1573,1,SBT2050,2,3,,1,1721,3.30249,-2.7003,0,1245.723,29.5,
1573,1,SBT2050,2,3,,1,1725,3.30119,-2.7001,0,1248.723,29.5,
1573,1,SBT2050,2,3,,1,1729,3.30003,-2.6998,0,1251.723,29.6,
1573,1,SBT2050,2,3,,1,1733,3.29901,-2.7001,0,1254.723,29.6,
1573,1,SBT2050,2,3,,1,1737,3.29795,-2.6998,0,1257.723,29.5,
1573,1,SBT2050,2,3,,1,1741,3.29659,-2.6998,0,1260.723,29.5,
1573,1,SBT2050,2,3,,1,1745,3.29555,-2.6995,0,1263.723,29.5,
1573,1,SBT2050,2,3,,1,1749,3.29436,-2.6995,0,1266.723,29.5,
1573,1,SBT2050,2,3,,1,1753,3.29308,-2.7003,0,1269.723,29.5,
1573,1,SBT2050,2,3,,1,1757,3.29185,-2.6998,0,1272.723,29.6,
1573,1,SBT2050,2,3,,1,1761,3.29066,-2.7003,0,1275.722,29.6,
1573,1,SBT2050,2,3,,1,1765,3.28947,-2.6997,0,1278.722,29.6,
1573,1,SBT2050,2,3,,1,1769,3.28854,-2.6999,0,1281.722,29.6,
1573,1,SBT2050,2,3,,1,1773,3.287009,-2.6998,0,1284.722,29.6,
1573,1,SBT2050,2,3,,1,1777,3.28581,-2.6998,0,1287.722,29.6,
1573,1,SBT2050,2,3,,1,1781,3.28458,-2.6999,0,1290.722,29.6,
1573,1,SBT2050,2,3,,1,1785,3.28378,-2.7001,0,1293.722,29.6,
1573,1,SBT2050,2,3,,1,1789,3.282446,-2.7001,0,1296.722,29.6,
1573,1,SBT2050,2,3,,1,1793,3.28101,-2.6998,0,1299.722,29.6,
1573,1,SBT2050,2,3,,1,1797,3.28002,-2.6999,0,1302.722,29.6,
1573,1,SBT2050,2,3,,1,1801,3.27892,-2.7002,0,1305.722,29.6,
1573,1,SBT2050,2,3,,1,1805,3.27739,-2.6996,0,1308.722,29.6,
1573,1,SBT2050,2,3,,1,1809,3.276447,-2.6998,0,1311.722,29.6,
1573,1,SBT2050,2,3,,1,1813,3.275176,-2.6998,0,1314.722,29.6,
1573,1,SBT2050,2,3,,1,1817,3.27413,-2.7001,0,1317.722,29.6,
1573,1,SBT2050,2,3,,1,1821,3.27275,-2.6996,0,1320.721,29.6,
1573,1,SBT2050,2,3,,1,1825,3.27154,-2.7,0,1323.721,29.6,
1573,1,SBT2050,2,3,,1,1829,3.27026,-2.7005,0,1326.721,29.6,
1573,1,SBT2050,2,3,,1,1833,3.26896,-2.7003,0,1329.721,29.7,
1573,1,SBT2050,2,3,,1,1837,3.26791,-2.6992,0,1332.721,29.7,
1573,1,SBT2050,2,3,,1,1841,3.26628,-2.6998,0,1335.721,29.7,
1573,1,SBT2050,2,3,,1,1845,3.265127,-2.6998,0,1338.721,29.7,
1573,1,SBT2050,2,3,,1,1849,3.26392,-2.7001,0,1341.721,29.7,
1573,1,SBT2050,2,3,,1,1853,3.26251,-2.7002,0,1344.721,29.7,
1573,1,SBT2050,2,3,,1,1857,3.26138,-2.6999,0,1347.721,29.7,
1573,1,SBT2050,2,3,,1,1861,3.25999,-2.6999,0,1350.721,29.7,
1573,1,SBT2050,2,3,,1,1865,3.25887,-2.6997,0,1353.721,29.7,
1573,1,SBT2050,2,3,,1,1869,3.25743,-2.7,0,1356.721,29.7,
1573,1,SBT2050,2,3,,1,1873,3.25639,-2.7003,0,1359.721,29.7,
1573,1,SBT2050,2,3,,1,1877,3.25494,-2.6997,0,1362.721,29.7,
1573,1,SBT2050,2,3,,1,1881,3.253698,-2.6997,0,1365.721,29.7,
1573,1,SBT2050,2,3,,1,1885,3.25239,-2.7002,0,1368.72,29.7,
1573,1,SBT2050,2,3,,1,1889,3.25093,-2.6994,0,1371.72,29.7,
1573,1,SBT2050,2,3,,1,1893,3.24995,-2.7,0,1374.72,29.7,
1573,1,SBT2050,2,3,,1,1897,3.24841,-2.6999,0,1377.72,29.7,
1573,1,SBT2050,2,3,,1,1901,3.24705,-2.7,0,1380.72,29.8,
1573,1,SBT2050,2,3,,1,1905,3.24593,-2.7003,0,1383.72,29.8,
1573,1,SBT2050,2,3,,1,1909,3.24446,-2.7,0,1386.72,29.8,
1573,1,SBT2050,2,3,,1,1913,3.24309,-2.6995,0,1389.72,29.7,
1573,1,SBT2050,2,3,,1,1917,3.241694,-2.7,0,1392.72,29.7,
1573,1,SBT2050,2,3,,1,1921,3.24042,-2.7,0,1395.72,29.8,
1573,1,SBT2050,2,3,,1,1925,3.239227,-2.6997,0,1398.72,29.8,
1573,1,SBT2050,2,3,,1,1929,3.23785,-2.7,0,1401.72,29.8,
1573,1,SBT2050,2,3,,1,1933,3.236609,-2.7002,0,1404.72,29.9,
1573,1,SBT2050,2,3,,1,1937,3.23527,-2.6999,0,1407.72,29.9,
1573,1,SBT2050,2,3,,1,1941,3.23375,-2.6999,0,1410.72,29.9,
1573,1,SBT2050,2,3,,1,1945,3.23227,-2.6997,0,1413.72,29.8,
1573,1,SBT2050,2,3,,1,1949,3.23106,-2.7002,0,1416.72,29.8,
1573,1,SBT2050,2,3,,1,1953,3.22992,-2.7,0,1419.72,29.9,
1573,1,SBT2050,2,3,,1,1957,3.22829,-2.6998,0,1422.72,29.9,
1573,1,SBT2050,2,3,,1,1961,3.22704,-2.6998,0,1425.72,29.9,
1573,1,SBT2050,2,3,,1,1965,3.22554,-2.7,0,1428.72,29.9,
1573,1,SBT2050,2,3,,1,1969,3.2241,-2.7,0,1431.719,29.9,
1573,1,SBT2050,2,3,,1,1973,3.22277,-2.7006,0,1434.719,29.9,
1573,1,SBT2050,2,3,,1,1977,3.22128,-2.6997,0,1437.719,29.9,
1573,1,SBT2050,2,3,,1,1981,3.219945,-2.7001,0,1440.719,29.9,
1573,1,SBT2050,2,3,,1,1985,3.218585,-2.7002,0,1443.719,29.9,
1573,1,SBT2050,2,3,,1,1989,3.217247,-2.6997,0,1446.719,29.9,
1573,1,SBT2050,2,3,,1,1993,3.215678,-2.7003,0,1449.719,29.9,
1573,1,SBT2050,2,3,,1,1997,3.21425,-2.7001,0,1452.719,29.9,
1573,1,SBT2050,2,3,,1,2001,3.21288,-2.6995,0,1455.719,29.9,
1573,1,SBT2050,2,3,,1,2005,3.211377,-2.6999,0,1458.719,30,
1573,1,SBT2050,2,3,,1,2009,3.20981,-2.6996,0,1461.719,30,
1573,1,SBT2050,2,3,,1,2013,3.208402,-2.6998,0,1464.719,30,
1573,1,SBT2050,2,3,,1,2017,3.20693,-2.7001,0,1467.719,30,
1573,1,SBT2050,2,3,,1,2021,3.20558,-2.6996,0,1470.719,30,
1573,1,SBT2050,2,3,,1,2025,3.204141,-2.7001,0,1473.719,30,
1573,1,SBT2050,2,3,,1,2029,3.20272,-2.6998,0,1476.718,30,
1573,1,SBT2050,2,3,,1,2033,3.2012,-2.7003,0,1479.718,30,
1573,1,SBT2050,2,3,,1,2037,3.19958,-2.7,0,1482.718,30,
1573,1,SBT2050,2,3,,1,2041,3.19802,-2.7003,0,1485.718,30,
1573,1,SBT2050,2,3,,1,2045,3.196679,-2.6997,0,1488.718,30.1,
1573,1,SBT2050,2,3,,1,2049,3.195018,-2.7,0,1491.718,30.1,
1573,1,SBT2050,2,3,,1,2053,3.1936,-2.7,0,1494.718,30.1,
1573,1,SBT2050,2,3,,1,2057,3.19199,-2.6998,0,1497.718,30.1,
1573,1,SBT2050,2,3,,1,2061,3.190488,-2.6997,0,1500.718,30.1,
1573,1,SBT2050,2,3,,1,2065,3.188898,-2.6998,0,1503.718,30.1,
1573,1,SBT2050,2,3,,1,2069,3.187436,-2.6998,0,1506.718,30.1,
1573,1,SBT2050,2,3,,1,2073,3.18597,-2.6997,0,1509.718,30.1,
1573,1,SBT2050,2,3,,1,2077,3.1844,-2.6998,0,1512.718,30.1,
1573,1,SBT2050,2,3,,1,2081,3.1828,-2.6998,0,1515.718,30.1,
1573,1,SBT2050,2,3,,1,2085,3.181032,-2.7001,0,1518.718,30.1,
1573,1,SBT2050,2,3,,1,2089,3.17942,-2.6997,0,1521.717,30.1,
1573,1,SBT2050,2,3,,1,2093,3.17775,-2.7003,0,1524.717,30.1,
1573,1,SBT2050,2,3,,1,2097,3.17628,-2.7,0,1527.717,30.1,
1573,1,SBT2050,2,3,,1,2101,3.17463,-2.6998,0,1530.717,30.1,
1573,1,SBT2050,2,3,,1,2105,3.17285,-2.7001,0,1533.717,30.1,
1573,1,SBT2050,2,3,,1,2109,3.17125,-2.7001,0,1536.717,30.2,
1573,1,SBT2050,2,3,,1,2113,3.16954,-2.6997,0,1539.717,30.2,
1573,1,SBT2050,2,3,,1,2117,3.167882,-2.7002,0,1542.717,30.2,
1573,1,SBT2050,2,3,,1,2121,3.166326,-2.7002,0,1545.717,30.2,
1573,1,SBT2050,2,3,,1,2125,3.1645,-2.7005,0,1548.717,30.2,
1573,1,SBT2050,2,3,,1,2129,3.162764,-2.6998,0,1551.717,30.2,
1573,1,SBT2050,2,3,,1,2133,3.1611,-2.7001,0,1554.717,30.2,
1573,1,SBT2050,2,3,,1,2137,3.15941,-2.6999,0,1557.717,30.2,
1573,1,SBT2050,2,3,,1,2141,3.15772,-2.6999,0,1560.717,30.2,
1573,1,SBT2050,2,3,,1,2145,3.15609,-2.6999,0,1563.717,30.2,
1573,1,SBT2050,2,3,,1,2149,3.154369,-2.7001,0,1566.717,30.3,
1573,1,SBT2050,2,3,,1,2153,3.15236,-2.6999,0,1569.717,30.3,
1573,1,SBT2050,2,3,,1,2157,3.15084,-2.6999,0,1572.717,30.3,
1573,1,SBT2050,2,3,,1,2161,3.14921,-2.6998,0,1575.717,30.3,
1573,1,SBT2050,2,3,,1,2165,3.14719,-2.7004,0,1578.716,30.3,
1573,1,SBT2050,2,3,,1,2169,3.14566,-2.7002,0,1581.716,30.3,
1573,1,SBT2050,2,3,,1,2173,3.143774,-2.6997,0,1584.716,30.3,
1573,1,SBT2050,2,3,,1,2177,3.14209,-2.6998,0,1587.716,30.3,
1573,1,SBT2050,2,3,,1,2181,3.140141,-2.7,0,1590.716,30.3,
1573,1,SBT2050,2,3,,1,2185,3.13835,-2.7,0,1593.716,30.4,
1573,1,SBT2050,2,3,,1,2189,3.13653,-2.7001,0,1596.716,30.4,
1573,1,SBT2050,2,3,,1,2193,3.13466,-2.6998,0,1599.716,30.4,
1573,1,SBT2050,2,3,,1,2197,3.13275,-2.6998,0,1602.716,30.4,
1573,1,SBT2050,2,3,,1,2201,3.13098,-2.6997,0,1605.716,30.4,
1573,1,SBT2050,2,3,,1,2205,3.12889,-2.6996,0,1608.716,30.4,
1573,1,SBT2050,2,3,,1,2209,3.12692,-2.6996,0,1611.716,30.4,
1573,1,SBT2050,2,3,,1,2213,3.125479,-2.6997,0,1614.716,30.4,
1573,1,SBT2050,2,3,,1,2217,3.12336,-2.7,0,1617.716,30.4,
1573,1,SBT2050,2,3,,1,2221,3.12139,-2.7001,0,1620.715,30.4,
1573,1,SBT2050,2,3,,1,2225,3.119485,-2.7001,0,1623.715,30.4,
1573,1,SBT2050,2,3,,1,2229,3.11736,-2.6997,0,1626.715,30.5,
1573,1,SBT2050,2,3,,1,2233,3.11556,-2.6997,0,1629.715,30.5,
1573,1,SBT2050,2,3,,1,2237,3.11357,-2.7003,0,1632.715,30.5,
1573,1,SBT2050,2,3,,1,2241,3.11164,-2.7,0,1635.715,30.5,
1573,1,SBT2050,2,3,,1,2245,3.10963,-2.6997,0,1638.715,30.5,
1573,1,SBT2050,2,3,,1,2249,3.107435,-2.6999,0,1641.715,30.5,
1573,1,SBT2050,2,3,,1,2253,3.105564,-2.7002,0,1644.715,30.5,
1573,1,SBT2050,2,3,,1,2257,3.10375,-2.6999,0,1647.715,30.6,
1573,1,SBT2050,2,3,,1,2261,3.101727,-2.7002,0,1650.715,30.6,
1573,1,SBT2050,2,3,,1,2265,3.09956,-2.7001,0,1653.715,30.6,
1573,1,SBT2050,2,3,,1,2269,3.09745,-2.6998,0,1656.715,30.6,
1573,1,SBT2050,2,3,,1,2273,3.0954,-2.6998,0,1659.715,30.6,
1573,1,SBT2050,2,3,,1,2277,3.09344,-2.6998,0,1662.715,30.6,
1573,1,SBT2050,2,3,,1,2281,3.0912,-2.7001,0,1665.715,30.6,
1573,1,SBT2050,2,3,,1,2285,3.08921,-2.7001,0,1668.715,30.7,
1573,1,SBT2050,2,3,,1,2289,3.08711,-2.6998,0,1671.714,30.7,
1573,1,SBT2050,2,3,,1,2293,3.08496,-2.6995,0,1674.714,30.7,
1573,1,SBT2050,2,3,,1,2297,3.08282,-2.6997,0,1677.714,30.7,
1573,1,SBT2050,2,3,,1,2301,3.080606,-2.7001,0,1680.714,30.7,
1573,1,SBT2050,2,3,,1,2305,3.07852,-2.7001,0,1683.714,30.7,
1573,1,SBT2050,2,3,,1,2309,3.07628,-2.7002,0,1686.714,30.8,
1573,1,SBT2050,2,3,,1,2313,3.07416,-2.7002,0,1689.714,30.8,
1573,1,SBT2050,2,3,,1,2317,3.07157,-2.6997,0,1692.714,30.8,
1573,1,SBT2050,2,3,,1,2321,3.069378,-2.6997,0,1695.714,30.8,
1573,1,SBT2050,2,3,,1,2325,3.06717,-2.7002,0,1698.714,30.8,
1573,1,SBT2050,2,3,,1,2329,3.064965,-2.6997,0,1701.714,30.8,
1573,1,SBT2050,2,3,,1,2333,3.06278,-2.6997,0,1704.714,30.8,
1573,1,SBT2050,2,3,,1,2337,3.06026,-2.6997,0,1707.714,30.9,
1573,1,SBT2050,2,3,,1,2341,3.05815,-2.7,0,1710.714,30.9,
1573,1,SBT2050,2,3,,1,2345,3.0557,-2.6999,0,1713.714,30.9,
1573,1,SBT2050,2,3,,1,2349,3.05345,-2.7,0,1716.714,30.9,
1573,1,SBT2050,2,3,,1,2353,3.050908,-2.6998,0,1719.713,31,
1573,1,SBT2050,2,3,,1,2357,3.04837,-2.6998,0,1722.713,31,
1573,1,SBT2050,2,3,,1,2361,3.0462,-2.6997,0,1725.713,31,
1573,1,SBT2050,2,3,,1,2365,3.04354,-2.6998,0,1728.713,31,
1573,1,SBT2050,2,3,,1,2369,3.041065,-2.7,0,1731.713,31,
1573,1,SBT2050,2,3,,1,2373,3.03874,-2.7,0,1734.713,31,
1573,1,SBT2050,2,3,,1,2377,3.03625,-2.6998,0,1737.713,31,
1573,1,SBT2050,2,3,,1,2381,3.033769,-2.6998,0,1740.713,31,
1573,1,SBT2050,2,3,,1,2385,3.03124,-2.7,0,1743.713,31.1,
1573,1,SBT2050,2,3,,1,2389,3.02845,-2.7006,0,1746.713,31.1,
1573,1,SBT2050,2,3,,1,2393,3.025862,-2.6998,0,1749.713,31.1,
1573,1,SBT2050,2,3,,1,2397,3.02336,-2.6999,0,1752.713,31.1,
1573,1,SBT2050,2,3,,1,2401,3.02076,-2.7001,0,1755.713,31.1,
1573,1,SBT2050,2,3,,1,2405,3.01808,-2.7002,0,1758.713,31.2,
1573,1,SBT2050,2,3,,1,2409,3.015375,-2.6997,0,1761.713,31.2,
1573,1,SBT2050,2,3,,1,2413,3.012971,-2.6999,0,1764.713,31.2,
1573,1,SBT2050,2,3,,1,2417,3.01033,-2.6997,0,1767.712,31.2,
1573,1,SBT2050,2,3,,1,2421,3.007477,-2.7002,0,1770.712,31.2,
1573,1,SBT2050,2,3,,1,2425,3.00478,-2.6999,0,1773.712,31.2,
1573,1,SBT2050,2,3,,1,2429,3.00188,-2.6999,0,1776.712,31.3,
1573,1,SBT2050,2,3,,1,2433,2.999043,-2.6999,0,1779.712,31.3,
1573,1,SBT2050,2,3,,1,2437,2.99621,-2.6997,0,1782.712,31.3,
1573,1,SBT2050,2,3,,1,2441,2.99345,-2.7005,0,1785.712,31.3,
1573,1,SBT2050,2,3,,1,2445,2.99061,-2.6999,0,1788.712,31.3,
1573,1,SBT2050,2,3,,1,2449,2.98766,-2.7001,0,1791.712,31.3,
1573,1,SBT2050,2,3,,1,2453,2.98468,-2.7001,0,1794.712,31.3,
1573,1,SBT2050,2,3,,1,2457,2.98161,-2.6997,0,1797.712,31.3,
1573,1,SBT2050,2,3,,1,2461,2.97876,-2.6995,0,1800.712,31.4,
1573,1,SBT2050,2,3,,1,2465,2.9756,-2.6994,0,1803.712,31.4,
1573,1,SBT2050,2,3,,1,2469,2.97266,-2.7002,0,1806.712,31.4,
1573,1,SBT2050,2,3,,1,2473,2.96969,-2.6996,0,1809.712,31.5,
1573,1,SBT2050,2,3,,1,2477,2.966361,-2.6998,0,1812.712,31.5,
1573,1,SBT2050,2,3,,1,2481,2.9632,-2.7004,0,1815.712,31.5,
1573,1,SBT2050,2,3,,1,2485,2.96001,-2.6999,0,1818.712,31.5,
1573,1,SBT2050,2,3,,1,2489,2.95673,-2.7004,0,1821.712,31.5,
1573,1,SBT2050,2,3,,1,2493,2.95339,-2.6998,0,1824.711,31.6,
1573,1,SBT2050,2,3,,1,2497,2.95008,-2.6996,0,1827.711,31.6,
1573,1,SBT2050,2,3,,1,2501,2.946539,-2.6998,0,1830.711,31.6,
1573,1,SBT2050,2,3,,1,2505,2.94332,-2.7,0,1833.711,31.6,
1573,1,SBT2050,2,3,,1,2509,2.93989,-2.6999,0,1836.711,31.7,
1573,1,SBT2050,2,3,,1,2513,2.93648,-2.6999,0,1839.711,31.7,
1573,1,SBT2050,2,3,,1,2517,2.932911,-2.7004,0,1842.711,31.7,
1573,1,SBT2050,2,3,,1,2521,2.929709,-2.7001,0,1845.711,31.7,
1573,1,SBT2050,2,3,,1,2525,2.92599,-2.7,0,1848.711,31.7,
1573,1,SBT2050,2,3,,1,2529,2.922271,-2.6998,0,1851.711,31.8,
1573,1,SBT2050,2,3,,1,2533,2.91862,-2.7004,0,1854.711,31.8,
1573,1,SBT2050,2,3,,1,2537,2.914965,-2.6997,0,1857.711,31.8,
1573,1,SBT2050,2,3,,1,2541,2.911129,-2.7,0,1860.711,31.8,
1573,1,SBT2050,2,3,,1,2545,2.90727,-2.7,0,1863.711,31.9,
1573,1,SBT2050,2,3,,1,2549,2.903304,-2.7,0,1866.711,31.9,
1573,1,SBT2050,2,3,,1,2553,2.89961,-2.6997,0,1869.711,31.9,
1573,1,SBT2050,2,3,,1,2557,2.89547,-2.6998,0,1872.711,31.9,
1573,1,SBT2050,2,3,,1,2561,2.89145,-2.6996,0,1875.71,32,
1573,1,SBT2050,2,3,,1,2565,2.88719,-2.6998,0,1878.71,32,
1573,1,SBT2050,2,3,,1,2569,2.88306,-2.6996,0,1881.71,32,
1573,1,SBT2050,2,3,,1,2573,2.87856,-2.6996,0,1884.71,32,
1573,1,SBT2050,2,3,,1,2577,2.87441,-2.7002,0,1887.71,32.1,
1573,1,SBT2050,2,3,,1,2581,2.87,-2.6998,0,1890.71,32.1,
1573,1,SBT2050,2,3,,1,2585,2.86547,-2.7003,0,1893.71,32.2,
1573,1,SBT2050,2,3,,1,2589,2.86088,-2.7002,0,1896.71,32.2,
1573,1,SBT2050,2,3,,1,2593,2.85642,-2.6996,0,1899.71,32.2,
1573,1,SBT2050,2,3,,1,2597,2.85149,-2.6998,0,1902.71,32.2,
1573,1,SBT2050,2,3,,1,2601,2.84677,-2.7004,0,1905.71,32.3,
1573,1,SBT2050,2,3,,1,2605,2.84165,-2.7001,0,1908.71,32.3,
1573,1,SBT2050,2,3,,1,2609,2.8368,-2.6999,0,1911.71,32.3,
1573,1,SBT2050,2,3,,1,2613,2.831939,-2.6998,0,1914.71,32.3,
1573,1,SBT2050,2,3,,1,2617,2.82662,-2.6999,0,1917.71,32.4,
1573,1,SBT2050,2,3,,1,2621,2.82094,-2.6998,0,1920.709,32.5,
1573,1,SBT2050,2,3,,1,2625,2.81562,-2.6997,0,1923.709,32.5,
1573,1,SBT2050,2,3,,1,2629,2.81017,-2.7,0,1926.709,32.5,
1573,1,SBT2050,2,3,,1,2633,2.80458,-2.7001,0,1929.709,32.5,
1573,1,SBT2050,2,3,,1,2637,2.79863,-2.6998,0,1932.709,32.6,
1573,1,SBT2050,2,3,,1,2641,2.79264,-2.6995,0,1935.709,32.6,
1573,1,SBT2050,2,3,,1,2645,2.786427,-2.6998,0,1938.709,32.6,
1573,1,SBT2050,2,3,,1,2649,2.78014,-2.6998,0,1941.709,32.7,
1573,1,SBT2050,2,3,,1,2653,2.77383,-2.7,0,1944.709,32.7,
1573,1,SBT2050,2,3,,1,2657,2.76718,-2.7,0,1947.709,32.7,
1573,1,SBT2050,2,3,,1,2661,2.760922,-2.6997,0,1950.709,32.8,
1573,1,SBT2050,2,3,,1,2665,2.75407,-2.7,0,1953.709,32.9,
1573,1,SBT2050,2,3,,1,2669,2.747069,-2.7001,0,1956.709,32.9,
1573,1,SBT2050,2,3,,1,2673,2.74013,-2.7002,0,1959.709,32.9,
1573,1,SBT2050,2,3,,1,2677,2.73302,-2.6998,0,1962.708,32.9,
1573,1,SBT2050,2,3,,1,2681,2.725688,-2.6998,0,1965.708,33,
1573,1,SBT2050,2,3,,1,2685,2.71816,-2.6995,0,1968.708,33,
1573,1,SBT2050,2,3,,1,2689,2.710391,-2.7001,0,1971.708,33.1,
1573,1,SBT2050,2,3,,1,2693,2.70265,-2.6999,0,1974.708,33.2,
1573,1,SBT2050,2,3,,1,2697,2.69469,-2.7002,0,1977.708,33.2,
1573,1,SBT2050,2,3,,1,2701,2.68631,-2.7001,0,1980.708,33.2,
1573,1,SBT2050,2,3,,1,2705,2.67808,-2.6999,0,1983.708,33.3,
1573,1,SBT2050,2,3,,1,2709,2.66945,-2.6998,0,1986.708,33.3,
1573,1,SBT2050,2,3,,1,2713,2.66035,-2.7001,0,1989.708,33.3,
1573,1,SBT2050,2,3,,1,2717,2.65113,-2.7002,0,1992.708,33.4,
1573,1,SBT2050,2,3,,1,2721,2.64196,-2.7001,0,1995.708,33.4,
1573,1,SBT2050,2,3,,1,2725,2.63229,-2.7,0,1998.708,33.5,
1573,1,SBT2050,2,3,,1,2729,2.62228,-2.7,0,2001.708,33.6,
1573,1,SBT2050,2,3,,1,2733,2.611951,-2.7002,0,2004.708,33.6,
1573,1,SBT2050,2,3,,1,2737,2.60155,-2.6998,0,2007.708,33.7,
1573,1,SBT2050,2,3,,1,2741,2.59047,-2.6998,0,2010.708,33.7,
1573,1,SBT2050,2,3,,1,2745,2.57918,-2.6998,0,2013.708,33.8,
1573,1,SBT2050,2,3,,1,2749,2.56766,-2.7001,0,2016.708,33.9,
1573,1,SBT2050,2,3,,1,2753,2.55548,-2.6997,0,2019.708,33.9,
1573,1,SBT2050,2,3,,1,2757,2.54304,-2.6997,0,2022.708,33.9,
1573,1,SBT2050,2,3,,1,2761,2.53024,-2.7,0,2025.707,34,
1573,1,SBT2050,2,3,,1,2765,2.516752,-2.7,0,2028.707,34.1,
1573,1,SBT2050,2,3,,1,2769,2.50269,-2.6999,0,2031.707,34.2,
1573,1,SBT2050,2,3,,2,2772,2.8973,0,0,2032.283,34.2,
1573,1,SBT2050,2,3,,2,2776,3.06476,0,0,2032.283,34.3,
1573,1,SBT2050,2,3,,2,2780,3.125991,0,0,2032.283,34.2,
1573,1,SBT2050,2,3,,2,2784,3.159608,0,0,2032.283,34.1,
1573,1,SBT2050,2,3,,2,2788,3.181884,0,0,2032.283,34,
1573,1,SBT2050,2,3,,2,2792,3.19902,0,0,2032.283,33.9,
1573,1,SBT2050,2,3,,2,2796,3.21252,0,0,2032.283,33.8,
1573,1,SBT2050,2,3,,2,2800,3.22397,0,0,2032.283,33.7,
1573,1,SBT2050,2,3,,2,2804,3.2339,0,0,2032.283,33.6,
1573,1,SBT2050,2,3,,2,2808,3.24222,0,0,2032.283,33.5,
1573,1,SBT2050,2,3,,2,2812,3.24998,0,0,2032.283,33.4,
1573,1,SBT2050,2,3,,2,2816,3.25665,0,0,2032.283,33.3,
1573,1,SBT2050,2,3,,2,2820,3.2632,0,0,2032.283,33.1,
1573,1,SBT2050,2,3,,2,2824,3.26862,0,0,2032.283,33,
1573,1,SBT2050,2,3,,2,2828,3.27346,0,0,2032.283,32.9,
1573,1,SBT2050,2,3,,2,2829.766,3.275028,-9.9E-05,0,2032.283,,