File: ORRG/Test1570.csv
Request Year:,2018,,,,,,,,,,,,
Test:,1570,,,,,,,,,,,,
Test Description:,,,,,,,,,,,,,
TestRegime Name:,Dchg_1C,,,,,,,,,,,,
TestRegime Suffix:,SHP_LC,,,,,,,,,,,,
TestRegime CellSize:,18650,,,,,,,,,,,,
TestRegime Version:,1,,,,,,,,,,,,
Number Of Cells:,1,,,,,,,,,,,,
LotID:,,,,,,,,,,,,,
Lot Description:,,,,,,,,,,,,,
Date Made:,1/21/2003 12:00 AM,,,,,,,,,,,,
Origin:,Other,,,,,,,,,,,,
Requestor:,Admin,,,,,,,,,,,,
Product ID:,Default product,,,,,,,,,,,,
Storage Temp:,R.T./AMB,,,,,,,,,,,,
Storage Delay:,0 days,,,,,,,,,,,,
Test Temp:,R.T./AMB,,,,,,,,,,,,
Start Time:,4/26/2018 9:45 PM,,,,,,,,,,,,
End Time:,4/26/2018 10:36 PM,,,,,,,,,,,,
Operator Instructions:,,,,,,,,,,,,,
Test,Cell,Rack,Shelf,Position,Cell ID,Step,Total Time (Seconds),Voltage (V),Current (A),Charge Capacity (mAh),Discharge Capacity (mAh),TC1 (Â°C),
1570,1,SBT2050,2,3,,0,1,4.08817,0,0,0,32.8,
1570,1,SBT2050,2,3,,0,5,4.08723,0,0,0,32.8,
1570,1,SBT2050,2,3,,0,9,4.08689,0,0,0,32.8,
1570,1,SBT2050,2,3,,0,13,4.08627,0,0,0,32.8,
1570,1,SBT2050,2,3,,0,17,4.08556,0,0,0,32.8,
1570,1,SBT2050,2,3,,0,21,4.085226,0,0,0,32.7,
1570,1,SBT2050,2,3,,0,25,4.084738,0,0,0,32.7,
1570,1,SBT2050,2,3,,0,29,4.084132,0,0,0,32.7,
1570,1,SBT2050,2,3,,0,33,4.08355,0,0,0,32.7,
1570,1,SBT2050,2,3,,0,37,4.08263,0,0,0,32.7,
1570,1,SBT2050,2,3,,0,41,4.08265,0,0,0,32.7,
1570,1,SBT2050,2,3,,0,45,4.08194,0,0,0,32.7,
1570,1,SBT2050,2,3,,0,49,4.08109,0,0,0,32.7,
1570,1,SBT2050,2,3,,0,53,4.0807,0,0,0,32.6,
1570,1,SBT2050,2,3,,0,57,4.0802,0,0,0,32.6,
1570,1,SBT2050,2,3,,1,61,3.92378,-2.7003,0,0.749,32.6,
1570,1,SBT2050,2,3,,1,65,3.90238,-2.7001,0,3.749,32.6,
1570,1,SBT2050,2,3,,1,69,3.89002,-2.7,0,6.749,32.6,
1570,1,SBT2050,2,3,,1,73,3.88055,-2.6999,0,9.749,32.7,
1570,1,SBT2050,2,3,,1,77,3.873056,-2.7,0,12.748,32.7,
1570,1,SBT2050,2,3,,1,81,3.86684,-2.7001,0,15.748,32.7,
1570,1,SBT2050,2,3,,1,85,3.86114,-2.7001,0,18.748,32.7,
1570,1,SBT2050,2,3,,1,89,3.85648,-2.6997,0,21.748,32.7,
1570,1,SBT2050,2,3,,1,93,3.85238,-2.6998,0,24.748,32.7,
1570,1,SBT2050,2,3,,1,97,3.84818,-2.7,0,27.748,32.7,
1570,1,SBT2050,2,3,,1,101,3.844768,-2.7001,0,30.748,32.7,
1570,1,SBT2050,2,3,,1,105,3.8417,-2.7005,0,33.748,32.7,
1570,1,SBT2050,2,3,,1,109,3.83845,-2.6999,0,36.748,32.7,
1570,1,SBT2050,2,3,,1,113,3.8358,-2.6998,0,39.748,32.7,
1570,1,SBT2050,2,3,,1,117,3.832964,-2.7,0,42.748,32.7,
1570,1,SBT2050,2,3,,1,121,3.83051,-2.6995,0,45.748,32.7,
1570,1,SBT2050,2,3,,1,125,3.82809,-2.6997,0,48.748,32.7,
1570,1,SBT2050,2,3,,1,129,3.82582,-2.6998,0,51.748,32.7,
1570,1,SBT2050,2,3,,1,133,3.823438,-2.7001,0,54.748,32.6,
1570,1,SBT2050,2,3,,1,137,3.82153,-2.6999,0,57.748,32.6,
1570,1,SBT2050,2,3,,1,141,3.81933,-2.7001,0,60.747,32.6,
1570,1,SBT2050,2,3,,1,145,3.81755,-2.6997,0,63.747,32.6,
1570,1,SBT2050,2,3,,1,149,3.81559,-2.7001,0,66.747,32.6,
1570,1,SBT2050,2,3,,1,153,3.81378,-2.7003,0,69.747,32.6,
1570,1,SBT2050,2,3,,1,157,3.8121,-2.6997,0,72.747,32.5,
1570,1,SBT2050,2,3,,1,161,3.81009,-2.6999,0,75.747,32.5,
1570,1,SBT2050,2,3,,1,165,3.80845,-2.7002,0,78.747,32.5,
1570,1,SBT2050,2,3,,1,169,3.80688,-2.7,0,81.747,32.5,
1570,1,SBT2050,2,3,,1,173,3.804868,-2.6997,0,84.747,32.5,
1570,1,SBT2050,2,3,,1,177,3.803668,-2.6999,0,87.747,32.4,
1570,1,SBT2050,2,3,,1,181,3.80195,-2.6999,0,90.747,32.4,
1570,1,SBT2050,2,3,,1,185,3.800328,-2.7,0,93.747,32.4,
1570,1,SBT2050,2,3,,1,189,3.79874,-2.7,0,96.747,32.3,
1570,1,SBT2050,2,3,,1,193,3.7972,-2.7003,0,99.747,32.3,
1570,1,SBT2050,2,3,,1,197,3.795732,-2.6997,0,102.747,32.3,
1570,1,SBT2050,2,3,,1,201,3.79394,-2.7001,0,105.746,32.3,
1570,1,SBT2050,2,3,,1,205,3.79254,-2.6997,0,108.746,32.3,
1570,1,SBT2050,2,3,,1,209,3.79085,-2.6997,0,111.746,32.2,
1570,1,SBT2050,2,3,,1,213,3.78926,-2.7001,0,114.746,32.2,
1570,1,SBT2050,2,3,,1,217,3.78801,-2.7001,0,117.746,32.2,
1570,1,SBT2050,2,3,,1,221,3.78678,-2.7,0,120.746,32.1,
1570,1,SBT2050,2,3,,1,225,3.78508,-2.7001,0,123.746,32.1,
1570,1,SBT2050,2,3,,1,229,3.78363,-2.7001,0,126.746,32.1,
1570,1,SBT2050,2,3,,1,233,3.78213,-2.6999,0,129.746,32.1,
1570,1,SBT2050,2,3,,1,237,3.78062,-2.7001,0,132.746,32,
1570,1,SBT2050,2,3,,1,241,3.7792,-2.6999,0,135.746,32,
1570,1,SBT2050,2,3,,1,245,3.77786,-2.7,0,138.746,32,
1570,1,SBT2050,2,3,,1,249,3.7765,-2.7,0,141.746,31.9,
1570,1,SBT2050,2,3,,1,253,3.775,-2.7002,0,144.746,31.9,
1570,1,SBT2050,2,3,,1,257,3.77361,-2.7,0,147.746,31.9,
1570,1,SBT2050,2,3,,1,261,3.77227,-2.7,0,150.746,31.9,
1570,1,SBT2050,2,3,,1,265,3.7707,-2.6997,0,153.745,31.8,
1570,1,SBT2050,2,3,,1,269,3.76915,-2.7001,0,156.745,31.8,
1570,1,SBT2050,2,3,,1,273,3.76811,-2.7001,0,159.745,31.7,
1570,1,SBT2050,2,3,,1,277,3.76657,-2.7,0,162.745,31.7,
1570,1,SBT2050,2,3,,1,281,3.76534,-2.6998,0,165.745,31.7,
1570,1,SBT2050,2,3,,1,285,3.76385,-2.6995,0,168.745,31.6,
1570,1,SBT2050,2,3,,1,289,3.762534,-2.7004,0,171.745,31.6,
1570,1,SBT2050,2,3,,1,293,3.761084,-2.6997,0,174.745,31.6,
1570,1,SBT2050,2,3,,1,297,3.75964,-2.7001,0,177.745,31.6,
1570,1,SBT2050,2,3,,1,301,3.7583,-2.7002,0,180.745,31.6,
1570,1,SBT2050,2,3,,1,305,3.75715,-2.6998,0,183.745,31.5,
1570,1,SBT2050,2,3,,1,309,3.75562,-2.6996,0,186.745,31.5,
1570,1,SBT2050,2,3,,1,313,3.75427,-2.6999,0,189.745,31.5,
1570,1,SBT2050,2,3,,1,317,3.75309,-2.7001,0,192.745,31.4,
1570,1,SBT2050,2,3,,1,321,3.75173,-2.7001,0,195.745,31.4,
1570,1,SBT2050,2,3,,1,325,3.75022,-2.6998,0,198.745,31.3,
1570,1,SBT2050,2,3,,1,329,3.74909,-2.7002,0,201.745,31.3,
1570,1,SBT2050,2,3,,1,333,3.74778,-2.7002,0,204.745,31.3,
1570,1,SBT2050,2,3,,1,337,3.74634,-2.7001,0,207.745,31.3,
1570,1,SBT2050,2,3,,1,341,3.74523,-2.7001,0,210.745,31.2,
1570,1,SBT2050,2,3,,1,345,3.743822,-2.6998,0,213.744,31.2,
1570,1,SBT2050,2,3,,1,349,3.74246,-2.6998,0,216.744,31.2,
1570,1,SBT2050,2,3,,1,353,3.74084,-2.7002,0,219.744,31.2,
1570,1,SBT2050,2,3,,1,357,3.73967,-2.7002,0,222.744,31.1,
1570,1,SBT2050,2,3,,1,361,3.73836,-2.7002,0,225.744,31.1,
1570,1,SBT2050,2,3,,1,365,3.73711,-2.6999,0,228.744,31.1,
1570,1,SBT2050,2,3,,1,369,3.73559,-2.6997,0,231.744,31,
1570,1,SBT2050,2,3,,1,373,3.734338,-2.7001,0,234.744,31,
1570,1,SBT2050,2,3,,1,377,3.73304,-2.6992,0,237.744,31,
1570,1,SBT2050,2,3,,1,381,3.73173,-2.6998,0,240.744,31,
1570,1,SBT2050,2,3,,1,385,3.73042,-2.7003,0,243.744,30.9,
1570,1,SBT2050,2,3,,1,389,3.72907,-2.6998,0,246.744,30.9,
1570,1,SBT2050,2,3,,1,393,3.7276,-2.7001,0,249.744,30.9,
1570,1,SBT2050,2,3,,1,397,3.72656,-2.7001,0,252.744,30.8,
1570,1,SBT2050,2,3,,1,401,3.72501,-2.6992,0,255.744,30.8,
1570,1,SBT2050,2,3,,1,405,3.72383,-2.7006,0,258.744,30.8,
1570,1,SBT2050,2,3,,1,409,3.722468,-2.7,0,261.744,30.8,
1570,1,SBT2050,2,3,,1,413,3.72131,-2.6997,0,264.743,30.7,
1570,1,SBT2050,2,3,,1,417,3.72019,-2.7003,0,267.743,30.7,
1570,1,SBT2050,2,3,,1,421,3.71883,-2.6997,0,270.743,30.7,
1570,1,SBT2050,2,3,,1,425,3.71728,-2.7,0,273.743,30.7,
1570,1,SBT2050,2,3,,1,429,3.71615,-2.7,0,276.743,30.7,
1570,1,SBT2050,2,3,,1,433,3.7147,-2.7,0,279.743,30.6,
1570,1,SBT2050,2,3,,1,437,3.713542,-2.6997,0,282.743,30.6,
1570,1,SBT2050,2,3,,1,441,3.7124,-2.7003,0,285.743,30.6,
1570,1,SBT2050,2,3,,1,445,3.71095,-2.7,0,288.743,30.6,
1570,1,SBT2050,2,3,,1,449,3.70988,-2.6997,0,291.743,30.5,
1570,1,SBT2050,2,3,,1,453,3.70833,-2.6997,0,294.743,30.5,
1570,1,SBT2050,2,3,,1,457,3.70702,-2.6998,0,297.743,30.5,
1570,1,SBT2050,2,3,,1,461,3.70595,-2.7001,0,300.743,30.5,
1570,1,SBT2050,2,3,,1,465,3.70439,-2.6997,0,303.743,30.5,
1570,1,SBT2050,2,3,,1,469,3.70329,-2.7,0,306.743,30.4,
1570,1,SBT2050,2,3,,1,473,3.70199,-2.6998,0,309.742,30.4,
1570,1,SBT2050,2,3,,1,477,3.7008,-2.7002,0,312.742,30.4,
1570,1,SBT2050,2,3,,1,481,3.69945,-2.7,0,315.742,30.4,
1570,1,SBT2050,2,3,,1,485,3.69815,-2.6999,0,318.742,30.3,
1570,1,SBT2050,2,3,,1,489,3.6969,-2.6999,0,321.742,30.3,
1570,1,SBT2050,2,3,,1,493,3.69559,-2.7,0,324.742,30.3,
1570,1,SBT2050,2,3,,1,497,3.69453,-2.6998,0,327.742,30.3,
1570,1,SBT2050,2,3,,1,501,3.69327,-2.6996,0,330.742,30.3,
1570,1,SBT2050,2,3,,1,505,3.69192,-2.7002,0,333.742,30.2,
1570,1,SBT2050,2,3,,1,509,3.69076,-2.7001,0,336.742,30.2,
1570,1,SBT2050,2,3,,1,513,3.68941,-2.6999,0,339.742,30.2,
1570,1,SBT2050,2,3,,1,517,3.68844,-2.6998,0,342.742,30.2,
1570,1,SBT2050,2,3,,1,521,3.68711,-2.6999,0,345.742,30.2,
1570,1,SBT2050,2,3,,1,525,3.6859,-2.6999,0,348.742,30.2,
1570,1,SBT2050,2,3,,1,529,3.68479,-2.7001,0,351.742,30.2,
1570,1,SBT2050,2,3,,1,533,3.68358,-2.6998,0,354.742,30.1,
1570,1,SBT2050,2,3,,1,537,3.68214,-2.6999,0,357.742,30.1,
1570,1,SBT2050,2,3,,1,541,3.68102,-2.7004,0,360.742,30.1,
1570,1,SBT2050,2,3,,1,545,3.67978,-2.7004,0,363.742,30.1,
1570,1,SBT2050,2,3,,1,549,3.67859,-2.7,0,366.742,30,
1570,1,SBT2050,2,3,,1,553,3.67745,-2.7001,0,369.742,30.1,
1570,1,SBT2050,2,3,,1,557,3.67579,-2.6998,0,372.742,30,
1570,1,SBT2050,2,3,,1,561,3.67489,-2.7001,0,375.741,30,
1570,1,SBT2050,2,3,,1,565,3.67374,-2.7,0,378.741,30,
1570,1,SBT2050,2,3,,1,569,3.6725,-2.6998,0,381.741,30,
1570,1,SBT2050,2,3,,1,573,3.67121,-2.7,0,384.741,30,
1570,1,SBT2050,2,3,,1,577,3.67004,-2.7001,0,387.741,29.9,
1570,1,SBT2050,2,3,,1,581,3.66873,-2.6998,0,390.741,29.9,
1570,1,SBT2050,2,3,,1,585,3.66782,-2.6997,0,393.741,29.9,
1570,1,SBT2050,2,3,,1,589,3.66622,-2.6997,0,396.741,29.9,
1570,1,SBT2050,2,3,,1,593,3.66532,-2.7,0,399.741,29.9,
1570,1,SBT2050,2,3,,1,597,3.66407,-2.7003,0,402.741,29.9,
1570,1,SBT2050,2,3,,1,601,3.6628,-2.6998,0,405.741,29.8,
1570,1,SBT2050,2,3,,1,605,3.66167,-2.6997,0,408.741,29.8,
1570,1,SBT2050,2,3,,1,609,3.66055,-2.6998,0,411.741,29.8,
1570,1,SBT2050,2,3,,1,613,3.659416,-2.6999,0,414.741,29.8,
1570,1,SBT2050,2,3,,1,617,3.65831,-2.6998,0,417.741,29.8,
1570,1,SBT2050,2,3,,1,621,3.65709,-2.7001,0,420.741,29.8,
1570,1,SBT2050,2,3,,1,625,3.65587,-2.7001,0,423.741,29.8,
1570,1,SBT2050,2,3,,1,629,3.65458,-2.6999,0,426.74,29.8,
1570,1,SBT2050,2,3,,1,633,3.65363,-2.6998,0,429.74,29.8,
1570,1,SBT2050,2,3,,1,637,3.65214,-2.7,0,432.74,29.7,
1570,1,SBT2050,2,3,,1,641,3.651166,-2.7,0,435.74,29.7,
1570,1,SBT2050,2,3,,1,645,3.650166,-2.7004,0,438.74,29.7,
1570,1,SBT2050,2,3,,1,649,3.64909,-2.7,0,441.74,29.7,
1570,1,SBT2050,2,3,,1,653,3.64784,-2.7001,0,444.74,29.7,
1570,1,SBT2050,2,3,,1,657,3.64641,-2.7,0,447.74,29.7,
1570,1,SBT2050,2,3,,1,661,3.6455,-2.7003,0,450.74,29.7,
1570,1,SBT2050,2,3,,1,665,3.64405,-2.7001,0,453.74,29.7,
1570,1,SBT2050,2,3,,1,669,3.64291,-2.6998,0,456.74,29.7,
1570,1,SBT2050,2,3,,1,673,3.64158,-2.7,0,459.74,29.6,
1570,1,SBT2050,2,3,,1,677,3.64051,-2.6998,0,462.74,29.6,
1570,1,SBT2050,2,3,,1,681,3.63954,-2.7003,0,465.74,29.6,
1570,1,SBT2050,2,3,,1,685,3.638164,-2.6997,0,468.739,29.6,
1570,1,SBT2050,2,3,,1,689,3.63703,-2.7005,0,471.739,29.6,
1570,1,SBT2050,2,3,,1,693,3.635852,-2.6998,0,474.739,29.6,
1570,1,SBT2050,2,3,,1,697,3.63479,-2.6997,0,477.739,29.6,
1570,1,SBT2050,2,3,,1,701,3.63382,-2.7006,0,480.739,29.6,
1570,1,SBT2050,2,3,,1,705,3.63272,-2.7001,0,483.739,29.6,
1570,1,SBT2050,2,3,,1,709,3.63137,-2.7001,0,486.739,29.5,
1570,1,SBT2050,2,3,,1,713,3.63011,-2.7003,0,489.739,29.5,
1570,1,SBT2050,2,3,,1,717,3.62885,-2.7002,0,492.739,29.5,
1570,1,SBT2050,2,3,,1,721,3.62777,-2.6997,0,495.739,29.5,
1570,1,SBT2050,2,3,,1,725,3.62661,-2.6999,0,498.739,29.5,
1570,1,SBT2050,2,3,,1,729,3.62577,-2.7,0,501.739,29.5,
1570,1,SBT2050,2,3,,1,733,3.624426,-2.6997,0,504.739,29.5,
1570,1,SBT2050,2,3,,1,737,3.623048,-2.7001,0,507.739,29.5,
1570,1,SBT2050,2,3,,1,741,3.62198,-2.6999,0,510.739,29.5,
1570,1,SBT2050,2,3,,1,745,3.62098,-2.6999,0,513.739,29.5,
1570,1,SBT2050,2,3,,1,749,3.62008,-2.6999,0,516.738,29.5,
1570,1,SBT2050,2,3,,1,753,3.61872,-2.7002,0,519.738,29.5,
1570,1,SBT2050,2,3,,1,757,3.61733,-2.6999,0,522.738,29.4,
1570,1,SBT2050,2,3,,1,761,3.61626,-2.6999,0,525.738,29.4,
1570,1,SBT2050,2,3,,1,765,3.6154,-2.7002,0,528.738,29.4,
1570,1,SBT2050,2,3,,1,769,3.61394,-2.6999,0,531.738,29.4,
1570,1,SBT2050,2,3,,1,773,3.612766,-2.7004,0,534.738,29.4,
1570,1,SBT2050,2,3,,1,777,3.61177,-2.7001,0,537.738,29.4,
1570,1,SBT2050,2,3,,1,781,3.61069,-2.6999,0,540.738,29.4,
1570,1,SBT2050,2,3,,1,785,3.60957,-2.7,0,543.738,29.4,
1570,1,SBT2050,2,3,,1,789,3.60835,-2.7001,0,546.738,29.4,
1570,1,SBT2050,2,3,,1,793,3.607304,-2.6997,0,549.738,29.4,
1570,1,SBT2050,2,3,,1,797,3.60594,-2.6998,0,552.738,29.4,
1570,1,SBT2050,2,3,,1,801,3.60483,-2.6997,0,555.738,29.4,
1570,1,SBT2050,2,3,,1,805,3.60383,-2.6997,0,558.738,29.4,
1570,1,SBT2050,2,3,,1,809,3.602804,-2.7003,0,561.738,29.4,
1570,1,SBT2050,2,3,,1,813,3.60185,-2.6999,0,564.738,29.4,
1570,1,SBT2050,2,3,,1,817,3.60043,-2.7001,0,567.738,29.4,
1570,1,SBT2050,2,3,,1,821,3.59944,-2.6998,0,570.737,29.4,
1570,1,SBT2050,2,3,,1,825,3.5985,-2.7001,0,573.737,29.4,
1570,1,SBT2050,2,3,,1,829,3.5973,-2.7,0,576.737,29.4,
1570,1,SBT2050,2,3,,1,833,3.59615,-2.6997,0,579.737,29.4,
1570,1,SBT2050,2,3,,1,837,3.59534,-2.6997,0,582.737,29.3,
1570,1,SBT2050,2,3,,1,841,3.59411,-2.7001,0,585.737,29.3,
1570,1,SBT2050,2,3,,1,845,3.59274,-2.7001,0,588.737,29.3,
1570,1,SBT2050,2,3,,1,849,3.59169,-2.6998,0,591.737,29.3,
1570,1,SBT2050,2,3,,1,853,3.59069,-2.6998,0,594.737,29.4,
1570,1,SBT2050,2,3,,1,857,3.5894,-2.6996,0,597.737,29.4,
1570,1,SBT2050,2,3,,1,861,3.58841,-2.7001,0,600.737,29.3,
1570,1,SBT2050,2,3,,1,865,3.587196,-2.7,0,603.737,29.3,
1570,1,SBT2050,2,3,,1,869,3.586176,-2.6995,0,606.737,29.3,
1570,1,SBT2050,2,3,,1,873,3.58507,-2.7005,0,609.737,29.3,
1570,1,SBT2050,2,3,,1,877,3.58387,-2.7002,0,612.737,29.3,
1570,1,SBT2050,2,3,,1,881,3.58283,-2.7,0,615.737,29.3,
1570,1,SBT2050,2,3,,1,885,3.58149,-2.7,0,618.737,29.3,
1570,1,SBT2050,2,3,,1,889,3.58053,-2.6998,0,621.737,29.3,
1570,1,SBT2050,2,3,,1,893,3.57914,-2.7,0,624.737,29.3,
1570,1,SBT2050,2,3,,1,897,3.578182,-2.6998,0,627.737,29.3,
1570,1,SBT2050,2,3,,1,901,3.5772,-2.7,0,630.736,29.3,
1570,1,SBT2050,2,3,,1,905,3.57594,-2.7003,0,633.736,29.3,
1570,1,SBT2050,2,3,,1,909,3.57489,-2.7003,0,636.736,29.3,
1570,1,SBT2050,2,3,,1,913,3.5735,-2.6999,0,639.736,29.3,
1570,1,SBT2050,2,3,,1,917,3.57265,-2.7003,0,642.736,29.3,
1570,1,SBT2050,2,3,,1,921,3.57151,-2.7001,0,645.736,29.3,
1570,1,SBT2050,2,3,,1,925,3.57033,-2.7001,0,648.736,29.3,
1570,1,SBT2050,2,3,,1,929,3.56909,-2.6998,0,651.736,29.3,
1570,1,SBT2050,2,3,,1,933,3.56812,-2.6998,0,654.736,29.3,
1570,1,SBT2050,2,3,,1,937,3.56692,-2.7001,0,657.736,29.3,
1570,1,SBT2050,2,3,,1,941,3.56575,-2.7002,0,660.736,29.3,
1570,1,SBT2050,2,3,,1,945,3.564754,-2.7,0,663.736,29.3,
1570,1,SBT2050,2,3,,1,949,3.56376,-2.7003,0,666.736,29.3,
1570,1,SBT2050,2,3,,1,953,3.56249,-2.7,0,669.736,29.3,
1570,1,SBT2050,2,3,,1,957,3.56127,-2.6995,0,672.736,29.3,
1570,1,SBT2050,2,3,,1,961,3.56038,-2.7004,0,675.735,29.3,
1570,1,SBT2050,2,3,,1,965,3.55918,-2.7001,0,678.735,29.3,
1570,1,SBT2050,2,3,,1,969,3.55804,-2.6999,0,681.735,29.3,
1570,1,SBT2050,2,3,,1,973,3.556756,-2.7002,0,684.735,29.3,
1570,1,SBT2050,2,3,,1,977,3.5556,-2.6999,0,687.735,29.3,
1570,1,SBT2050,2,3,,1,981,3.55462,-2.6999,0,690.735,29.2,
1570,1,SBT2050,2,3,,1,985,3.55344,-2.7,0,693.735,29.2,
1570,1,SBT2050,2,3,,1,989,3.55229,-2.7,0,696.735,29.2,
1570,1,SBT2050,2,3,,1,993,3.55118,-2.6999,0,699.735,29.2,
1570,1,SBT2050,2,3,,1,997,3.54997,-2.6996,0,702.735,29.2,
1570,1,SBT2050,2,3,,1,1001,3.54898,-2.7002,0,705.735,29.2,
1570,1,SBT2050,2,3,,1,1005,3.547976,-2.6997,0,708.735,29.2,
1570,1,SBT2050,2,3,,1,1009,3.54622,-2.6997,0,711.735,29.2,
1570,1,SBT2050,2,3,,1,1013,3.54539,-2.6998,0,714.735,29.2,
1570,1,SBT2050,2,3,,1,1017,3.54422,-2.7001,0,717.735,29.2,
1570,1,SBT2050,2,3,,1,1021,3.543252,-2.7002,0,720.735,29.2,
1570,1,SBT2050,2,3,,1,1025,3.54223,-2.6997,0,723.735,29.2,
1570,1,SBT2050,2,3,,1,1029,3.54103,-2.7,0,726.734,29.2,
1570,1,SBT2050,2,3,,1,1033,3.53986,-2.6997,0,729.734,29.2,
1570,1,SBT2050,2,3,,1,1037,3.53864,-2.6999,0,732.734,29.2,
1570,1,SBT2050,2,3,,1,1041,3.53753,-2.6999,0,735.734,29.2,
1570,1,SBT2050,2,3,,1,1045,3.53648,-2.6995,0,738.734,29.2,
1570,1,SBT2050,2,3,,1,1049,3.53518,-2.7003,0,741.734,29.2,
1570,1,SBT2050,2,3,,1,1053,3.53409,-2.6998,0,744.734,29.2,
1570,1,SBT2050,2,3,,1,1057,3.53294,-2.7003,0,747.734,29.2,
1570,1,SBT2050,2,3,,1,1061,3.53174,-2.6998,0,750.734,29.2,
1570,1,SBT2050,2,3,,1,1065,3.53092,-2.6998,0,753.734,29.2,
1570,1,SBT2050,2,3,,1,1069,3.529574,-2.7,0,756.734,29.2,
1570,1,SBT2050,2,3,,1,1073,3.52839,-2.7001,0,759.734,29.2,
1570,1,SBT2050,2,3,,1,1077,3.527384,-2.6997,0,762.734,29.2,
1570,1,SBT2050,2,3,,1,1081,3.526,-2.6995,0,765.734,29.2,
1570,1,SBT2050,2,3,,1,1085,3.52492,-2.6997,0,768.734,29.2,
1570,1,SBT2050,2,3,,1,1089,3.524088,-2.6998,0,771.734,29.2,
1570,1,SBT2050,2,3,,1,1093,3.52277,-2.7,0,774.733,29.2,
1570,1,SBT2050,2,3,,1,1097,3.52159,-2.7,0,777.733,29.2,
1570,1,SBT2050,2,3,,1,1101,3.5205,-2.6997,0,780.733,29.2,
1570,1,SBT2050,2,3,,1,1105,3.51943,-2.7003,0,783.733,29.2,
1570,1,SBT2050,2,3,,1,1109,3.518532,-2.6997,0,786.733,29.2,
1570,1,SBT2050,2,3,,1,1113,3.51743,-2.7004,0,789.733,29.2,
1570,1,SBT2050,2,3,,1,1117,3.51614,-2.7003,0,792.733,29.2,
1570,1,SBT2050,2,3,,1,1121,3.515,-2.6997,0,795.733,29.2,
1570,1,SBT2050,2,3,,1,1125,3.51388,-2.7,0,798.733,29.2,
1570,1,SBT2050,2,3,,1,1129,3.5127,-2.7003,0,801.733,29.2,
1570,1,SBT2050,2,3,,1,1133,3.51145,-2.7,0,804.733,29.2,
1570,1,SBT2050,2,3,,1,1137,3.51031,-2.7001,0,807.733,29.2,
1570,1,SBT2050,2,3,,1,1141,3.5092,-2.6998,0,810.733,29.2,
1570,1,SBT2050,2,3,,1,1145,3.5081,-2.7,0,813.733,29.2,
1570,1,SBT2050,2,3,,1,1149,3.50688,-2.7,0,816.733,29.2,
1570,1,SBT2050,2,3,,1,1153,3.50588,-2.7,0,819.732,29.2,
1570,1,SBT2050,2,3,,1,1157,3.50465,-2.7001,0,822.732,29.2,
1570,1,SBT2050,2,3,,1,1161,3.50372,-2.6996,0,825.732,29.2,
1570,1,SBT2050,2,3,,1,1165,3.50231,-2.7,0,828.732,29.1,
1570,1,SBT2050,2,3,,1,1169,3.50126,-2.6999,0,831.732,29.2,
1570,1,SBT2050,2,3,,1,1173,3.50023,-2.6998,0,834.732,29.2,
1570,1,SBT2050,2,3,,1,1177,3.4992,-2.6996,0,837.732,29.2,
1570,1,SBT2050,2,3,,1,1181,3.49821,-2.7001,0,840.732,29.2,
1570,1,SBT2050,2,3,,1,1185,3.4969,-2.6999,0,843.732,29.2,
1570,1,SBT2050,2,3,,1,1189,3.49603,-2.6999,0,846.732,29.2,
1570,1,SBT2050,2,3,,1,1193,3.4949,-2.6999,0,849.732,29.2,
1570,1,SBT2050,2,3,,1,1197,3.49359,-2.6999,0,852.732,29.2,
1570,1,SBT2050,2,3,,1,1201,3.492598,-2.7,0,855.732,29.2,
1570,1,SBT2050,2,3,,1,1205,3.49124,-2.6999,0,858.732,29.2,
1570,1,SBT2050,2,3,,1,1209,3.49024,-2.6999,0,861.732,29.2,
1570,1,SBT2050,2,3,,1,1213,3.489118,-2.6996,0,864.732,29.2,
1570,1,SBT2050,2,3,,1,1217,3.48802,-2.7004,0,867.732,29.2,
1570,1,SBT2050,2,3,,1,1221,3.48706,-2.6998,0,870.732,29.2,
1570,1,SBT2050,2,3,,1,1225,3.48578,-2.6998,0,873.731,29.2,
1570,1,SBT2050,2,3,,1,1229,3.484744,-2.7002,0,876.731,29.2,
1570,1,SBT2050,2,3,,1,1233,3.48361,-2.7004,0,879.731,29.2,
1570,1,SBT2050,2,3,,1,1237,3.48223,-2.7002,0,882.731,29.2,
1570,1,SBT2050,2,3,,1,1241,3.48146,-2.6996,0,885.731,29.2,
1570,1,SBT2050,2,3,,1,1245,3.480404,-2.6996,0,888.731,29.2,
1570,1,SBT2050,2,3,,1,1249,3.47928,-2.6999,0,891.731,29.2,
1570,1,SBT2050,2,3,,1,1253,3.478084,-2.6999,0,894.731,29.2,
1570,1,SBT2050,2,3,,1,1257,3.47696,-2.7001,0,897.731,29.2,
1570,1,SBT2050,2,3,,1,1261,3.47609,-2.6998,0,900.731,29.2,
1570,1,SBT2050,2,3,,1,1265,3.47485,-2.6999,0,903.731,29.2,
1570,1,SBT2050,2,3,,1,1269,3.47355,-2.7,0,906.731,29.2,
1570,1,SBT2050,2,3,,1,1273,3.47273,-2.7,0,909.731,29.2,
1570,1,SBT2050,2,3,,1,1277,3.47162,-2.6998,0,912.731,29.2,
1570,1,SBT2050,2,3,,1,1281,3.47047,-2.6998,0,915.731,29.2,
1570,1,SBT2050,2,3,,1,1285,3.46933,-2.6995,0,918.731,29.2,
1570,1,SBT2050,2,3,,1,1289,3.46821,-2.7,0,921.731,29.2,
1570,1,SBT2050,2,3,,1,1293,3.466884,-2.7005,0,924.731,29.2,
1570,1,SBT2050,2,3,,1,1297,3.46569,-2.6996,0,927.731,29.2,
1570,1,SBT2050,2,3,,1,1301,3.46478,-2.6996,0,930.73,29.2,
1570,1,SBT2050,2,3,,1,1305,3.46381,-2.6998,0,933.73,29.2,
1570,1,SBT2050,2,3,,1,1309,3.462592,-2.6998,0,936.73,29.2,
1570,1,SBT2050,2,3,,1,1313,3.46165,-2.6998,0,939.73,29.2,
1570,1,SBT2050,2,3,,1,1317,3.46048,-2.6998,0,942.73,29.2,
1570,1,SBT2050,2,3,,1,1321,3.45926,-2.6999,0,945.73,29.2,
1570,1,SBT2050,2,3,,1,1325,3.45827,-2.7002,0,948.73,29.2,
1570,1,SBT2050,2,3,,1,1329,3.45702,-2.6999,0,951.73,29.2,
1570,1,SBT2050,2,3,,1,1333,3.45592,-2.6999,0,954.73,29.2,
1570,1,SBT2050,2,3,,1,1337,3.4549,-2.7002,0,957.73,29.2,
1570,1,SBT2050,2,3,,1,1341,3.453928,-2.7001,0,960.73,29.2,
1570,1,SBT2050,2,3,,1,1345,3.4527,-2.6999,0,963.73,29.2,
1570,1,SBT2050,2,3,,1,1349,3.45167,-2.6999,0,966.73,29.2,
1570,1,SBT2050,2,3,,1,1353,3.45054,-2.6998,0,969.73,29.2,
1570,1,SBT2050,2,3,,1,1357,3.449184,-2.6996,0,972.73,29.2,
1570,1,SBT2050,2,3,,1,1361,3.44842,-2.6998,0,975.729,29.2,
1570,1,SBT2050,2,3,,1,1365,3.44729,-2.7002,0,978.729,29.2,
1570,1,SBT2050,2,3,,1,1369,3.4461,-2.7001,0,981.729,29.2,
1570,1,SBT2050,2,3,,1,1373,3.44508,-2.6999,0,984.729,29.2,
1570,1,SBT2050,2,3,,1,1377,3.444322,-2.7001,0,987.729,29.2,
1570,1,SBT2050,2,3,,1,1381,3.44293,-2.6999,0,990.729,29.2,
1570,1,SBT2050,2,3,,1,1385,3.44188,-2.7004,0,993.729,29.2,
1570,1,SBT2050,2,3,,1,1389,3.44071,-2.7002,0,996.729,29.2,
1570,1,SBT2050,2,3,,1,1393,3.439658,-2.6998,0,999.729,29.2,
1570,1,SBT2050,2,3,,1,1397,3.4386,-2.6998,0,1002.729,29.2,
1570,1,SBT2050,2,3,,1,1401,3.43739,-2.6999,0,1005.729,29.2,
1570,1,SBT2050,2,3,,1,1405,3.43635,-2.6999,0,1008.729,29.2,
1570,1,SBT2050,2,3,,1,1409,3.43539,-2.6996,0,1011.729,29.2,
1570,1,SBT2050,2,3,,1,1413,3.43424,-2.6996,0,1014.729,29.2,
1570,1,SBT2050,2,3,,1,1417,3.43304,-2.6998,0,1017.728,29.2,
1570,1,SBT2050,2,3,,1,1421,3.43196,-2.7001,0,1020.728,29.2,
1570,1,SBT2050,2,3,,1,1425,3.430784,-2.7002,0,1023.728,29.2,
1570,1,SBT2050,2,3,,1,1429,3.429962,-2.6998,0,1026.728,29.2,
1570,1,SBT2050,2,3,,1,1433,3.42866,-2.6996,0,1029.728,29.2,
1570,1,SBT2050,2,3,,1,1437,3.42761,-2.7003,0,1032.728,29.2,
1570,1,SBT2050,2,3,,1,1441,3.4264,-2.7,0,1035.728,29.2,
1570,1,SBT2050,2,3,,1,1445,3.42548,-2.6998,0,1038.728,29.2,
1570,1,SBT2050,2,3,,1,1449,3.424386,-2.7,0,1041.728,29.2,
1570,1,SBT2050,2,3,,1,1453,3.42309,-2.7003,0,1044.728,29.2,
1570,1,SBT2050,2,3,,1,1457,3.42209,-2.6997,0,1047.728,29.2,
1570,1,SBT2050,2,3,,1,1461,3.42097,-2.6998,0,1050.728,29.2,
1570,1,SBT2050,2,3,,1,1465,3.42008,-2.7,0,1053.728,29.2,
1570,1,SBT2050,2,3,,1,1469,3.41896,-2.7,0,1056.728,29.2,
1570,1,SBT2050,2,3,,1,1473,3.41806,-2.6997,0,1059.727,29.2,
1570,1,SBT2050,2,3,,1,1477,3.41671,-2.6998,0,1062.727,29.2,
1570,1,SBT2050,2,3,,1,1481,3.41581,-2.7001,0,1065.727,29.2,
1570,1,SBT2050,2,3,,1,1485,3.41502,-2.7001,0,1068.727,29.2,
1570,1,SBT2050,2,3,,1,1489,3.41375,-2.6999,0,1071.727,29.2,
1570,1,SBT2050,2,3,,1,1493,3.4125,-2.7,0,1074.727,29.2,
1570,1,SBT2050,2,3,,1,1497,3.41144,-2.6998,0,1077.727,29.2,
1570,1,SBT2050,2,3,,1,1501,3.4103,-2.7003,0,1080.727,29.2,
1570,1,SBT2050,2,3,,1,1505,3.40927,-2.6995,0,1083.727,29.2,
1570,1,SBT2050,2,3,,1,1509,3.40838,-2.7003,0,1086.727,29.2,
1570,1,SBT2050,2,3,,1,1513,3.40722,-2.7001,0,1089.727,29.2,
1570,1,SBT2050,2,3,,1,1517,3.40592,-2.6997,0,1092.727,29.2,
1570,1,SBT2050,2,3,,1,1521,3.40511,-2.6997,0,1095.727,29.2,
1570,1,SBT2050,2,3,,1,1525,3.40397,-2.7,0,1098.727,29.2,
1570,1,SBT2050,2,3,,1,1529,3.40306,-2.6998,0,1101.726,29.2,
1570,1,SBT2050,2,3,,1,1533,3.40187,-2.7,0,1104.726,29.2,
1570,1,SBT2050,2,3,,1,1537,3.40067,-2.7,0,1107.726,29.2,
1570,1,SBT2050,2,3,,1,1541,3.399548,-2.6999,0,1110.726,29.2,
1570,1,SBT2050,2,3,,1,1545,3.39857,-2.7004,0,1113.726,29.2,
1570,1,SBT2050,2,3,,1,1549,3.397344,-2.7,0,1116.726,29.2,
1570,1,SBT2050,2,3,,1,1553,3.39634,-2.6999,0,1119.726,29.2,
1570,1,SBT2050,2,3,,1,1557,3.3951,-2.6998,0,1122.726,29.2,
1570,1,SBT2050,2,3,,1,1561,3.394132,-2.7002,0,1125.726,29.2,
1570,1,SBT2050,2,3,,1,1565,3.39307,-2.6995,0,1128.726,29.2,
1570,1,SBT2050,2,3,,1,1569,3.3919,-2.7002,0,1131.726,29.2,
1570,1,SBT2050,2,3,,1,1573,3.390946,-2.6995,0,1134.726,29.2,
1570,1,SBT2050,2,3,,1,1577,3.38959,-2.7002,0,1137.726,29.2,
1570,1,SBT2050,2,3,,1,1581,3.38861,-2.7001,0,1140.726,29.3,
1570,1,SBT2050,2,3,,1,1585,3.387388,-2.6999,0,1143.726,29.3,
1570,1,SBT2050,2,3,,1,1589,3.38635,-2.6997,0,1146.726,29.2,
1570,1,SBT2050,2,3,,1,1593,3.385318,-2.6999,0,1149.726,29.3,
1570,1,SBT2050,2,3,,1,1597,3.38433,-2.6999,0,1152.726,29.3,
1570,1,SBT2050,2,3,,1,1601,3.38315,-2.6999,0,1155.726,29.3,
1570,1,SBT2050,2,3,,1,1605,3.38228,-2.6994,0,1158.726,29.2,
1570,1,SBT2050,2,3,,1,1609,3.38128,-2.7001,0,1161.726,29.2,
1570,1,SBT2050,2,3,,1,1613,3.38009,-2.7003,0,1164.726,29.3,
1570,1,SBT2050,2,3,,1,1617,3.37916,-2.6999,0,1167.725,29.2,
1570,1,SBT2050,2,3,,1,1621,3.37783,-2.6998,0,1170.725,29.2,
1570,1,SBT2050,2,3,,1,1625,3.37681,-2.6998,0,1173.725,29.2,
1570,1,SBT2050,2,3,,1,1629,3.37583,-2.6999,0,1176.725,29.2,
1570,1,SBT2050,2,3,,1,1633,3.37467,-2.7001,0,1179.725,29.2,
1570,1,SBT2050,2,3,,1,1637,3.373834,-2.7,0,1182.725,29.3,
1570,1,SBT2050,2,3,,1,1641,3.37237,-2.7002,0,1185.725,29.3,
1570,1,SBT2050,2,3,,1,1645,3.37121,-2.7003,0,1188.725,29.3,
1570,1,SBT2050,2,3,,1,1649,3.37033,-2.7,0,1191.725,29.3,
1570,1,SBT2050,2,3,,1,1653,3.36919,-2.7001,0,1194.725,29.3,
1570,1,SBT2050,2,3,,1,1657,3.36828,-2.6997,0,1197.725,29.2,
1570,1,SBT2050,2,3,,1,1661,3.36713,-2.7001,0,1200.725,29.2,
1570,1,SBT2050,2,3,,1,1665,3.3658,-2.7002,0,1203.725,29.3,
1570,1,SBT2050,2,3,,1,1669,3.36468,-2.6998,0,1206.725,29.3,
1570,1,SBT2050,2,3,,1,1673,3.36374,-2.7001,0,1209.725,29.3,
1570,1,SBT2050,2,3,,1,1677,3.362558,-2.6999,0,1212.725,29.3,
1570,1,SBT2050,2,3,,1,1681,3.36164,-2.6999,0,1215.724,29.3,
1570,1,SBT2050,2,3,,1,1685,3.36062,-2.6999,0,1218.724,29.3,
1570,1,SBT2050,2,3,,1,1689,3.35939,-2.6996,0,1221.724,29.3,
1570,1,SBT2050,2,3,,1,1693,3.35824,-2.7001,0,1224.724,29.3,
1570,1,SBT2050,2,3,,1,1697,3.35722,-2.6997,0,1227.724,29.3,
1570,1,SBT2050,2,3,,1,1701,3.3562,-2.7003,0,1230.724,29.3,
1570,1,SBT2050,2,3,,1,1705,3.355,-2.6997,0,1233.724,29.3,
1570,1,SBT2050,2,3,,1,1709,3.35407,-2.7,0,1236.724,29.3,
1570,1,SBT2050,2,3,,1,1713,3.35292,-2.6998,0,1239.724,29.3,
1570,1,SBT2050,2,3,,1,1717,3.35173,-2.6999,0,1242.724,29.3,
1570,1,SBT2050,2,3,,1,1721,3.35064,-2.7001,0,1245.724,29.3,
1570,1,SBT2050,2,3,,1,1725,3.34973,-2.6998,0,1248.724,29.3,
1570,1,SBT2050,2,3,,1,1729,3.34865,-2.6998,0,1251.724,29.3,
1570,1,SBT2050,2,3,,1,1733,3.34762,-2.6999,0,1254.724,29.3,
1570,1,SBT2050,2,3,,1,1737,3.34633,-2.7001,0,1257.724,29.3,
1570,1,SBT2050,2,3,,1,1741,3.34538,-2.6997,0,1260.724,29.3,
1570,1,SBT2050,2,3,,1,1745,3.34418,-2.6999,0,1263.724,29.3,
1570,1,SBT2050,2,3,,1,1749,3.342844,-2.7002,0,1266.723,29.3,
1570,1,SBT2050,2,3,,1,1753,3.34204,-2.7,0,1269.723,29.3,
1570,1,SBT2050,2,3,,1,1757,3.34081,-2.6997,0,1272.723,29.3,
1570,1,SBT2050,2,3,,1,1761,3.3398,-2.7001,0,1275.723,29.3,
1570,1,SBT2050,2,3,,1,1765,3.33883,-2.6999,0,1278.723,29.3,
1570,1,SBT2050,2,3,,1,1769,3.337552,-2.7001,0,1281.723,29.3,
1570,1,SBT2050,2,3,,1,1773,3.33644,-2.7004,0,1284.723,29.3,
1570,1,SBT2050,2,3,,1,1777,3.335365,-2.6999,0,1287.723,29.3,
1570,1,SBT2050,2,3,,1,1781,3.33399,-2.7002,0,1290.723,29.3,
1570,1,SBT2050,2,3,,1,1785,3.33312,-2.7004,0,1293.723,29.3,
1570,1,SBT2050,2,3,,1,1789,3.33197,-2.6996,0,1296.723,29.3,
1570,1,SBT2050,2,3,,1,1793,3.33095,-2.7,0,1299.723,29.4,
1570,1,SBT2050,2,3,,1,1797,3.32975,-2.6998,0,1302.723,29.4,
1570,1,SBT2050,2,3,,1,1801,3.32863,-2.6997,0,1305.723,29.3,
1570,1,SBT2050,2,3,,1,1805,3.327372,-2.6995,0,1308.723,29.3,
1570,1,SBT2050,2,3,,1,1809,3.32628,-2.6997,0,1311.723,29.4,
1570,1,SBT2050,2,3,,1,1813,3.325051,-2.6997,0,1314.722,29.4,
1570,1,SBT2050,2,3,,1,1817,3.324098,-2.6994,0,1317.722,29.4,
1570,1,SBT2050,2,3,,1,1821,3.32295,-2.7,0,1320.722,29.4,
1570,1,SBT2050,2,3,,1,1825,3.32189,-2.6998,0,1323.722,29.4,
1570,1,SBT2050,2,3,,1,1829,3.32086,-2.7003,0,1326.722,29.4,
1570,1,SBT2050,2,3,,1,1833,3.31955,-2.6997,0,1329.722,29.4,
1570,1,SBT2050,2,3,,1,1837,3.31863,-2.6997,0,1332.722,29.4,
1570,1,SBT2050,2,3,,1,1841,3.3175,-2.6997,0,1335.722,29.4,
1570,1,SBT2050,2,3,,1,1845,3.31634,-2.7003,0,1338.722,29.4,
1570,1,SBT2050,2,3,,1,1849,3.3151,-2.7005,0,1341.722,29.4,
1570,1,SBT2050,2,3,,1,1853,3.3139,-2.6995,0,1344.722,29.4,
1570,1,SBT2050,2,3,,1,1857,3.312784,-2.7,0,1347.722,29.4,
1570,1,SBT2050,2,3,,1,1861,3.31177,-2.7001,0,1350.722,29.4,
1570,1,SBT2050,2,3,,1,1865,3.310578,-2.7003,0,1353.722,29.4,
1570,1,SBT2050,2,3,,1,1869,3.30932,-2.7001,0,1356.721,29.4,
1570,1,SBT2050,2,3,,1,1873,3.30823,-2.6997,0,1359.721,29.4,
1570,1,SBT2050,2,3,,1,1877,3.30716,-2.6999,0,1362.721,29.4,
1570,1,SBT2050,2,3,,1,1881,3.30592,-2.7,0,1365.721,29.4,
1570,1,SBT2050,2,3,,1,1885,3.30466,-2.7002,0,1368.721,29.4,
1570,1,SBT2050,2,3,,1,1889,3.30341,-2.7002,0,1371.721,29.4,
1570,1,SBT2050,2,3,,1,1893,3.302322,-2.7002,0,1374.721,29.4,
1570,1,SBT2050,2,3,,1,1897,3.30098,-2.6997,0,1377.721,29.4,
1570,1,SBT2050,2,3,,1,1901,3.30002,-2.6999,0,1380.721,29.5,
1570,1,SBT2050,2,3,,1,1905,3.29895,-2.6996,0,1383.721,29.5,
1570,1,SBT2050,2,3,,1,1909,3.2976,-2.6999,0,1386.721,29.5,
1570,1,SBT2050,2,3,,1,1913,3.29642,-2.7003,0,1389.721,29.5,
1570,1,SBT2050,2,3,,1,1917,3.29529,-2.6999,0,1392.721,29.5,
1570,1,SBT2050,2,3,,1,1921,3.29408,-2.7003,0,1395.721,29.5,
1570,1,SBT2050,2,3,,1,1925,3.29307,-2.7005,0,1398.721,29.5,
1570,1,SBT2050,2,3,,1,1929,3.291663,-2.6999,0,1401.721,29.5,
1570,1,SBT2050,2,3,,1,1933,3.29049,-2.6998,0,1404.721,29.5,
1570,1,SBT2050,2,3,,1,1937,3.2893,-2.6999,0,1407.721,29.5,
1570,1,SBT2050,2,3,,1,1941,3.288022,-2.6997,0,1410.721,29.5,
1570,1,SBT2050,2,3,,1,1945,3.28681,-2.6999,0,1413.721,29.5,
1570,1,SBT2050,2,3,,1,1949,3.28578,-2.7001,0,1416.721,29.5,
1570,1,SBT2050,2,3,,1,1953,3.28449,-2.6999,0,1419.72,29.5,
1570,1,SBT2050,2,3,,1,1957,3.28346,-2.6996,0,1422.72,29.5,
1570,1,SBT2050,2,3,,1,1961,3.28221,-2.6999,0,1425.72,29.5,
1570,1,SBT2050,2,3,,1,1965,3.28099,-2.7002,0,1428.72,29.6,
1570,1,SBT2050,2,3,,1,1969,3.27965,-2.6999,0,1431.72,29.6,
1570,1,SBT2050,2,3,,1,1973,3.27844,-2.6998,0,1434.72,29.6,
1570,1,SBT2050,2,3,,1,1977,3.27734,-2.6995,0,1437.72,29.6,
1570,1,SBT2050,2,3,,1,1981,3.27603,-2.7,0,1440.72,29.6,
1570,1,SBT2050,2,3,,1,1985,3.27476,-2.7003,0,1443.72,29.6,
1570,1,SBT2050,2,3,,1,1989,3.273642,-2.7001,0,1446.72,29.6,
1570,1,SBT2050,2,3,,1,1993,3.272594,-2.7,0,1449.72,29.6,
1570,1,SBT2050,2,3,,1,1997,3.27134,-2.7003,0,1452.72,29.6,
1570,1,SBT2050,2,3,,1,2001,3.27004,-2.7,0,1455.72,29.6,
1570,1,SBT2050,2,3,,1,2005,3.26887,-2.6997,0,1458.72,29.6,
1570,1,SBT2050,2,3,,1,2009,3.26756,-2.7001,0,1461.72,29.6,
1570,1,SBT2050,2,3,,1,2013,3.266273,-2.7,0,1464.719,29.6,
1570,1,SBT2050,2,3,,1,2017,3.26511,-2.6997,0,1467.719,29.6,
1570,1,SBT2050,2,3,,1,2021,3.26385,-2.6997,0,1470.719,29.6,
1570,1,SBT2050,2,3,,1,2025,3.26266,-2.7001,0,1473.719,29.6,
1570,1,SBT2050,2,3,,1,2029,3.261397,-2.6998,0,1476.719,29.6,
1570,1,SBT2050,2,3,,1,2033,3.26008,-2.7002,0,1479.719,29.6,
1570,1,SBT2050,2,3,,1,2037,3.258724,-2.6996,0,1482.719,29.7,
1570,1,SBT2050,2,3,,1,2041,3.25753,-2.7005,0,1485.719,29.7,
1570,1,SBT2050,2,3,,1,2045,3.25623,-2.6999,0,1488.719,29.7,
1570,1,SBT2050,2,3,,1,2049,3.25504,-2.6999,0,1491.719,29.7,
1570,1,SBT2050,2,3,,1,2053,3.25378,-2.6999,0,1494.719,29.7,
1570,1,SBT2050,2,3,,1,2057,3.25258,-2.6999,0,1497.719,29.7,
1570,1,SBT2050,2,3,,1,2061,3.25111,-2.7002,0,1500.719,29.7,
1570,1,SBT2050,2,3,,1,2065,3.24996,-2.6998,0,1503.719,29.7,
1570,1,SBT2050,2,3,,1,2069,3.248744,-2.6997,0,1506.719,29.7,
1570,1,SBT2050,2,3,,1,2073,3.24739,-2.7003,0,1509.719,29.7,
1570,1,SBT2050,2,3,,1,2077,3.246091,-2.6998,0,1512.719,29.7,
1570,1,SBT2050,2,3,,1,2081,3.24497,-2.6998,0,1515.719,29.7,
1570,1,SBT2050,2,3,,1,2085,3.2436,-2.7002,0,1518.719,29.7,
1570,1,SBT2050,2,3,,1,2089,3.24228,-2.6999,0,1521.719,29.7,
1570,1,SBT2050,2,3,,1,2093,3.24077,-2.7001,0,1524.719,29.7,
1570,1,SBT2050,2,3,,1,2097,3.23946,-2.6999,0,1527.718,29.7,
1570,1,SBT2050,2,3,,1,2101,3.23816,-2.6999,0,1530.718,29.7,
1570,1,SBT2050,2,3,,1,2105,3.23698,-2.7002,0,1533.718,29.8,
1570,1,SBT2050,2,3,,1,2109,3.23551,-2.6997,0,1536.718,29.8,
1570,1,SBT2050,2,3,,1,2113,3.23405,-2.6996,0,1539.718,29.8,
1570,1,SBT2050,2,3,,1,2117,3.232795,-2.7001,0,1542.718,29.8,
1570,1,SBT2050,2,3,,1,2121,3.23139,-2.7004,0,1545.718,29.8,
1570,1,SBT2050,2,3,,1,2125,3.23003,-2.7001,0,1548.718,29.8,
1570,1,SBT2050,2,3,,1,2129,3.228671,-2.6998,0,1551.718,29.8,
1570,1,SBT2050,2,3,,1,2133,3.22731,-2.6998,0,1554.718,29.8,
1570,1,SBT2050,2,3,,1,2137,3.22593,-2.6998,0,1557.718,29.8,
1570,1,SBT2050,2,3,,1,2141,3.22465,-2.7,0,1560.718,29.9,
1570,1,SBT2050,2,3,,1,2145,3.22337,-2.6997,0,1563.718,29.8,
1570,1,SBT2050,2,3,,1,2149,3.221923,-2.6995,0,1566.718,29.8,
1570,1,SBT2050,2,3,,1,2153,3.22056,-2.6992,0,1569.718,29.8,
1570,1,SBT2050,2,3,,1,2157,3.21891,-2.6999,0,1572.718,29.9,
1570,1,SBT2050,2,3,,1,2161,3.21782,-2.7004,0,1575.718,29.8,
1570,1,SBT2050,2,3,,1,2165,3.21623,-2.6998,0,1578.718,29.9,
1570,1,SBT2050,2,3,,1,2169,3.21482,-2.7001,0,1581.718,29.9,
1570,1,SBT2050,2,3,,1,2173,3.213271,-2.7001,0,1584.717,29.9,
1570,1,SBT2050,2,3,,1,2177,3.21166,-2.6994,0,1587.717,29.9,
1570,1,SBT2050,2,3,,1,2181,3.210404,-2.6999,0,1590.717,29.9,
1570,1,SBT2050,2,3,,1,2185,3.20886,-2.7001,0,1593.717,29.9,
1570,1,SBT2050,2,3,,1,2189,3.207457,-2.7001,0,1596.717,29.9,
1570,1,SBT2050,2,3,,1,2193,3.20569,-2.6999,0,1599.717,29.9,
1570,1,SBT2050,2,3,,1,2197,3.2044,-2.6999,0,1602.717,29.9,
1570,1,SBT2050,2,3,,1,2201,3.20303,-2.6999,0,1605.717,29.9,
1570,1,SBT2050,2,3,,1,2205,3.20152,-2.7001,0,1608.717,29.9,
1570,1,SBT2050,2,3,,1,2209,3.20006,-2.6998,0,1611.717,29.9,
1570,1,SBT2050,2,3,,1,2213,3.1987,-2.6999,0,1614.717,29.9,
1570,1,SBT2050,2,3,,1,2217,3.19723,-2.6996,0,1617.717,30,
1570,1,SBT2050,2,3,,1,2221,3.19588,-2.6999,0,1620.717,30,
1570,1,SBT2050,2,3,,1,2225,3.19422,-2.6998,0,1623.717,30,
1570,1,SBT2050,2,3,,1,2229,3.19256,-2.7001,0,1626.717,30,
1570,1,SBT2050,2,3,,1,2233,3.19127,-2.6998,0,1629.717,30.1,
1570,1,SBT2050,2,3,,1,2237,3.18975,-2.7001,0,1632.717,30.1,
1570,1,SBT2050,2,3,,1,2241,3.18806,-2.6996,0,1635.717,30.1,
1570,1,SBT2050,2,3,,1,2245,3.18671,-2.6997,0,1638.717,30.1,
1570,1,SBT2050,2,3,,1,2249,3.18518,-2.7001,0,1641.717,30.1,
1570,1,SBT2050,2,3,,1,2253,3.183709,-2.6998,0,1644.717,30.1,
1570,1,SBT2050,2,3,,1,2257,3.18194,-2.7001,0,1647.717,30.1,
1570,1,SBT2050,2,3,,1,2261,3.18039,-2.7001,0,1650.717,30.1,
1570,1,SBT2050,2,3,,1,2265,3.17889,-2.6999,0,1653.716,30.1,
1570,1,SBT2050,2,3,,1,2269,3.17705,-2.6994,0,1656.716,30.1,
1570,1,SBT2050,2,3,,1,2273,3.17552,-2.6998,0,1659.716,30.1,
1570,1,SBT2050,2,3,,1,2277,3.17407,-2.7001,0,1662.716,30.1,
1570,1,SBT2050,2,3,,1,2281,3.172431,-2.7001,0,1665.716,30.2,
1570,1,SBT2050,2,3,,1,2285,3.17075,-2.6998,0,1668.716,30.2,
1570,1,SBT2050,2,3,,1,2289,3.168881,-2.7,0,1671.716,30.2,
1570,1,SBT2050,2,3,,1,2293,3.16756,-2.6997,0,1674.716,30.2,
1570,1,SBT2050,2,3,,1,2297,3.166024,-2.6997,0,1677.716,30.2,
1570,1,SBT2050,2,3,,1,2301,3.16419,-2.6998,0,1680.716,30.2,
1570,1,SBT2050,2,3,,1,2305,3.16234,-2.7001,0,1683.716,30.2,
1570,1,SBT2050,2,3,,1,2309,3.16106,-2.7001,0,1686.716,30.2,
1570,1,SBT2050,2,3,,1,2313,3.15913,-2.6999,0,1689.716,30.3,
1570,1,SBT2050,2,3,,1,2317,3.15766,-2.7001,0,1692.716,30.3,
1570,1,SBT2050,2,3,,1,2321,3.15582,-2.6995,0,1695.716,30.3,
1570,1,SBT2050,2,3,,1,2325,3.15412,-2.6997,0,1698.716,30.3,
1570,1,SBT2050,2,3,,1,2329,3.15238,-2.6998,0,1701.716,30.3,
1570,1,SBT2050,2,3,,1,2333,3.15075,-2.6995,0,1704.715,30.3,
1570,1,SBT2050,2,3,,1,2337,3.14879,-2.6998,0,1707.715,30.3,
1570,1,SBT2050,2,3,,1,2341,3.147274,-2.7,0,1710.715,30.3,
1570,1,SBT2050,2,3,,1,2345,3.14549,-2.7,0,1713.715,30.3,
1570,1,SBT2050,2,3,,1,2349,3.14368,-2.7,0,1716.715,30.3,
1570,1,SBT2050,2,3,,1,2353,3.14177,-2.7001,0,1719.715,30.3,
1570,1,SBT2050,2,3,,1,2357,3.14006,-2.7,0,1722.715,30.4,
1570,1,SBT2050,2,3,,1,2361,3.13822,-2.6997,0,1725.715,30.4,
1570,1,SBT2050,2,3,,1,2365,3.13649,-2.7,0,1728.715,30.4,
1570,1,SBT2050,2,3,,1,2369,3.13448,-2.7001,0,1731.715,30.4,
1570,1,SBT2050,2,3,,1,2373,3.13286,-2.6998,0,1734.715,30.4,
1570,1,SBT2050,2,3,,1,2377,3.130633,-2.6998,0,1737.715,30.4,
1570,1,SBT2050,2,3,,1,2381,3.12902,-2.6998,0,1740.715,30.4,
1570,1,SBT2050,2,3,,1,2385,3.12726,-2.7002,0,1743.715,30.4,
1570,1,SBT2050,2,3,,1,2389,3.12539,-2.6998,0,1746.715,30.4,
1570,1,SBT2050,2,3,,1,2393,3.12326,-2.6996,0,1749.715,30.4,
1570,1,SBT2050,2,3,,1,2397,3.121244,-2.6995,0,1752.714,30.5,
1570,1,SBT2050,2,3,,1,2401,3.119639,-2.6995,0,1755.714,30.4,
1570,1,SBT2050,2,3,,1,2405,3.11732,-2.7002,0,1758.714,30.4,
1570,1,SBT2050,2,3,,1,2409,3.1154,-2.6995,0,1761.714,30.4,
1570,1,SBT2050,2,3,,1,2413,3.11348,-2.6997,0,1764.714,30.4,
1570,1,SBT2050,2,3,,1,2417,3.11146,-2.7001,0,1767.714,30.5,
1570,1,SBT2050,2,3,,1,2421,3.10951,-2.6997,0,1770.714,30.5,
1570,1,SBT2050,2,3,,1,2425,3.10747,-2.6997,0,1773.714,30.5,
1570,1,SBT2050,2,3,,1,2429,3.10548,-2.6997,0,1776.714,30.5,
1570,1,SBT2050,2,3,,1,2433,3.10332,-2.7,0,1779.714,30.5,
1570,1,SBT2050,2,3,,1,2437,3.10133,-2.7003,0,1782.714,30.5,
1570,1,SBT2050,2,3,,1,2441,3.09931,-2.7,0,1785.714,30.6,
1570,1,SBT2050,2,3,,1,2445,3.09711,-2.7,0,1788.714,30.6,
1570,1,SBT2050,2,3,,1,2449,3.09523,-2.7,0,1791.714,30.6,
1570,1,SBT2050,2,3,,1,2453,3.09301,-2.6997,0,1794.714,30.6,
1570,1,SBT2050,2,3,,1,2457,3.091086,-2.7001,0,1797.713,30.6,
1570,1,SBT2050,2,3,,1,2461,3.08885,-2.7003,0,1800.713,30.6,
1570,1,SBT2050,2,3,,1,2465,3.08682,-2.7,0,1803.713,30.7,
1570,1,SBT2050,2,3,,1,2469,3.08456,-2.7002,0,1806.713,30.7,
1570,1,SBT2050,2,3,,1,2473,3.08237,-2.6997,0,1809.713,30.7,
1570,1,SBT2050,2,3,,1,2477,3.08041,-2.6998,0,1812.713,30.7,
1570,1,SBT2050,2,3,,1,2481,3.078319,-2.7003,0,1815.713,30.7,
1570,1,SBT2050,2,3,,1,2485,3.07616,-2.6998,0,1818.713,30.7,
1570,1,SBT2050,2,3,,1,2489,3.07356,-2.6998,0,1821.713,30.7,
1570,1,SBT2050,2,3,,1,2493,3.0714,-2.6995,0,1824.713,30.8,
1570,1,SBT2050,2,3,,1,2497,3.0692,-2.6998,0,1827.713,30.8,
1570,1,SBT2050,2,3,,1,2501,3.06682,-2.7,0,1830.713,30.8,
1570,1,SBT2050,2,3,,1,2505,3.06452,-2.6997,0,1833.713,30.8,
1570,1,SBT2050,2,3,,1,2509,3.06225,-2.7001,0,1836.713,30.8,
1570,1,SBT2050,2,3,,1,2513,3.06032,-2.7,0,1839.713,30.8,
1570,1,SBT2050,2,3,,1,2517,3.05769,-2.7,0,1842.712,30.8,
1570,1,SBT2050,2,3,,1,2521,3.05537,-2.6998,0,1845.712,30.9,
1570,1,SBT2050,2,3,,1,2525,3.05303,-2.6998,0,1848.712,30.9,
1570,1,SBT2050,2,3,,1,2529,3.05071,-2.6999,0,1851.712,30.9,
1570,1,SBT2050,2,3,,1,2533,3.04819,-2.6999,0,1854.712,30.9,
1570,1,SBT2050,2,3,,1,2537,3.04569,-2.7001,0,1857.712,30.9,
1570,1,SBT2050,2,3,,1,2541,3.04343,-2.6998,0,1860.712,30.9,
1570,1,SBT2050,2,3,,1,2545,3.04099,-2.7001,0,1863.712,31,
1570,1,SBT2050,2,3,,1,2549,3.03852,-2.7004,0,1866.712,31,
1570,1,SBT2050,2,3,,1,2553,3.03591,-2.6998,0,1869.712,31,
1570,1,SBT2050,2,3,,1,2557,3.03349,-2.6998,0,1872.712,31,
1570,1,SBT2050,2,3,,1,2561,3.03094,-2.6997,0,1875.712,31,
1570,1,SBT2050,2,3,,1,2565,3.02831,-2.6998,0,1878.712,31.1,
1570,1,SBT2050,2,3,,1,2569,3.02585,-2.6997,0,1881.712,31.1,
1570,1,SBT2050,2,3,,1,2573,3.02327,-2.7001,0,1884.712,31.1,
1570,1,SBT2050,2,3,,1,2577,3.0207,-2.7003,0,1887.712,31.1,
1570,1,SBT2050,2,3,,1,2581,3.018041,-2.7,0,1890.712,31.1,
1570,1,SBT2050,2,3,,1,2585,3.01543,-2.6998,0,1893.712,31.2,
1570,1,SBT2050,2,3,,1,2589,3.01274,-2.7,0,1896.712,31.2,
1570,1,SBT2050,2,3,,1,2593,3.01009,-2.7,0,1899.712,31.2,
1570,1,SBT2050,2,3,,1,2597,3.0071,-2.7007,0,1902.711,31.2,
1570,1,SBT2050,2,3,,1,2601,3.00482,-2.7001,0,1905.711,31.2,
1570,1,SBT2050,2,3,,1,2605,3.00187,-2.6999,0,1908.711,31.2,
1570,1,SBT2050,2,3,,1,2609,2.99902,-2.7001,0,1911.711,31.3,
1570,1,SBT2050,2,3,,1,2613,2.99636,-2.7004,0,1914.711,31.3,
1570,1,SBT2050,2,3,,1,2617,2.99353,-2.6996,0,1917.711,31.3,
1570,1,SBT2050,2,3,,1,2621,2.99075,-2.6998,0,1920.711,31.3,
1570,1,SBT2050,2,3,,1,2625,2.98759,-2.6999,0,1923.711,31.3,
1570,1,SBT2050,2,3,,1,2629,2.98477,-2.6996,0,1926.711,31.4,
1570,1,SBT2050,2,3,,1,2633,2.98186,-2.6999,0,1929.711,31.4,
1570,1,SBT2050,2,3,,1,2637,2.978976,-2.6999,0,1932.711,31.4,
1570,1,SBT2050,2,3,,1,2641,2.97593,-2.7002,0,1935.711,31.5,
1570,1,SBT2050,2,3,,1,2645,2.97278,-2.7002,0,1938.711,31.5,
1570,1,SBT2050,2,3,,1,2649,2.969879,-2.7001,0,1941.711,31.5,
1570,1,SBT2050,2,3,,1,2653,2.96668,-2.7001,0,1944.711,31.5,
1570,1,SBT2050,2,3,,1,2657,2.963585,-2.6999,0,1947.711,31.5,
1570,1,SBT2050,2,3,,1,2661,2.960584,-2.6999,0,1950.711,31.6,
1570,1,SBT2050,2,3,,1,2665,2.95728,-2.7001,0,1953.711,31.5,
1570,1,SBT2050,2,3,,1,2669,2.95389,-2.7001,0,1956.711,31.6,
1570,1,SBT2050,2,3,,1,2673,2.95038,-2.7002,0,1959.711,31.6,
1570,1,SBT2050,2,3,,1,2677,2.94704,-2.7001,0,1962.711,31.6,
1570,1,SBT2050,2,3,,1,2681,2.94367,-2.6999,0,1965.711,31.6,
1570,1,SBT2050,2,3,,1,2685,2.94027,-2.7004,0,1968.711,31.7,
1570,1,SBT2050,2,3,,1,2689,2.936786,-2.7,0,1971.711,31.7,
1570,1,SBT2050,2,3,,1,2693,2.933317,-2.6998,0,1974.71,31.7,
1570,1,SBT2050,2,3,,1,2697,2.929692,-2.7001,0,1977.71,31.7,
1570,1,SBT2050,2,3,,1,2701,2.926286,-2.6997,0,1980.71,31.7,
1570,1,SBT2050,2,3,,1,2705,2.922548,-2.7,0,1983.71,31.8,
1570,1,SBT2050,2,3,,1,2709,2.9188,-2.7001,0,1986.71,31.8,
1570,1,SBT2050,2,3,,1,2713,2.91521,-2.7,0,1989.71,31.8,
1570,1,SBT2050,2,3,,1,2717,2.91151,-2.6998,0,1992.71,31.8,
1570,1,SBT2050,2,3,,1,2721,2.90764,-2.7,0,1995.71,31.8,
1570,1,SBT2050,2,3,,1,2725,2.90377,-2.7002,0,1998.71,31.9,
1570,1,SBT2050,2,3,,1,2729,2.899819,-2.6998,0,2001.71,31.9,
1570,1,SBT2050,2,3,,1,2733,2.89572,-2.6996,0,2004.71,31.9,
1570,1,SBT2050,2,3,,1,2737,2.891643,-2.6994,0,2007.71,31.9,
1570,1,SBT2050,2,3,,1,2741,2.887499,-2.7001,0,2010.71,32,
1570,1,SBT2050,2,3,,1,2745,2.883538,-2.7002,0,2013.71,32,
1570,1,SBT2050,2,3,,1,2749,2.87883,-2.7001,0,2016.71,32,
1570,1,SBT2050,2,3,,1,2753,2.87464,-2.7001,0,2019.709,32,
1570,1,SBT2050,2,3,,1,2757,2.87034,-2.6993,0,2022.709,32,
1570,1,SBT2050,2,3,,1,2761,2.86576,-2.7,0,2025.709,32.1,
1570,1,SBT2050,2,3,,1,2765,2.86134,-2.6998,0,2028.709,32.1,
1570,1,SBT2050,2,3,,1,2769,2.85655,-2.7002,0,2031.709,32.2,
1570,1,SBT2050,2,3,,1,2773,2.85188,-2.7002,0,2034.709,32.2,
1570,1,SBT2050,2,3,,1,2777,2.8469,-2.7001,0,2037.709,32.2,
1570,1,SBT2050,2,3,,1,2781,2.84225,-2.7001,0,2040.709,32.2,
1570,1,SBT2050,2,3,,1,2785,2.837441,-2.7002,0,2043.709,32.2,
1570,1,SBT2050,2,3,,1,2789,2.83222,-2.6997,0,2046.709,32.3,
1570,1,SBT2050,2,3,,1,2793,2.82703,-2.6997,0,2049.709,32.3,
1570,1,SBT2050,2,3,,1,2797,2.82167,-2.6998,0,2052.709,32.4,
1570,1,SBT2050,2,3,,1,2801,2.816226,-2.6998,0,2055.709,32.4,
1570,1,SBT2050,2,3,,1,2805,2.8108,-2.7001,0,2058.709,32.4,
1570,1,SBT2050,2,3,,1,2809,2.805172,-2.7,0,2061.709,32.4,
1570,1,SBT2050,2,3,,1,2813,2.79924,-2.7004,0,2064.709,32.5,
1570,1,SBT2050,2,3,,1,2817,2.79378,-2.7,0,2067.709,32.5,
1570,1,SBT2050,2,3,,1,2821,2.78786,-2.7002,0,2070.708,32.6,
1570,1,SBT2050,2,3,,1,2825,2.78166,-2.6999,0,2073.708,32.6,
1570,1,SBT2050,2,3,,1,2829,2.77541,-2.6999,0,2076.708,32.6,
1570,1,SBT2050,2,3,,1,2833,2.768984,-2.6999,0,2079.708,32.7,
1570,1,SBT2050,2,3,,1,2837,2.76286,-2.6998,0,2082.708,32.7,
1570,1,SBT2050,2,3,,1,2841,2.75622,-2.6998,0,2085.708,32.8,
1570,1,SBT2050,2,3,,1,2845,2.74943,-2.6996,0,2088.708,32.8,
1570,1,SBT2050,2,3,,1,2849,2.74278,-2.6999,0,2091.708,32.8,
1570,1,SBT2050,2,3,,1,2853,2.73577,-2.6997,0,2094.708,32.9,
1570,1,SBT2050,2,3,,1,2857,2.72855,-2.6999,0,2097.708,32.9,
1570,1,SBT2050,2,3,,1,2861,2.721218,-2.7003,0,2100.708,33,
1570,1,SBT2050,2,3,,1,2865,2.7138,-2.7,0,2103.708,33,
1570,1,SBT2050,2,3,,1,2869,2.70596,-2.6998,0,2106.708,33,
1570,1,SBT2050,2,3,,1,2873,2.69837,-2.7,0,2109.708,33.1,
1570,1,SBT2050,2,3,,1,2877,2.69046,-2.6998,0,2112.708,33.1,
1570,1,SBT2050,2,3,,1,2881,2.68236,-2.7,0,2115.708,33.2,
1570,1,SBT2050,2,3,,1,2885,2.6739,-2.6998,0,2118.707,33.3,
1570,1,SBT2050,2,3,,1,2889,2.66534,-2.7,0,2121.707,33.3,
1570,1,SBT2050,2,3,,1,2893,2.65652,-2.7,0,2124.707,33.3,
1570,1,SBT2050,2,3,,1,2897,2.64731,-2.7003,0,2127.707,33.4,
1570,1,SBT2050,2,3,,1,2901,2.637908,-2.6998,0,2130.707,33.4,
1570,1,SBT2050,2,3,,1,2905,2.62828,-2.6995,0,2133.707,33.5,
1570,1,SBT2050,2,3,,1,2909,2.61851,-2.7001,0,2136.707,33.5,
1570,1,SBT2050,2,3,,1,2913,2.60866,-2.6998,0,2139.707,33.6,
1570,1,SBT2050,2,3,,1,2917,2.598205,-2.6995,0,2142.707,33.7,
1570,1,SBT2050,2,3,,1,2921,2.58749,-2.6996,0,2145.707,33.8,
1570,1,SBT2050,2,3,,1,2925,2.576234,-2.7001,0,2148.707,33.8,
1570,1,SBT2050,2,3,,1,2929,2.56486,-2.6997,0,2151.707,33.8,
1570,1,SBT2050,2,3,,1,2933,2.55283,-2.7001,0,2154.707,33.9,
1570,1,SBT2050,2,3,,1,2937,2.54047,-2.6999,0,2157.707,34,
1570,1,SBT2050,2,3,,1,2941,2.52774,-2.7004,0,2160.707,34,
1570,1,SBT2050,2,3,,1,2945,2.51424,-2.7002,0,2163.707,34.1,
1570,1,SBT2050,2,3,,1,2949,2.50057,-2.6999,0,2166.707,34.2,
1570,1,SBT2050,2,3,,2,2952,2.940428,0,0,2166.812,34.3,
1570,1,SBT2050,2,3,,2,2956,3.07902,0,0,2166.812,34.3,
1570,1,SBT2050,2,3,,2,2960,3.13423,0,0,2166.812,34.2,
1570,1,SBT2050,2,3,,2,2964,3.16557,0,0,2166.812,34.2,
1570,1,SBT2050,2,3,,2,2968,3.18711,0,0,2166.812,34.1,
1570,1,SBT2050,2,3,,2,2972,3.20351,0,0,2166.812,33.9,
1570,1,SBT2050,2,3,,2,2976,3.216853,0,0,2166.812,33.8,
1570,1,SBT2050,2,3,,2,2980,3.228209,0,0,2166.812,33.8,
1570,1,SBT2050,2,3,,2,2984,3.237734,0,0,2166.812,33.6,
1570,1,SBT2050,2,3,,2,2988,3.24597,0,0,2166.812,33.5,
1570,1,SBT2050,2,3,,2,2992,3.25362,0,0,2166.812,33.4,
1570,1,SBT2050,2,3,,2,2996,3.26013,0,0,2166.812,33.3,
1570,1,SBT2050,2,3,,2,3000,3.26618,0,0,2166.812,33.2,
1570,1,SBT2050,2,3,,2,3004,3.27188,0,0,2166.812,33.1,
1570,1,SBT2050,2,3,,2,3008,3.27669,0,0,2166.812,32.9,
1570,1,SBT2050,2,3,,2,3009.139,3.27745,-9.9E-05,0,2166.812,,