File: ORRG/Test1587.csv
Request Year:,2018,,,,,,,,,,,,
Test:,1587,,,,,,,,,,,,
Test Description:,,,,,,,,,,,,,
TestRegime Name:,Dchg_1C,,,,,,,,,,,,
TestRegime Suffix:,SHP_LC,,,,,,,,,,,,
TestRegime CellSize:,18650,,,,,,,,,,,,
TestRegime Version:,1,,,,,,,,,,,,
Number Of Cells:,1,,,,,,,,,,,,
LotID:,,,,,,,,,,,,,
Lot Description:,,,,,,,,,,,,,
Date Made:,1/21/2003 12:00 AM,,,,,,,,,,,,
Origin:,Other,,,,,,,,,,,,
Requestor:,Admin,,,,,,,,,,,,
Product ID:,Default product,,,,,,,,,,,,
Storage Temp:,R.T./AMB,,,,,,,,,,,,
Storage Delay:,0 days,,,,,,,,,,,,
Test Temp:,R.T./AMB,,,,,,,,,,,,
Start Time:,5/3/2018 4:46 AM,,,,,,,,,,,,
End Time:,5/3/2018 5:31 AM,,,,,,,,,,,,
Operator Instructions:,,,,,,,,,,,,,
Test,Cell,Rack,Shelf,Position,Cell ID,Step,Total Time (Seconds),Voltage (V),Current (A),Charge Capacity (mAh),Discharge Capacity (mAh),TC1 (Â°C),
1587,1,SBT2050,2,3,,0,1,3.97917,0,0,0,25.8,
1587,1,SBT2050,2,3,,0,5,3.97914,0,0,0,25.8,
1587,1,SBT2050,2,3,,0,9,3.97922,0,0,0,25.8,
1587,1,SBT2050,2,3,,0,13,3.97921,0,0,0,25.8,
1587,1,SBT2050,2,3,,0,17,3.9792,0,0,0,25.8,
1587,1,SBT2050,2,3,,0,21,3.97924,0,0,0,25.8,
1587,1,SBT2050,2,3,,0,25,3.97916,0,0,0,25.8,
1587,1,SBT2050,2,3,,0,29,3.97928,0,0,0,25.8,
1587,1,SBT2050,2,3,,0,33,3.97925,0,0,0,25.8,
1587,1,SBT2050,2,3,,0,37,3.97929,0,0,0,25.8,
1587,1,SBT2050,2,3,,0,41,3.97903,0,0,0,25.8,
1587,1,SBT2050,2,3,,0,45,3.979426,0,0,0,25.8,
1587,1,SBT2050,2,3,,0,49,3.97913,0,0,0,25.8,
1587,1,SBT2050,2,3,,0,53,3.97901,0,0,0,25.8,
1587,1,SBT2050,2,3,,0,57,3.979182,0,0,0,25.8,
1587,1,SBT2050,2,3,,1,61,3.80878,-2.7004,0,0.749,25.8,
1587,1,SBT2050,2,3,,1,65,3.78559,-2.7004,0,3.749,25.8,
1587,1,SBT2050,2,3,,1,69,3.772238,-2.7001,0,6.749,25.9,
1587,1,SBT2050,2,3,,1,73,3.76227,-2.7004,0,9.749,25.9,
1587,1,SBT2050,2,3,,1,77,3.75407,-2.7001,0,12.749,25.9,
1587,1,SBT2050,2,3,,1,81,3.74751,-2.6998,0,15.749,26,
1587,1,SBT2050,2,3,,1,85,3.74166,-2.7001,0,18.748,26,
1587,1,SBT2050,2,3,,1,89,3.73656,-2.7002,0,21.748,26.1,
1587,1,SBT2050,2,3,,1,93,3.73211,-2.7002,0,24.748,26.1,
1587,1,SBT2050,2,3,,1,97,3.72783,-2.6996,0,27.748,26.1,
1587,1,SBT2050,2,3,,1,101,3.72424,-2.7004,0,30.748,26.2,
1587,1,SBT2050,2,3,,1,105,3.72054,-2.6999,0,33.748,26.2,
1587,1,SBT2050,2,3,,1,109,3.71779,-2.6999,0,36.748,26.3,
1587,1,SBT2050,2,3,,1,113,3.71453,-2.6999,0,39.748,26.4,
1587,1,SBT2050,2,3,,1,117,3.71188,-2.7002,0,42.748,26.4,
1587,1,SBT2050,2,3,,1,121,3.709226,-2.7004,0,45.748,26.4,
1587,1,SBT2050,2,3,,1,125,3.70686,-2.6999,0,48.748,26.5,
1587,1,SBT2050,2,3,,1,129,3.70458,-2.7002,0,51.748,26.5,
1587,1,SBT2050,2,3,,1,133,3.70211,-2.6996,0,54.748,26.6,
1587,1,SBT2050,2,3,,1,137,3.70006,-2.7001,0,57.748,26.6,
1587,1,SBT2050,2,3,,1,141,3.69845,-2.6994,0,60.748,26.6,
1587,1,SBT2050,2,3,,1,145,3.69628,-2.6998,0,63.748,26.7,
1587,1,SBT2050,2,3,,1,149,3.694442,-2.6997,0,66.748,26.7,
1587,1,SBT2050,2,3,,1,153,3.69271,-2.6998,0,69.748,26.8,
1587,1,SBT2050,2,3,,1,157,3.69128,-2.6997,0,72.747,26.8,
1587,1,SBT2050,2,3,,1,161,3.68933,-2.6999,0,75.747,26.8,
1587,1,SBT2050,2,3,,1,165,3.687838,-2.7001,0,78.747,26.9,
1587,1,SBT2050,2,3,,1,169,3.68628,-2.7001,0,81.747,26.9,
1587,1,SBT2050,2,3,,1,173,3.68466,-2.6998,0,84.747,27,
1587,1,SBT2050,2,3,,1,177,3.68308,-2.6996,0,87.747,27,
1587,1,SBT2050,2,3,,1,181,3.68207,-2.7001,0,90.747,27,
1587,1,SBT2050,2,3,,1,185,3.68064,-2.6999,0,93.747,27.1,
1587,1,SBT2050,2,3,,1,189,3.67936,-2.7004,0,96.747,27.1,
1587,1,SBT2050,2,3,,1,193,3.67793,-2.6995,0,99.747,27.2,
1587,1,SBT2050,2,3,,1,197,3.67669,-2.7002,0,102.747,27.2,
1587,1,SBT2050,2,3,,1,201,3.675546,-2.7001,0,105.747,27.2,
1587,1,SBT2050,2,3,,1,205,3.67408,-2.7001,0,108.747,27.3,
1587,1,SBT2050,2,3,,1,209,3.67317,-2.6998,0,111.747,27.3,
1587,1,SBT2050,2,3,,1,213,3.67181,-2.7001,0,114.747,27.4,
1587,1,SBT2050,2,3,,1,217,3.67064,-2.7001,0,117.746,27.4,
1587,1,SBT2050,2,3,,1,221,3.66943,-2.6996,0,120.746,27.4,
1587,1,SBT2050,2,3,,1,225,3.66803,-2.7001,0,123.746,27.4,
1587,1,SBT2050,2,3,,1,229,3.66685,-2.6998,0,126.746,27.5,
1587,1,SBT2050,2,3,,1,233,3.66548,-2.6999,0,129.746,27.5,
1587,1,SBT2050,2,3,,1,237,3.66449,-2.7,0,132.746,27.5,
1587,1,SBT2050,2,3,,1,241,3.66346,-2.6997,0,135.746,27.6,
1587,1,SBT2050,2,3,,1,245,3.66229,-2.6999,0,138.746,27.6,
1587,1,SBT2050,2,3,,1,249,3.66121,-2.6997,0,141.746,27.6,
1587,1,SBT2050,2,3,,1,253,3.66006,-2.7,0,144.746,27.6,
1587,1,SBT2050,2,3,,1,257,3.65896,-2.7,0,147.746,27.7,
1587,1,SBT2050,2,3,,1,261,3.65767,-2.6997,0,150.746,27.7,
1587,1,SBT2050,2,3,,1,265,3.656986,-2.6999,0,153.746,27.7,
1587,1,SBT2050,2,3,,1,269,3.6557,-2.7003,0,156.746,27.7,
1587,1,SBT2050,2,3,,1,273,3.65475,-2.6999,0,159.746,27.8,
1587,1,SBT2050,2,3,,1,277,3.65334,-2.6999,0,162.746,27.8,
1587,1,SBT2050,2,3,,1,281,3.65281,-2.7002,0,165.746,27.8,
1587,1,SBT2050,2,3,,1,285,3.65133,-2.6998,0,168.746,27.9,
1587,1,SBT2050,2,3,,1,289,3.65058,-2.6998,0,171.745,27.9,
1587,1,SBT2050,2,3,,1,293,3.64931,-2.7001,0,174.745,27.9,
1587,1,SBT2050,2,3,,1,297,3.64854,-2.7002,0,177.745,27.9,
1587,1,SBT2050,2,3,,1,301,3.64758,-2.7001,0,180.745,27.9,
1587,1,SBT2050,2,3,,1,305,3.64625,-2.6996,0,183.745,28,
1587,1,SBT2050,2,3,,1,309,3.64517,-2.7002,0,186.745,28,
1587,1,SBT2050,2,3,,1,313,3.64428,-2.7001,0,189.745,28,
1587,1,SBT2050,2,3,,1,317,3.64338,-2.7001,0,192.745,28,
1587,1,SBT2050,2,3,,1,321,3.64233,-2.7001,0,195.745,28,
1587,1,SBT2050,2,3,,1,325,3.64116,-2.7001,0,198.745,28.1,
1587,1,SBT2050,2,3,,1,329,3.64021,-2.6999,0,201.745,28.1,
1587,1,SBT2050,2,3,,1,333,3.63923,-2.6999,0,204.745,28.1,
1587,1,SBT2050,2,3,,1,337,3.63829,-2.7002,0,207.745,28.2,
1587,1,SBT2050,2,3,,1,341,3.637364,-2.7,0,210.745,28.2,
1587,1,SBT2050,2,3,,1,345,3.63626,-2.6999,0,213.745,28.2,
1587,1,SBT2050,2,3,,1,349,3.63505,-2.7002,0,216.745,28.2,
1587,1,SBT2050,2,3,,1,353,3.63429,-2.7002,0,219.744,28.2,
1587,1,SBT2050,2,3,,1,357,3.633122,-2.6999,0,222.744,28.2,
1587,1,SBT2050,2,3,,1,361,3.632106,-2.6996,0,225.744,28.3,
1587,1,SBT2050,2,3,,1,365,3.63111,-2.6999,0,228.744,28.3,
1587,1,SBT2050,2,3,,1,369,3.63034,-2.6998,0,231.744,28.3,
1587,1,SBT2050,2,3,,1,373,3.62912,-2.6999,0,234.744,28.3,
1587,1,SBT2050,2,3,,1,377,3.62828,-2.7001,0,237.744,28.3,
1587,1,SBT2050,2,3,,1,381,3.62711,-2.6999,0,240.744,28.4,
1587,1,SBT2050,2,3,,1,385,3.626016,-2.7003,0,243.744,28.4,
1587,1,SBT2050,2,3,,1,389,3.62508,-2.6999,0,246.744,28.4,
1587,1,SBT2050,2,3,,1,393,3.62422,-2.6996,0,249.744,28.4,
1587,1,SBT2050,2,3,,1,397,3.62328,-2.6999,0,252.744,28.4,
1587,1,SBT2050,2,3,,1,401,3.62196,-2.6998,0,255.744,28.4,
1587,1,SBT2050,2,3,,1,405,3.62134,-2.6996,0,258.744,28.5,
1587,1,SBT2050,2,3,,1,409,3.62037,-2.7002,0,261.744,28.5,
1587,1,SBT2050,2,3,,1,413,3.61931,-2.7004,0,264.744,28.5,
1587,1,SBT2050,2,3,,1,417,3.61851,-2.6999,0,267.744,28.5,
1587,1,SBT2050,2,3,,1,421,3.61731,-2.6996,0,270.743,28.5,
1587,1,SBT2050,2,3,,1,425,3.61625,-2.7001,0,273.743,28.5,
1587,1,SBT2050,2,3,,1,429,3.61527,-2.6999,0,276.743,28.5,
1587,1,SBT2050,2,3,,1,433,3.61427,-2.6999,0,279.743,28.5,
1587,1,SBT2050,2,3,,1,437,3.61351,-2.7,0,282.743,28.6,
1587,1,SBT2050,2,3,,1,441,3.61243,-2.7001,0,285.743,28.6,
1587,1,SBT2050,2,3,,1,445,3.61129,-2.7001,0,288.743,28.6,
1587,1,SBT2050,2,3,,1,449,3.610464,-2.6999,0,291.743,28.6,
1587,1,SBT2050,2,3,,1,453,3.60938,-2.7005,0,294.743,28.6,
1587,1,SBT2050,2,3,,1,457,3.608388,-2.7004,0,297.743,28.6,
1587,1,SBT2050,2,3,,1,461,3.60734,-2.7001,0,300.743,28.6,
1587,1,SBT2050,2,3,,1,465,3.60625,-2.6999,0,303.743,28.7,
1587,1,SBT2050,2,3,,1,469,3.60563,-2.6999,0,306.743,28.7,
1587,1,SBT2050,2,3,,1,473,3.604524,-2.6999,0,309.743,28.7,
1587,1,SBT2050,2,3,,1,477,3.60364,-2.6995,0,312.743,28.7,
1587,1,SBT2050,2,3,,1,481,3.60286,-2.6999,0,315.743,28.7,
1587,1,SBT2050,2,3,,1,485,3.60154,-2.7002,0,318.742,28.7,
1587,1,SBT2050,2,3,,1,489,3.60057,-2.7003,0,321.742,28.7,
1587,1,SBT2050,2,3,,1,493,3.599466,-2.7002,0,324.742,28.7,
1587,1,SBT2050,2,3,,1,497,3.59844,-2.7002,0,327.742,28.7,
1587,1,SBT2050,2,3,,1,501,3.59763,-2.7002,0,330.742,28.8,
1587,1,SBT2050,2,3,,1,505,3.5965,-2.7,0,333.742,28.8,
1587,1,SBT2050,2,3,,1,509,3.59574,-2.6998,0,336.742,28.8,
1587,1,SBT2050,2,3,,1,513,3.594616,-2.6998,0,339.742,28.8,
1587,1,SBT2050,2,3,,1,517,3.593754,-2.6998,0,342.742,28.8,
1587,1,SBT2050,2,3,,1,521,3.592718,-2.6997,0,345.742,28.8,
1587,1,SBT2050,2,3,,1,525,3.59157,-2.6998,0,348.742,28.8,
1587,1,SBT2050,2,3,,1,529,3.59058,-2.6997,0,351.742,28.8,
1587,1,SBT2050,2,3,,1,533,3.58958,-2.7001,0,354.742,28.8,
1587,1,SBT2050,2,3,,1,537,3.58855,-2.6994,0,357.742,28.8,
1587,1,SBT2050,2,3,,1,541,3.58779,-2.7002,0,360.742,28.8,
1587,1,SBT2050,2,3,,1,545,3.58664,-2.6999,0,363.741,28.9,
1587,1,SBT2050,2,3,,1,549,3.58538,-2.6999,0,366.741,28.9,
1587,1,SBT2050,2,3,,1,553,3.58462,-2.6998,0,369.741,28.9,
1587,1,SBT2050,2,3,,1,557,3.583548,-2.6998,0,372.741,28.9,
1587,1,SBT2050,2,3,,1,561,3.58286,-2.7001,0,375.741,28.9,
1587,1,SBT2050,2,3,,1,565,3.58154,-2.7004,0,378.741,28.9,
1587,1,SBT2050,2,3,,1,569,3.58054,-2.6998,0,381.741,28.9,
1587,1,SBT2050,2,3,,1,573,3.579814,-2.6999,0,384.741,28.9,
1587,1,SBT2050,2,3,,1,577,3.57865,-2.6999,0,387.741,28.9,
1587,1,SBT2050,2,3,,1,581,3.57744,-2.7001,0,390.741,28.9,
1587,1,SBT2050,2,3,,1,585,3.57654,-2.7001,0,393.741,29,
1587,1,SBT2050,2,3,,1,589,3.57548,-2.7001,0,396.741,29,
1587,1,SBT2050,2,3,,1,593,3.57422,-2.6999,0,399.741,29,
1587,1,SBT2050,2,3,,1,597,3.57332,-2.6998,0,402.741,29,
1587,1,SBT2050,2,3,,1,601,3.57223,-2.7001,0,405.741,29,
1587,1,SBT2050,2,3,,1,605,3.57121,-2.6999,0,408.741,29,
1587,1,SBT2050,2,3,,1,609,3.57038,-2.7001,0,411.74,29,
1587,1,SBT2050,2,3,,1,613,3.56942,-2.7002,0,414.74,29,
1587,1,SBT2050,2,3,,1,617,3.56806,-2.7,0,417.74,29,
1587,1,SBT2050,2,3,,1,621,3.56719,-2.6998,0,420.74,29,
1587,1,SBT2050,2,3,,1,625,3.56616,-2.7001,0,423.74,29,
1587,1,SBT2050,2,3,,1,629,3.56517,-2.6995,0,426.74,29,
1587,1,SBT2050,2,3,,1,633,3.56428,-2.7001,0,429.74,29,
1587,1,SBT2050,2,3,,1,637,3.5633,-2.7001,0,432.74,29.1,
1587,1,SBT2050,2,3,,1,641,3.562134,-2.6998,0,435.74,29.1,
1587,1,SBT2050,2,3,,1,645,3.56103,-2.6996,0,438.74,29.1,
1587,1,SBT2050,2,3,,1,649,3.56005,-2.6999,0,441.74,29.1,
1587,1,SBT2050,2,3,,1,653,3.55899,-2.6997,0,444.74,29.1,
1587,1,SBT2050,2,3,,1,657,3.55826,-2.7002,0,447.74,29.1,
1587,1,SBT2050,2,3,,1,661,3.55696,-2.7002,0,450.74,29.1,
1587,1,SBT2050,2,3,,1,665,3.556018,-2.7002,0,453.74,29.1,
1587,1,SBT2050,2,3,,1,669,3.555098,-2.7003,0,456.74,29.1,
1587,1,SBT2050,2,3,,1,673,3.55405,-2.6994,0,459.739,29.1,
1587,1,SBT2050,2,3,,1,677,3.55274,-2.6999,0,462.739,29.1,
1587,1,SBT2050,2,3,,1,681,3.55195,-2.7005,0,465.739,29.1,
1587,1,SBT2050,2,3,,1,685,3.55075,-2.6999,0,468.739,29.2,
1587,1,SBT2050,2,3,,1,689,3.54945,-2.7002,0,471.739,29.2,
1587,1,SBT2050,2,3,,1,693,3.54847,-2.6999,0,474.739,29.2,
1587,1,SBT2050,2,3,,1,697,3.54752,-2.6999,0,477.739,29.2,
1587,1,SBT2050,2,3,,1,701,3.54653,-2.7,0,480.739,29.2,
1587,1,SBT2050,2,3,,1,705,3.54545,-2.6997,0,483.739,29.2,
1587,1,SBT2050,2,3,,1,709,3.54436,-2.6996,0,486.739,29.2,
1587,1,SBT2050,2,3,,1,713,3.54311,-2.6994,0,489.739,29.2,
1587,1,SBT2050,2,3,,1,717,3.54213,-2.7,0,492.739,29.2,
1587,1,SBT2050,2,3,,1,721,3.54106,-2.7,0,495.739,29.2,
1587,1,SBT2050,2,3,,1,725,3.53991,-2.7003,0,498.739,29.2,
1587,1,SBT2050,2,3,,1,729,3.53896,-2.7002,0,501.739,29.2,
1587,1,SBT2050,2,3,,1,733,3.53785,-2.7002,0,504.739,29.2,
1587,1,SBT2050,2,3,,1,737,3.536952,-2.7,0,507.739,29.2,
1587,1,SBT2050,2,3,,1,741,3.535848,-2.7,0,510.738,29.2,
1587,1,SBT2050,2,3,,1,745,3.5346,-2.7002,0,513.738,29.2,
1587,1,SBT2050,2,3,,1,749,3.533496,-2.6998,0,516.738,29.2,
1587,1,SBT2050,2,3,,1,753,3.53257,-2.6998,0,519.738,29.2,
1587,1,SBT2050,2,3,,1,757,3.53161,-2.7001,0,522.738,29.2,
1587,1,SBT2050,2,3,,1,761,3.53043,-2.6998,0,525.738,29.2,
1587,1,SBT2050,2,3,,1,765,3.52937,-2.7001,0,528.738,29.2,
1587,1,SBT2050,2,3,,1,769,3.52843,-2.7,0,531.738,29.2,
1587,1,SBT2050,2,3,,1,773,3.5272,-2.6999,0,534.738,29.2,
1587,1,SBT2050,2,3,,1,777,3.52603,-2.6999,0,537.738,29.2,
1587,1,SBT2050,2,3,,1,781,3.52479,-2.6998,0,540.738,29.3,
1587,1,SBT2050,2,3,,1,785,3.52382,-2.7001,0,543.738,29.3,
1587,1,SBT2050,2,3,,1,789,3.52283,-2.7002,0,546.738,29.2,
1587,1,SBT2050,2,3,,1,793,3.52166,-2.7001,0,549.738,29.2,
1587,1,SBT2050,2,3,,1,797,3.520658,-2.7001,0,552.738,29.2,
1587,1,SBT2050,2,3,,1,801,3.51955,-2.6999,0,555.738,29.3,
1587,1,SBT2050,2,3,,1,805,3.51845,-2.7003,0,558.738,29.3,
1587,1,SBT2050,2,3,,1,809,3.517488,-2.7,0,561.738,29.3,
1587,1,SBT2050,2,3,,1,813,3.51637,-2.6999,0,564.738,29.3,
1587,1,SBT2050,2,3,,1,817,3.51556,-2.6998,0,567.737,29.3,
1587,1,SBT2050,2,3,,1,821,3.51446,-2.6999,0,570.737,29.3,
1587,1,SBT2050,2,3,,1,825,3.513012,-2.6999,0,573.737,29.3,
1587,1,SBT2050,2,3,,1,829,3.512122,-2.7005,0,576.737,29.3,
1587,1,SBT2050,2,3,,1,833,3.51121,-2.7003,0,579.737,29.3,
1587,1,SBT2050,2,3,,1,837,3.51014,-2.7,0,582.737,29.3,
1587,1,SBT2050,2,3,,1,841,3.5089,-2.7002,0,585.737,29.3,
1587,1,SBT2050,2,3,,1,845,3.50776,-2.6999,0,588.737,29.3,
1587,1,SBT2050,2,3,,1,849,3.50718,-2.6996,0,591.737,29.3,
1587,1,SBT2050,2,3,,1,853,3.50575,-2.6996,0,594.737,29.3,
1587,1,SBT2050,2,3,,1,857,3.5048,-2.6998,0,597.737,29.3,
1587,1,SBT2050,2,3,,1,861,3.503828,-2.6999,0,600.737,29.3,
1587,1,SBT2050,2,3,,1,865,3.50243,-2.6999,0,603.737,29.3,
1587,1,SBT2050,2,3,,1,869,3.50153,-2.7001,0,606.737,29.3,
1587,1,SBT2050,2,3,,1,873,3.5004,-2.7003,0,609.737,29.3,
1587,1,SBT2050,2,3,,1,877,3.49946,-2.6999,0,612.737,29.4,
1587,1,SBT2050,2,3,,1,881,3.49845,-2.7003,0,615.737,29.3,
1587,1,SBT2050,2,3,,1,885,3.49725,-2.6999,0,618.737,29.3,
1587,1,SBT2050,2,3,,1,889,3.495984,-2.6999,0,621.736,29.4,
1587,1,SBT2050,2,3,,1,893,3.49494,-2.6998,0,624.736,29.4,
1587,1,SBT2050,2,3,,1,897,3.4939,-2.6999,0,627.736,29.4,
1587,1,SBT2050,2,3,,1,901,3.49274,-2.7001,0,630.736,29.4,
1587,1,SBT2050,2,3,,1,905,3.49162,-2.7004,0,633.736,29.4,
1587,1,SBT2050,2,3,,1,909,3.49068,-2.6999,0,636.736,29.4,
1587,1,SBT2050,2,3,,1,913,3.48968,-2.6999,0,639.736,29.4,
1587,1,SBT2050,2,3,,1,917,3.48865,-2.7002,0,642.736,29.4,
1587,1,SBT2050,2,3,,1,921,3.48733,-2.6998,0,645.736,29.4,
1587,1,SBT2050,2,3,,1,925,3.48618,-2.6996,0,648.736,29.4,
1587,1,SBT2050,2,3,,1,929,3.485156,-2.6996,0,651.736,29.4,
1587,1,SBT2050,2,3,,1,933,3.4839,-2.6998,0,654.736,29.4,
1587,1,SBT2050,2,3,,1,937,3.48291,-2.7002,0,657.736,29.4,
1587,1,SBT2050,2,3,,1,941,3.48195,-2.6999,0,660.736,29.4,
1587,1,SBT2050,2,3,,1,945,3.480704,-2.7002,0,663.735,29.4,
1587,1,SBT2050,2,3,,1,949,3.47988,-2.6997,0,666.735,29.4,
1587,1,SBT2050,2,3,,1,953,3.4786,-2.7,0,669.735,29.4,
1587,1,SBT2050,2,3,,1,957,3.47771,-2.7,0,672.735,29.4,
1587,1,SBT2050,2,3,,1,961,3.47659,-2.7002,0,675.735,29.4,
1587,1,SBT2050,2,3,,1,965,3.475336,-2.6998,0,678.735,29.4,
1587,1,SBT2050,2,3,,1,969,3.47441,-2.7001,0,681.735,29.4,
1587,1,SBT2050,2,3,,1,973,3.473264,-2.6995,0,684.735,29.4,
1587,1,SBT2050,2,3,,1,977,3.47224,-2.6998,0,687.735,29.4,
1587,1,SBT2050,2,3,,1,981,3.47125,-2.6999,0,690.735,29.4,
1587,1,SBT2050,2,3,,1,985,3.47007,-2.6998,0,693.735,29.4,
1587,1,SBT2050,2,3,,1,989,3.46897,-2.6999,0,696.735,29.4,
1587,1,SBT2050,2,3,,1,993,3.4679,-2.6998,0,699.735,29.4,
1587,1,SBT2050,2,3,,1,997,3.46682,-2.6998,0,702.735,29.4,
1587,1,SBT2050,2,3,,1,1001,3.465824,-2.7002,0,705.735,29.4,
1587,1,SBT2050,2,3,,1,1005,3.464846,-2.7002,0,708.735,29.4,
1587,1,SBT2050,2,3,,1,1009,3.463526,-2.6999,0,711.734,29.4,
1587,1,SBT2050,2,3,,1,1013,3.462692,-2.7002,0,714.734,29.4,
1587,1,SBT2050,2,3,,1,1017,3.46145,-2.6999,0,717.734,29.4,
1587,1,SBT2050,2,3,,1,1021,3.46012,-2.7,0,720.734,29.4,
1587,1,SBT2050,2,3,,1,1025,3.45925,-2.6999,0,723.734,29.4,
1587,1,SBT2050,2,3,,1,1029,3.45821,-2.7002,0,726.734,29.4,
1587,1,SBT2050,2,3,,1,1033,3.45715,-2.6999,0,729.734,29.4,
1587,1,SBT2050,2,3,,1,1037,3.45597,-2.7002,0,732.734,29.4,
1587,1,SBT2050,2,3,,1,1041,3.45506,-2.7,0,735.734,29.4,
1587,1,SBT2050,2,3,,1,1045,3.45393,-2.6996,0,738.734,29.4,
1587,1,SBT2050,2,3,,1,1049,3.45255,-2.6999,0,741.734,29.4,
1587,1,SBT2050,2,3,,1,1053,3.451682,-2.7004,0,744.734,29.4,
1587,1,SBT2050,2,3,,1,1057,3.45059,-2.7002,0,747.734,29.4,
1587,1,SBT2050,2,3,,1,1061,3.449544,-2.6997,0,750.734,29.4,
1587,1,SBT2050,2,3,,1,1065,3.448324,-2.7002,0,753.734,29.5,
1587,1,SBT2050,2,3,,1,1069,3.44719,-2.6996,0,756.734,29.5,
1587,1,SBT2050,2,3,,1,1073,3.44617,-2.7,0,759.733,29.5,
1587,1,SBT2050,2,3,,1,1077,3.445348,-2.7,0,762.733,29.5,
1587,1,SBT2050,2,3,,1,1081,3.44414,-2.6997,0,765.733,29.5,
1587,1,SBT2050,2,3,,1,1085,3.44317,-2.6997,0,768.733,29.5,
1587,1,SBT2050,2,3,,1,1089,3.44188,-2.6999,0,771.733,29.5,
1587,1,SBT2050,2,3,,1,1093,3.4408,-2.7003,0,774.733,29.5,
1587,1,SBT2050,2,3,,1,1097,3.43969,-2.7,0,777.733,29.5,
1587,1,SBT2050,2,3,,1,1101,3.43892,-2.6999,0,780.733,29.5,
1587,1,SBT2050,2,3,,1,1105,3.43794,-2.6999,0,783.733,29.5,
1587,1,SBT2050,2,3,,1,1109,3.436656,-2.7,0,786.733,29.5,
1587,1,SBT2050,2,3,,1,1113,3.43538,-2.7,0,789.733,29.5,
1587,1,SBT2050,2,3,,1,1117,3.43458,-2.6998,0,792.733,29.5,
1587,1,SBT2050,2,3,,1,1121,3.433514,-2.7002,0,795.733,29.5,
1587,1,SBT2050,2,3,,1,1125,3.43225,-2.6998,0,798.733,29.5,
1587,1,SBT2050,2,3,,1,1129,3.43132,-2.6995,0,801.733,29.5,
1587,1,SBT2050,2,3,,1,1133,3.43023,-2.7001,0,804.733,29.5,
1587,1,SBT2050,2,3,,1,1137,3.42922,-2.7,0,807.733,29.5,
1587,1,SBT2050,2,3,,1,1141,3.42823,-2.6996,0,810.733,29.5,
1587,1,SBT2050,2,3,,1,1145,3.427016,-2.6998,0,813.733,29.5,
1587,1,SBT2050,2,3,,1,1149,3.425886,-2.6998,0,816.733,29.5,
1587,1,SBT2050,2,3,,1,1153,3.42502,-2.7001,0,819.733,29.5,
1587,1,SBT2050,2,3,,1,1157,3.42387,-2.7,0,822.733,29.5,
1587,1,SBT2050,2,3,,1,1161,3.42297,-2.6997,0,825.732,29.5,
1587,1,SBT2050,2,3,,1,1165,3.42206,-2.7,0,828.732,29.5,
1587,1,SBT2050,2,3,,1,1169,3.42092,-2.7,0,831.732,29.5,
1587,1,SBT2050,2,3,,1,1173,3.419546,-2.6999,0,834.732,29.5,
1587,1,SBT2050,2,3,,1,1177,3.418838,-2.6999,0,837.732,29.5,
1587,1,SBT2050,2,3,,1,1181,3.41764,-2.7004,0,840.732,29.5,
1587,1,SBT2050,2,3,,1,1185,3.41663,-2.7001,0,843.732,29.5,
1587,1,SBT2050,2,3,,1,1189,3.415582,-2.7,0,846.732,29.6,
1587,1,SBT2050,2,3,,1,1193,3.4144,-2.7001,0,849.732,29.6,
1587,1,SBT2050,2,3,,1,1197,3.41362,-2.6998,0,852.732,29.6,
1587,1,SBT2050,2,3,,1,1201,3.41262,-2.7,0,855.732,29.6,
1587,1,SBT2050,2,3,,1,1205,3.41127,-2.6998,0,858.732,29.6,
1587,1,SBT2050,2,3,,1,1209,3.41041,-2.6998,0,861.732,29.5,
1587,1,SBT2050,2,3,,1,1213,3.40907,-2.7001,0,864.732,29.6,
1587,1,SBT2050,2,3,,1,1217,3.408132,-2.6999,0,867.732,29.6,
1587,1,SBT2050,2,3,,1,1221,3.40701,-2.7001,0,870.732,29.6,
1587,1,SBT2050,2,3,,1,1225,3.40589,-2.7,0,873.732,29.6,
1587,1,SBT2050,2,3,,1,1229,3.40489,-2.7,0,876.731,29.6,
1587,1,SBT2050,2,3,,1,1233,3.40407,-2.7,0,879.731,29.6,
1587,1,SBT2050,2,3,,1,1237,3.40289,-2.7,0,882.731,29.6,
1587,1,SBT2050,2,3,,1,1241,3.40198,-2.6999,0,885.731,29.6,
1587,1,SBT2050,2,3,,1,1245,3.40078,-2.6999,0,888.731,29.6,
1587,1,SBT2050,2,3,,1,1249,3.39991,-2.7003,0,891.731,29.6,
1587,1,SBT2050,2,3,,1,1253,3.398712,-2.7002,0,894.731,29.6,
1587,1,SBT2050,2,3,,1,1257,3.3976,-2.6999,0,897.731,29.6,
1587,1,SBT2050,2,3,,1,1261,3.39693,-2.6996,0,900.731,29.6,
1587,1,SBT2050,2,3,,1,1265,3.39559,-2.7002,0,903.731,29.6,
1587,1,SBT2050,2,3,,1,1269,3.39449,-2.6997,0,906.731,29.6,
1587,1,SBT2050,2,3,,1,1273,3.39344,-2.7,0,909.731,29.6,
1587,1,SBT2050,2,3,,1,1277,3.3926,-2.7003,0,912.731,29.6,
1587,1,SBT2050,2,3,,1,1281,3.3913,-2.7003,0,915.731,29.6,
1587,1,SBT2050,2,3,,1,1285,3.39035,-2.7,0,918.731,29.6,
1587,1,SBT2050,2,3,,1,1289,3.38939,-2.7,0,921.731,29.6,
1587,1,SBT2050,2,3,,1,1293,3.38833,-2.7,0,924.731,29.6,
1587,1,SBT2050,2,3,,1,1297,3.38701,-2.6998,0,927.731,29.6,
1587,1,SBT2050,2,3,,1,1301,3.38627,-2.7,0,930.73,29.6,
1587,1,SBT2050,2,3,,1,1305,3.38497,-2.6998,0,933.73,29.6,
1587,1,SBT2050,2,3,,1,1309,3.38402,-2.7,0,936.73,29.6,
1587,1,SBT2050,2,3,,1,1313,3.38312,-2.7003,0,939.73,29.6,
1587,1,SBT2050,2,3,,1,1317,3.381944,-2.7004,0,942.73,29.6,
1587,1,SBT2050,2,3,,1,1321,3.38071,-2.6998,0,945.73,29.6,
1587,1,SBT2050,2,3,,1,1325,3.379788,-2.6995,0,948.73,29.6,
1587,1,SBT2050,2,3,,1,1329,3.37873,-2.7001,0,951.73,29.6,
1587,1,SBT2050,2,3,,1,1333,3.37748,-2.6999,0,954.73,29.6,
1587,1,SBT2050,2,3,,1,1337,3.376828,-2.6999,0,957.73,29.7,
1587,1,SBT2050,2,3,,1,1341,3.375502,-2.7,0,960.73,29.6,
1587,1,SBT2050,2,3,,1,1345,3.374374,-2.7,0,963.73,29.6,
1587,1,SBT2050,2,3,,1,1349,3.37321,-2.7,0,966.73,29.6,
1587,1,SBT2050,2,3,,1,1353,3.3723,-2.6998,0,969.73,29.6,
1587,1,SBT2050,2,3,,1,1357,3.3714,-2.7003,0,972.73,29.6,
1587,1,SBT2050,2,3,,1,1361,3.37021,-2.7001,0,975.73,29.6,
1587,1,SBT2050,2,3,,1,1365,3.36908,-2.6999,0,978.73,29.6,
1587,1,SBT2050,2,3,,1,1369,3.3683,-2.7003,0,981.73,29.6,
1587,1,SBT2050,2,3,,1,1373,3.366924,-2.6998,0,984.73,29.7,
1587,1,SBT2050,2,3,,1,1377,3.36576,-2.7,0,987.73,29.6,
1587,1,SBT2050,2,3,,1,1381,3.3649,-2.7003,0,990.73,29.6,
1587,1,SBT2050,2,3,,1,1385,3.3638,-2.6998,0,993.73,29.6,
1587,1,SBT2050,2,3,,1,1389,3.3626,-2.6998,0,996.729,29.7,
1587,1,SBT2050,2,3,,1,1393,3.36173,-2.7,0,999.729,29.7,
1587,1,SBT2050,2,3,,1,1397,3.36053,-2.7001,0,1002.729,29.7,
1587,1,SBT2050,2,3,,1,1401,3.35954,-2.7,0,1005.729,29.7,
1587,1,SBT2050,2,3,,1,1405,3.35837,-2.7,0,1008.729,29.7,
1587,1,SBT2050,2,3,,1,1409,3.35739,-2.6997,0,1011.729,29.7,
1587,1,SBT2050,2,3,,1,1413,3.356084,-2.6998,0,1014.729,29.7,
1587,1,SBT2050,2,3,,1,1417,3.35534,-2.7002,0,1017.729,29.7,
1587,1,SBT2050,2,3,,1,1421,3.3539,-2.6999,0,1020.729,29.7,
1587,1,SBT2050,2,3,,1,1425,3.35288,-2.7001,0,1023.729,29.7,
1587,1,SBT2050,2,3,,1,1429,3.351959,-2.7,0,1026.729,29.7,
1587,1,SBT2050,2,3,,1,1433,3.35097,-2.7,0,1029.729,29.7,
1587,1,SBT2050,2,3,,1,1437,3.34976,-2.7,0,1032.729,29.8,
1587,1,SBT2050,2,3,,1,1441,3.34868,-2.6998,0,1035.729,29.7,
1587,1,SBT2050,2,3,,1,1445,3.34765,-2.7,0,1038.729,29.7,
1587,1,SBT2050,2,3,,1,1449,3.34684,-2.6998,0,1041.729,29.7,
1587,1,SBT2050,2,3,,1,1453,3.3458,-2.6999,0,1044.729,29.7,
1587,1,SBT2050,2,3,,1,1457,3.344639,-2.7001,0,1047.729,29.7,
1587,1,SBT2050,2,3,,1,1461,3.34343,-2.6998,0,1050.729,29.8,
1587,1,SBT2050,2,3,,1,1465,3.342332,-2.7001,0,1053.729,29.8,
1587,1,SBT2050,2,3,,1,1469,3.34159,-2.6998,0,1056.728,29.8,
1587,1,SBT2050,2,3,,1,1473,3.3403,-2.6998,0,1059.728,29.8,
1587,1,SBT2050,2,3,,1,1477,3.3391,-2.6996,0,1062.728,29.8,
1587,1,SBT2050,2,3,,1,1481,3.33804,-2.6995,0,1065.728,29.8,
1587,1,SBT2050,2,3,,1,1485,3.33712,-2.6999,0,1068.728,29.8,
1587,1,SBT2050,2,3,,1,1489,3.3359,-2.6999,0,1071.728,29.8,
1587,1,SBT2050,2,3,,1,1493,3.33491,-2.7002,0,1074.728,29.8,
1587,1,SBT2050,2,3,,1,1497,3.33382,-2.7006,0,1077.728,29.8,
1587,1,SBT2050,2,3,,1,1501,3.332501,-2.6998,0,1080.728,29.8,
1587,1,SBT2050,2,3,,1,1505,3.33149,-2.6998,0,1083.728,29.8,
1587,1,SBT2050,2,3,,1,1509,3.33023,-2.7,0,1086.728,29.8,
1587,1,SBT2050,2,3,,1,1513,3.32934,-2.6998,0,1089.728,29.8,
1587,1,SBT2050,2,3,,1,1517,3.32804,-2.6997,0,1092.728,29.8,
1587,1,SBT2050,2,3,,1,1521,3.326957,-2.7,0,1095.728,29.8,
1587,1,SBT2050,2,3,,1,1525,3.32579,-2.6998,0,1098.728,29.8,
1587,1,SBT2050,2,3,,1,1529,3.32463,-2.7003,0,1101.728,29.9,
1587,1,SBT2050,2,3,,1,1533,3.3234,-2.7,0,1104.728,29.8,
1587,1,SBT2050,2,3,,1,1537,3.32241,-2.6994,0,1107.728,29.8,
1587,1,SBT2050,2,3,,1,1541,3.32148,-2.6998,0,1110.728,29.8,
1587,1,SBT2050,2,3,,1,1545,3.3204,-2.7,0,1113.727,29.8,
1587,1,SBT2050,2,3,,1,1549,3.31918,-2.6998,0,1116.727,29.9,
1587,1,SBT2050,2,3,,1,1553,3.31787,-2.7001,0,1119.727,29.9,
1587,1,SBT2050,2,3,,1,1557,3.317152,-2.7003,0,1122.727,29.9,
1587,1,SBT2050,2,3,,1,1561,3.31574,-2.7,0,1125.727,29.8,
1587,1,SBT2050,2,3,,1,1565,3.31478,-2.6998,0,1128.727,29.8,
1587,1,SBT2050,2,3,,1,1569,3.31352,-2.7001,0,1131.727,29.8,
1587,1,SBT2050,2,3,,1,1573,3.312793,-2.7001,0,1134.727,29.9,
1587,1,SBT2050,2,3,,1,1577,3.31138,-2.7,0,1137.727,29.9,
1587,1,SBT2050,2,3,,1,1581,3.31036,-2.7002,0,1140.727,29.9,
1587,1,SBT2050,2,3,,1,1585,3.30911,-2.7002,0,1143.727,29.9,
1587,1,SBT2050,2,3,,1,1589,3.30803,-2.7003,0,1146.727,29.9,
1587,1,SBT2050,2,3,,1,1593,3.30678,-2.6999,0,1149.727,29.9,
1587,1,SBT2050,2,3,,1,1597,3.30588,-2.6997,0,1152.727,29.9,
1587,1,SBT2050,2,3,,1,1601,3.30439,-2.7002,0,1155.727,29.9,
1587,1,SBT2050,2,3,,1,1605,3.303494,-2.7,0,1158.727,29.9,
1587,1,SBT2050,2,3,,1,1609,3.302348,-2.6997,0,1161.727,29.9,
1587,1,SBT2050,2,3,,1,1613,3.301046,-2.7,0,1164.727,29.9,
1587,1,SBT2050,2,3,,1,1617,3.299918,-2.6998,0,1167.727,29.9,
1587,1,SBT2050,2,3,,1,1621,3.29881,-2.6997,0,1170.727,29.9,
1587,1,SBT2050,2,3,,1,1625,3.29778,-2.7003,0,1173.727,30,
1587,1,SBT2050,2,3,,1,1629,3.296642,-2.7,0,1176.727,30,
1587,1,SBT2050,2,3,,1,1633,3.29537,-2.7001,0,1179.726,30,
1587,1,SBT2050,2,3,,1,1637,3.29413,-2.7001,0,1182.726,30,
1587,1,SBT2050,2,3,,1,1641,3.29293,-2.7003,0,1185.726,30,
1587,1,SBT2050,2,3,,1,1645,3.29183,-2.7004,0,1188.726,30,
1587,1,SBT2050,2,3,,1,1649,3.29052,-2.6997,0,1191.726,30,
1587,1,SBT2050,2,3,,1,1653,3.289158,-2.7001,0,1194.726,30,
1587,1,SBT2050,2,3,,1,1657,3.288267,-2.7004,0,1197.726,30,
1587,1,SBT2050,2,3,,1,1661,3.28689,-2.6999,0,1200.726,30,
1587,1,SBT2050,2,3,,1,1665,3.2858,-2.7,0,1203.726,30,
1587,1,SBT2050,2,3,,1,1669,3.28473,-2.6999,0,1206.726,30,
1587,1,SBT2050,2,3,,1,1673,3.28347,-2.6999,0,1209.726,30,
1587,1,SBT2050,2,3,,1,1677,3.28227,-2.7,0,1212.726,30,
1587,1,SBT2050,2,3,,1,1681,3.28097,-2.6999,0,1215.726,30,
1587,1,SBT2050,2,3,,1,1685,3.27981,-2.6999,0,1218.726,30,
1587,1,SBT2050,2,3,,1,1689,3.27883,-2.7002,0,1221.726,30,
1587,1,SBT2050,2,3,,1,1693,3.27758,-2.6997,0,1224.726,30,
1587,1,SBT2050,2,3,,1,1697,3.27616,-2.7001,0,1227.726,30.1,
1587,1,SBT2050,2,3,,1,1701,3.27505,-2.7001,0,1230.725,30.1,
1587,1,SBT2050,2,3,,1,1705,3.27373,-2.7003,0,1233.725,30.1,
1587,1,SBT2050,2,3,,1,1709,3.27292,-2.7001,0,1236.725,30,
1587,1,SBT2050,2,3,,1,1713,3.27175,-2.6999,0,1239.725,30.1,
1587,1,SBT2050,2,3,,1,1717,3.27003,-2.7,0,1242.725,30.1,
1587,1,SBT2050,2,3,,1,1721,3.268986,-2.7001,0,1245.725,30.1,
1587,1,SBT2050,2,3,,1,1725,3.26781,-2.7,0,1248.725,30.1,
1587,1,SBT2050,2,3,,1,1729,3.2665,-2.6998,0,1251.725,30.1,
1587,1,SBT2050,2,3,,1,1733,3.26534,-2.7,0,1254.725,30.1,
1587,1,SBT2050,2,3,,1,1737,3.26414,-2.7,0,1257.725,30.1,
1587,1,SBT2050,2,3,,1,1741,3.26288,-2.7002,0,1260.725,30.1,
1587,1,SBT2050,2,3,,1,1745,3.26142,-2.7003,0,1263.725,30.1,
1587,1,SBT2050,2,3,,1,1749,3.259962,-2.7002,0,1266.725,30.1,
1587,1,SBT2050,2,3,,1,1753,3.25898,-2.7,0,1269.725,30.1,
1587,1,SBT2050,2,3,,1,1757,3.25765,-2.7003,0,1272.725,30.2,
1587,1,SBT2050,2,3,,1,1761,3.25657,-2.6997,0,1275.725,30.2,
1587,1,SBT2050,2,3,,1,1765,3.2552,-2.7,0,1278.725,30.2,
1587,1,SBT2050,2,3,,1,1769,3.253976,-2.7,0,1281.725,30.2,
1587,1,SBT2050,2,3,,1,1773,3.25278,-2.6999,0,1284.725,30.2,
1587,1,SBT2050,2,3,,1,1777,3.25137,-2.6999,0,1287.725,30.2,
1587,1,SBT2050,2,3,,1,1781,3.24989,-2.6999,0,1290.725,30.2,
1587,1,SBT2050,2,3,,1,1785,3.24877,-2.6998,0,1293.725,30.2,
1587,1,SBT2050,2,3,,1,1789,3.24732,-2.7,0,1296.725,30.2,
1587,1,SBT2050,2,3,,1,1793,3.24604,-2.7,0,1299.724,30.2,
1587,1,SBT2050,2,3,,1,1797,3.245,-2.6999,0,1302.724,30.2,
1587,1,SBT2050,2,3,,1,1801,3.243465,-2.7003,0,1305.724,30.2,
1587,1,SBT2050,2,3,,1,1805,3.24211,-2.6999,0,1308.724,30.3,
1587,1,SBT2050,2,3,,1,1809,3.24078,-2.7,0,1311.724,30.3,
1587,1,SBT2050,2,3,,1,1813,3.23931,-2.7002,0,1314.724,30.3,
1587,1,SBT2050,2,3,,1,1817,3.23797,-2.6997,0,1317.724,30.3,
1587,1,SBT2050,2,3,,1,1821,3.23679,-2.6999,0,1320.724,30.3,
1587,1,SBT2050,2,3,,1,1825,3.23523,-2.6999,0,1323.724,30.3,
1587,1,SBT2050,2,3,,1,1829,3.233858,-2.6996,0,1326.724,30.3,
1587,1,SBT2050,2,3,,1,1833,3.2325,-2.7,0,1329.724,30.3,
1587,1,SBT2050,2,3,,1,1837,3.2311,-2.6999,0,1332.724,30.3,
1587,1,SBT2050,2,3,,1,1841,3.22997,-2.6999,0,1335.724,30.3,
1587,1,SBT2050,2,3,,1,1845,3.22846,-2.7,0,1338.724,30.3,
1587,1,SBT2050,2,3,,1,1849,3.22737,-2.6997,0,1341.724,30.3,
1587,1,SBT2050,2,3,,1,1853,3.22557,-2.7,0,1344.724,30.3,
1587,1,SBT2050,2,3,,1,1857,3.22435,-2.6997,0,1347.724,30.3,
1587,1,SBT2050,2,3,,1,1861,3.22292,-2.6999,0,1350.724,30.3,
1587,1,SBT2050,2,3,,1,1865,3.22154,-2.7,0,1353.724,30.4,
1587,1,SBT2050,2,3,,1,1869,3.22053,-2.7,0,1356.723,30.4,
1587,1,SBT2050,2,3,,1,1873,3.2191,-2.6997,0,1359.723,30.4,
1587,1,SBT2050,2,3,,1,1877,3.217326,-2.7001,0,1362.723,30.4,
1587,1,SBT2050,2,3,,1,1881,3.216049,-2.7,0,1365.723,30.4,
1587,1,SBT2050,2,3,,1,1885,3.21456,-2.7006,0,1368.723,30.4,
1587,1,SBT2050,2,3,,1,1889,3.213455,-2.7001,0,1371.723,30.4,
1587,1,SBT2050,2,3,,1,1893,3.2119,-2.7,0,1374.723,30.4,
1587,1,SBT2050,2,3,,1,1897,3.210267,-2.7001,0,1377.723,30.4,
1587,1,SBT2050,2,3,,1,1901,3.20886,-2.6995,0,1380.723,30.4,
1587,1,SBT2050,2,3,,1,1905,3.20771,-2.6998,0,1383.723,30.5,
1587,1,SBT2050,2,3,,1,1909,3.20615,-2.6995,0,1386.723,30.5,
1587,1,SBT2050,2,3,,1,1913,3.20476,-2.7,0,1389.723,30.5,
1587,1,SBT2050,2,3,,1,1917,3.20309,-2.6997,0,1392.723,30.5,
1587,1,SBT2050,2,3,,1,1921,3.20148,-2.6997,0,1395.723,30.5,
1587,1,SBT2050,2,3,,1,1925,3.20003,-2.7,0,1398.723,30.5,
1587,1,SBT2050,2,3,,1,1929,3.19829,-2.7,0,1401.723,30.5,
1587,1,SBT2050,2,3,,1,1933,3.19683,-2.7,0,1404.723,30.5,
1587,1,SBT2050,2,3,,1,1937,3.195526,-2.6996,0,1407.723,30.5,
1587,1,SBT2050,2,3,,1,1941,3.19393,-2.6999,0,1410.723,30.5,
1587,1,SBT2050,2,3,,1,1945,3.19221,-2.6997,0,1413.723,30.5,
1587,1,SBT2050,2,3,,1,1949,3.19075,-2.6999,0,1416.722,30.6,
1587,1,SBT2050,2,3,,1,1953,3.18919,-2.7,0,1419.722,30.6,
1587,1,SBT2050,2,3,,1,1957,3.18763,-2.6999,0,1422.722,30.6,
1587,1,SBT2050,2,3,,1,1961,3.1862,-2.7002,0,1425.722,30.6,
1587,1,SBT2050,2,3,,1,1965,3.18475,-2.6999,0,1428.722,30.6,
1587,1,SBT2050,2,3,,1,1969,3.18296,-2.6997,0,1431.722,30.6,
1587,1,SBT2050,2,3,,1,1973,3.1816,-2.6999,0,1434.722,30.6,
1587,1,SBT2050,2,3,,1,1977,3.17998,-2.7,0,1437.722,30.6,
1587,1,SBT2050,2,3,,1,1981,3.17847,-2.7002,0,1440.722,30.6,
1587,1,SBT2050,2,3,,1,1985,3.17697,-2.7,0,1443.722,30.6,
1587,1,SBT2050,2,3,,1,1989,3.17512,-2.7002,0,1446.722,30.6,
1587,1,SBT2050,2,3,,1,1993,3.17377,-2.6999,0,1449.722,30.6,
1587,1,SBT2050,2,3,,1,1997,3.17194,-2.6997,0,1452.722,30.7,
1587,1,SBT2050,2,3,,1,2001,3.17047,-2.7,0,1455.722,30.7,
1587,1,SBT2050,2,3,,1,2005,3.16887,-2.7,0,1458.722,30.7,
1587,1,SBT2050,2,3,,1,2009,3.16706,-2.7005,0,1461.722,30.7,
1587,1,SBT2050,2,3,,1,2013,3.16541,-2.7,0,1464.721,30.7,
1587,1,SBT2050,2,3,,1,2017,3.16372,-2.6997,0,1467.721,30.7,
1587,1,SBT2050,2,3,,1,2021,3.16201,-2.7001,0,1470.721,30.7,
1587,1,SBT2050,2,3,,1,2025,3.16045,-2.7,0,1473.721,30.7,
1587,1,SBT2050,2,3,,1,2029,3.158864,-2.7002,0,1476.721,30.7,
1587,1,SBT2050,2,3,,1,2033,3.15706,-2.6997,0,1479.721,30.7,
1587,1,SBT2050,2,3,,1,2037,3.15524,-2.7005,0,1482.721,30.7,
1587,1,SBT2050,2,3,,1,2041,3.15342,-2.7,0,1485.721,30.8,
1587,1,SBT2050,2,3,,1,2045,3.15162,-2.7,0,1488.721,30.8,
1587,1,SBT2050,2,3,,1,2049,3.14975,-2.7005,0,1491.721,30.8,
1587,1,SBT2050,2,3,,1,2053,3.148067,-2.6995,0,1494.721,30.8,
1587,1,SBT2050,2,3,,1,2057,3.146546,-2.7,0,1497.721,30.8,
1587,1,SBT2050,2,3,,1,2061,3.14453,-2.6998,0,1500.721,30.8,
1587,1,SBT2050,2,3,,1,2065,3.143133,-2.6997,0,1503.721,30.8,
1587,1,SBT2050,2,3,,1,2069,3.14114,-2.6995,0,1506.721,30.9,
1587,1,SBT2050,2,3,,1,2073,3.13939,-2.7,0,1509.721,30.9,
1587,1,SBT2050,2,3,,1,2077,3.13753,-2.6998,0,1512.721,30.9,
1587,1,SBT2050,2,3,,1,2081,3.13571,-2.7,0,1515.721,30.9,
1587,1,SBT2050,2,3,,1,2085,3.133815,-2.7001,0,1518.721,30.9,
1587,1,SBT2050,2,3,,1,2089,3.131973,-2.7,0,1521.721,31,
1587,1,SBT2050,2,3,,1,2093,3.130235,-2.7001,0,1524.72,31,
1587,1,SBT2050,2,3,,1,2097,3.12852,-2.6999,0,1527.72,31,
1587,1,SBT2050,2,3,,1,2101,3.12658,-2.6998,0,1530.72,30.9,
1587,1,SBT2050,2,3,,1,2105,3.12456,-2.6996,0,1533.72,31,
1587,1,SBT2050,2,3,,1,2109,3.12267,-2.7002,0,1536.72,31,
1587,1,SBT2050,2,3,,1,2113,3.12079,-2.7003,0,1539.72,31,
1587,1,SBT2050,2,3,,1,2117,3.1189,-2.6998,0,1542.72,31,
1587,1,SBT2050,2,3,,1,2121,3.11706,-2.7003,0,1545.72,31,
1587,1,SBT2050,2,3,,1,2125,3.11506,-2.6997,0,1548.72,31,
1587,1,SBT2050,2,3,,1,2129,3.11308,-2.7,0,1551.72,31,
1587,1,SBT2050,2,3,,1,2133,3.11104,-2.6995,0,1554.72,31,
1587,1,SBT2050,2,3,,1,2137,3.10909,-2.6998,0,1557.72,31.1,
1587,1,SBT2050,2,3,,1,2141,3.10688,-2.6998,0,1560.72,31.1,
1587,1,SBT2050,2,3,,1,2145,3.10504,-2.7001,0,1563.72,31.1,
1587,1,SBT2050,2,3,,1,2149,3.10286,-2.7003,0,1566.72,31.1,
1587,1,SBT2050,2,3,,1,2153,3.10056,-2.7001,0,1569.72,31.1,
1587,1,SBT2050,2,3,,1,2157,3.09858,-2.6997,0,1572.72,31.2,
1587,1,SBT2050,2,3,,1,2161,3.09656,-2.7003,0,1575.719,31.2,
1587,1,SBT2050,2,3,,1,2165,3.09416,-2.7,0,1578.719,31.2,
1587,1,SBT2050,2,3,,1,2169,3.0921,-2.7001,0,1581.719,31.2,
1587,1,SBT2050,2,3,,1,2173,3.09014,-2.7,0,1584.719,31.2,
1587,1,SBT2050,2,3,,1,2177,3.08811,-2.7,0,1587.719,31.2,
1587,1,SBT2050,2,3,,1,2181,3.08552,-2.6994,0,1590.719,31.2,
1587,1,SBT2050,2,3,,1,2185,3.083327,-2.7,0,1593.719,31.2,
1587,1,SBT2050,2,3,,1,2189,3.08142,-2.7,0,1596.719,31.3,
1587,1,SBT2050,2,3,,1,2193,3.07881,-2.7004,0,1599.719,31.3,
1587,1,SBT2050,2,3,,1,2197,3.07691,-2.7,0,1602.719,31.2,
1587,1,SBT2050,2,3,,1,2201,3.0745,-2.7004,0,1605.719,31.3,
1587,1,SBT2050,2,3,,1,2205,3.072215,-2.6997,0,1608.719,31.3,
1587,1,SBT2050,2,3,,1,2209,3.070194,-2.7,0,1611.719,31.3,
1587,1,SBT2050,2,3,,1,2213,3.06789,-2.6999,0,1614.719,31.4,
1587,1,SBT2050,2,3,,1,2217,3.06528,-2.7001,0,1617.719,31.4,
1587,1,SBT2050,2,3,,1,2221,3.06285,-2.7003,0,1620.719,31.4,
1587,1,SBT2050,2,3,,1,2225,3.0607,-2.6998,0,1623.719,31.4,
1587,1,SBT2050,2,3,,1,2229,3.058461,-2.6997,0,1626.718,31.4,
1587,1,SBT2050,2,3,,1,2233,3.05602,-2.7005,0,1629.718,31.4,
1587,1,SBT2050,2,3,,1,2237,3.054002,-2.7,0,1632.718,31.4,
1587,1,SBT2050,2,3,,1,2241,3.05137,-2.7001,0,1635.718,31.5,
1587,1,SBT2050,2,3,,1,2245,3.04889,-2.7,0,1638.718,31.5,
1587,1,SBT2050,2,3,,1,2249,3.0467,-2.7001,0,1641.718,31.5,
1587,1,SBT2050,2,3,,1,2253,3.04417,-2.6998,0,1644.718,31.5,
1587,1,SBT2050,2,3,,1,2257,3.04154,-2.6998,0,1647.718,31.5,
1587,1,SBT2050,2,3,,1,2261,3.03891,-2.6998,0,1650.718,31.6,
1587,1,SBT2050,2,3,,1,2265,3.03662,-2.7,0,1653.718,31.6,
1587,1,SBT2050,2,3,,1,2269,3.03417,-2.7001,0,1656.718,31.6,
1587,1,SBT2050,2,3,,1,2273,3.03117,-2.7001,0,1659.718,31.6,
1587,1,SBT2050,2,3,,1,2277,3.02867,-2.6997,0,1662.718,31.6,
1587,1,SBT2050,2,3,,1,2281,3.02601,-2.7001,0,1665.718,31.6,
1587,1,SBT2050,2,3,,1,2285,3.02354,-2.6999,0,1668.718,31.6,
1587,1,SBT2050,2,3,,1,2289,3.02086,-2.7003,0,1671.718,31.7,
1587,1,SBT2050,2,3,,1,2293,3.018068,-2.7001,0,1674.718,31.7,
1587,1,SBT2050,2,3,,1,2297,3.01541,-2.6998,0,1677.717,31.7,
1587,1,SBT2050,2,3,,1,2301,3.01279,-2.6999,0,1680.717,31.7,
1587,1,SBT2050,2,3,,1,2305,3.00999,-2.7,0,1683.717,31.7,
1587,1,SBT2050,2,3,,1,2309,3.007146,-2.6999,0,1686.717,31.8,
1587,1,SBT2050,2,3,,1,2313,3.00421,-2.6999,0,1689.717,31.8,
1587,1,SBT2050,2,3,,1,2317,3.00161,-2.6998,0,1692.717,31.8,
1587,1,SBT2050,2,3,,1,2321,2.99875,-2.7001,0,1695.717,31.8,
1587,1,SBT2050,2,3,,1,2325,2.99594,-2.7,0,1698.717,31.9,
1587,1,SBT2050,2,3,,1,2329,2.993,-2.6996,0,1701.717,31.9,
1587,1,SBT2050,2,3,,1,2333,2.99018,-2.6999,0,1704.717,31.9,
1587,1,SBT2050,2,3,,1,2337,2.987094,-2.6998,0,1707.717,31.9,
1587,1,SBT2050,2,3,,1,2341,2.984117,-2.6995,0,1710.717,31.9,
1587,1,SBT2050,2,3,,1,2345,2.981,-2.7001,0,1713.717,32,
1587,1,SBT2050,2,3,,1,2349,2.97794,-2.7,0,1716.717,32,
1587,1,SBT2050,2,3,,1,2353,2.97465,-2.7,0,1719.717,32,
1587,1,SBT2050,2,3,,1,2357,2.97142,-2.6996,0,1722.716,32,
1587,1,SBT2050,2,3,,1,2361,2.96847,-2.6999,0,1725.716,32,
1587,1,SBT2050,2,3,,1,2365,2.965085,-2.6997,0,1728.716,32.1,
1587,1,SBT2050,2,3,,1,2369,2.96186,-2.6996,0,1731.716,32.1,
1587,1,SBT2050,2,3,,1,2373,2.95854,-2.7,0,1734.716,32.1,
1587,1,SBT2050,2,3,,1,2377,2.95524,-2.6996,0,1737.716,32.1,
1587,1,SBT2050,2,3,,1,2381,2.951759,-2.7,0,1740.716,32.2,
1587,1,SBT2050,2,3,,1,2385,2.948281,-2.7002,0,1743.716,32.2,
1587,1,SBT2050,2,3,,1,2389,2.94451,-2.7,0,1746.716,32.2,
1587,1,SBT2050,2,3,,1,2393,2.94104,-2.6997,0,1749.716,32.2,
1587,1,SBT2050,2,3,,1,2397,2.93751,-2.7005,0,1752.716,32.2,
1587,1,SBT2050,2,3,,1,2401,2.93387,-2.6999,0,1755.716,32.3,
1587,1,SBT2050,2,3,,1,2405,2.930265,-2.7002,0,1758.716,32.3,
1587,1,SBT2050,2,3,,1,2409,2.92641,-2.6999,0,1761.716,32.3,
1587,1,SBT2050,2,3,,1,2413,2.922595,-2.7,0,1764.715,32.3,
1587,1,SBT2050,2,3,,1,2417,2.91878,-2.6997,0,1767.715,32.4,
1587,1,SBT2050,2,3,,1,2421,2.91473,-2.6998,0,1770.715,32.4,
1587,1,SBT2050,2,3,,1,2425,2.9107,-2.7004,0,1773.715,32.5,
1587,1,SBT2050,2,3,,1,2429,2.90649,-2.6995,0,1776.715,32.4,
1587,1,SBT2050,2,3,,1,2433,2.90209,-2.6998,0,1779.715,32.4,
1587,1,SBT2050,2,3,,1,2437,2.89821,-2.6997,0,1782.715,32.5,
1587,1,SBT2050,2,3,,1,2441,2.89386,-2.7001,0,1785.715,32.5,
1587,1,SBT2050,2,3,,1,2445,2.88949,-2.6997,0,1788.715,32.5,
1587,1,SBT2050,2,3,,1,2449,2.88477,-2.7,0,1791.715,32.5,
1587,1,SBT2050,2,3,,1,2453,2.88019,-2.7,0,1794.715,32.6,
1587,1,SBT2050,2,3,,1,2457,2.87528,-2.6998,0,1797.715,32.6,
1587,1,SBT2050,2,3,,1,2461,2.87056,-2.7005,0,1800.715,32.6,
1587,1,SBT2050,2,3,,1,2465,2.86568,-2.7,0,1803.715,32.7,
1587,1,SBT2050,2,3,,1,2469,2.86039,-2.7001,0,1806.715,32.7,
1587,1,SBT2050,2,3,,1,2473,2.85523,-2.7001,0,1809.715,32.7,
1587,1,SBT2050,2,3,,1,2477,2.850048,-2.6997,0,1812.715,32.7,
1587,1,SBT2050,2,3,,1,2481,2.84464,-2.6997,0,1815.715,32.8,
1587,1,SBT2050,2,3,,1,2485,2.83892,-2.6997,0,1818.715,32.8,
1587,1,SBT2050,2,3,,1,2489,2.83301,-2.7,0,1821.714,32.8,
1587,1,SBT2050,2,3,,1,2493,2.8272,-2.7,0,1824.714,32.9,
1587,1,SBT2050,2,3,,1,2497,2.82111,-2.6998,0,1827.714,32.9,
1587,1,SBT2050,2,3,,1,2501,2.8148,-2.7001,0,1830.714,33,
1587,1,SBT2050,2,3,,1,2505,2.80839,-2.6995,0,1833.714,33,
1587,1,SBT2050,2,3,,1,2509,2.80189,-2.7001,0,1836.714,33,
1587,1,SBT2050,2,3,,1,2513,2.79519,-2.6998,0,1839.714,33.1,
1587,1,SBT2050,2,3,,1,2517,2.78837,-2.7,0,1842.714,33.1,
1587,1,SBT2050,2,3,,1,2521,2.7811,-2.7001,0,1845.714,33.2,
1587,1,SBT2050,2,3,,1,2525,2.77358,-2.6998,0,1848.714,33.2,
1587,1,SBT2050,2,3,,1,2529,2.76624,-2.7001,0,1851.714,33.3,
1587,1,SBT2050,2,3,,1,2533,2.758506,-2.7,0,1854.714,33.3,
1587,1,SBT2050,2,3,,1,2537,2.75,-2.7004,0,1857.714,33.3,
1587,1,SBT2050,2,3,,1,2541,2.7418,-2.6998,0,1860.714,33.4,
1587,1,SBT2050,2,3,,1,2545,2.7332,-2.6998,0,1863.714,33.4,
1587,1,SBT2050,2,3,,1,2549,2.72433,-2.6998,0,1866.714,33.5,
1587,1,SBT2050,2,3,,1,2553,2.71511,-2.6996,0,1869.714,33.5,
1587,1,SBT2050,2,3,,1,2557,2.70578,-2.7,0,1872.713,33.5,
1587,1,SBT2050,2,3,,1,2561,2.69597,-2.6996,0,1875.713,33.6,
1587,1,SBT2050,2,3,,1,2565,2.68554,-2.7,0,1878.713,33.6,
1587,1,SBT2050,2,3,,1,2569,2.67478,-2.7,0,1881.713,33.7,
1587,1,SBT2050,2,3,,1,2573,2.66378,-2.7002,0,1884.713,33.8,
1587,1,SBT2050,2,3,,1,2577,2.65237,-2.6999,0,1887.713,33.8,
1587,1,SBT2050,2,3,,1,2581,2.64053,-2.6999,0,1890.713,33.8,
1587,1,SBT2050,2,3,,1,2585,2.62789,-2.6996,0,1893.713,33.9,
1587,1,SBT2050,2,3,,1,2589,2.61483,-2.7001,0,1896.713,33.9,
1587,1,SBT2050,2,3,,1,2593,2.60101,-2.7001,0,1899.713,34,
1587,1,SBT2050,2,3,,1,2597,2.58679,-2.7001,0,1902.713,34,
1587,1,SBT2050,2,3,,1,2601,2.57181,-2.7,0,1905.713,34.1,
1587,1,SBT2050,2,3,,1,2605,2.55593,-2.7,0,1908.713,34.2,
1587,1,SBT2050,2,3,,1,2609,2.53949,-2.7001,0,1911.713,34.2,
1587,1,SBT2050,2,3,,1,2613,2.522097,-2.6997,0,1914.713,34.3,
1587,1,SBT2050,2,3,,1,2617,2.504,-2.6999,0,1917.713,34.4,
1587,1,SBT2050,2,3,,2,2620,2.88553,0,0,1918.35,34.4,
1587,1,SBT2050,2,3,,2,2624,3.049374,0,0,1918.35,34.5,
1587,1,SBT2050,2,3,,2,2628,3.10802,0,0,1918.35,34.5,
1587,1,SBT2050,2,3,,2,2632,3.140307,0,0,1918.35,34.4,
1587,1,SBT2050,2,3,,2,2636,3.16239,0,0,1918.35,34.3,
1587,1,SBT2050,2,3,,2,2640,3.17944,0,0,1918.35,34.2,
1587,1,SBT2050,2,3,,2,2644,3.193076,0,0,1918.35,34.1,
1587,1,SBT2050,2,3,,2,2648,3.20481,0,0,1918.35,34,
1587,1,SBT2050,2,3,,2,2652,3.21481,0,0,1918.35,33.9,
1587,1,SBT2050,2,3,,2,2656,3.22343,0,0,1918.35,33.8,
1587,1,SBT2050,2,3,,2,2660,3.23142,0,0,1918.35,33.6,
1587,1,SBT2050,2,3,,2,2664,3.23859,0,0,1918.35,33.5,
1587,1,SBT2050,2,3,,2,2668,3.24512,0,0,1918.35,33.4,
1587,1,SBT2050,2,3,,2,2672,3.25077,0,0,1918.35,33.3,
1587,1,SBT2050,2,3,,2,2676,3.2561,0,0,1918.35,33.2,
1587,1,SBT2050,2,3,,2,2677.849,3.25743,-9.8E-05,0,1918.35,,