File: ORRG/Test1586.csv
Request Year:,2018,,,,,,,,,,,,
Test:,1586,,,,,,,,,,,,
Test Description:,,,,,,,,,,,,,
TestRegime Name:,Aging_test caseB_1,,,,,,,,,,,,
TestRegime Suffix:,SHP_LC,,,,,,,,,,,,
TestRegime CellSize:,18650,,,,,,,,,,,,
TestRegime Version:,3,,,,,,,,,,,,
Number Of Cells:,1,,,,,,,,,,,,
LotID:,,,,,,,,,,,,,
Lot Description:,,,,,,,,,,,,,
Date Made:,1/21/2003 12:00 AM,,,,,,,,,,,,
Origin:,Other,,,,,,,,,,,,
Requestor:,Admin,,,,,,,,,,,,
Product ID:,Default product,,,,,,,,,,,,
Storage Temp:,R.T./AMB,,,,,,,,,,,,
Storage Delay:,0 days,,,,,,,,,,,,
Test Temp:,R.T./AMB,,,,,,,,,,,,
Start Time:,5/3/2018 2:10 AM,,,,,,,,,,,,
End Time:,5/3/2018 3:28 AM,,,,,,,,,,,,
Operator Instructions:,,,,,,,,,,,,,
Test,Cell,Rack,Shelf,Position,Cell ID,Step,Total Time (Seconds),Voltage (V),Current (A),Charge Capacity (mAh),Discharge Capacity (mAh),Trs (Â°C),
1586,1,SBT2050,2,3,,0,0.1,3.29593,0,0,0,,
1586,1,SBT2050,2,3,,0,5,3.29609,0,0,0,,
1586,1,SBT2050,2,3,,0,9.9,3.29607,0,0,0,,
1586,1,SBT2050,2,3,,0,14.8,3.29621,0,0,0,,
1586,1,SBT2050,2,3,,0,19.7,3.296086,0,0,0,,
1586,1,SBT2050,2,3,,0,24.6,3.29608,0,0,0,,
1586,1,SBT2050,2,3,,0,29.5,3.29617,0,0,0,,
1586,1,SBT2050,2,3,,0,34.4,3.29607,0,0,0,,
1586,1,SBT2050,2,3,,0,39.3,3.29612,0,0,0,,
1586,1,SBT2050,2,3,,0,44.2,3.29606,0,0,0,,
1586,1,SBT2050,2,3,,0,49.1,3.29607,0,0,0,,
1586,1,SBT2050,2,3,,0,54,3.295907,0,0,0,,
1586,1,SBT2050,2,3,,0,58.9,3.2961,0,0,0,,
1586,1,SBT2050,2,3,,0,63.8,3.29599,0,0,0,,
1586,1,SBT2050,2,3,,0,68.7,3.29586,0,0,0,,
1586,1,SBT2050,2,3,,0,73.6,3.29604,0,0,0,,
1586,1,SBT2050,2,3,,0,78.5,3.296109,0,0,0,,
1586,1,SBT2050,2,3,,0,83.4,3.29599,0,0,0,,
1586,1,SBT2050,2,3,,0,88.3,3.295978,0,0,0,,
1586,1,SBT2050,2,3,,0,93.2,3.29588,0,0,0,,
1586,1,SBT2050,2,3,,0,98.1,3.295826,0,0,0,,
1586,1,SBT2050,2,3,,0,103,3.296102,0,0,0,,
1586,1,SBT2050,2,3,,0,107.9,3.2958,0,0,0,,
1586,1,SBT2050,2,3,,0,112.8,3.29609,0,0,0,,
1586,1,SBT2050,2,3,,0,117.7,3.29601,0,0,0,,
1586,1,SBT2050,2,3,,0,122.6,3.295826,0,0,0,,
1586,1,SBT2050,2,3,,0,127.5,3.29597,0,0,0,,
1586,1,SBT2050,2,3,,0,132.4,3.29585,0,0,0,,
1586,1,SBT2050,2,3,,0,137.3,3.295964,0,0,0,,
1586,1,SBT2050,2,3,,0,142.2,3.29584,0,0,0,,
1586,1,SBT2050,2,3,,0,147.1,3.29592,0,0,0,,
1586,1,SBT2050,2,3,,0,152,3.29588,0,0,0,,
1586,1,SBT2050,2,3,,0,156.9,3.29587,0,0,0,,
1586,1,SBT2050,2,3,,0,161.8,3.2961,0,0,0,,
1586,1,SBT2050,2,3,,0,166.7,3.29605,0,0,0,,
1586,1,SBT2050,2,3,,0,171.6,3.296071,0,0,0,,
1586,1,SBT2050,2,3,,0,176.5,3.295814,0,0,0,,
1586,1,SBT2050,2,3,,0,181.4,3.29572,0,0,0,,
1586,1,SBT2050,2,3,,0,186.3,3.295969,0,0,0,,
1586,1,SBT2050,2,3,,0,191.2,3.29588,0,0,0,,
1586,1,SBT2050,2,3,,0,196.1,3.29595,0,0,0,,
1586,1,SBT2050,2,3,,0,201,3.295951,0,0,0,,
1586,1,SBT2050,2,3,,0,205.9,3.29585,0,0,0,,
1586,1,SBT2050,2,3,,0,210.8,3.295818,0,0,0,,
1586,1,SBT2050,2,3,,0,215.7,3.29589,0,0,0,,
1586,1,SBT2050,2,3,,0,220.6,3.29606,0,0,0,,
1586,1,SBT2050,2,3,,0,225.5,3.29605,0,0,0,,
1586,1,SBT2050,2,3,,0,230.4,3.29588,0,0,0,,
1586,1,SBT2050,2,3,,0,235.3,3.29593,0,0,0,,
1586,1,SBT2050,2,3,,0,240.2,3.29602,0,0,0,,
1586,1,SBT2050,2,3,,0,245.1,3.29587,0,0,0,,
1586,1,SBT2050,2,3,,0,250,3.29603,0,0,0,,
1586,1,SBT2050,2,3,,0,254.9,3.29603,0,0,0,,
1586,1,SBT2050,2,3,,0,259.8,3.29605,0,0,0,,
1586,1,SBT2050,2,3,,0,264.7,3.29608,0,0,0,,
1586,1,SBT2050,2,3,,0,269.6,3.29582,0,0,0,,
1586,1,SBT2050,2,3,,0,274.5,3.29601,0,0,0,,
1586,1,SBT2050,2,3,,0,279.4,3.29601,0,0,0,,
1586,1,SBT2050,2,3,,0,284.3,3.29608,0,0,0,,
1586,1,SBT2050,2,3,,0,289.2,3.296031,0,0,0,,
1586,1,SBT2050,2,3,,0,294.1,3.2961,0,0,0,,
1586,1,SBT2050,2,3,,0,299,3.29626,0,0,0,,
1586,1,SBT2050,2,3,,0,303.9,3.295974,0,0,0,,
1586,1,SBT2050,2,3,,0,308.8,3.29618,0,0,0,,
1586,1,SBT2050,2,3,,0,313.7,3.29625,0,0,0,,
1586,1,SBT2050,2,3,,0,318.6,3.2961,0,0,0,,
1586,1,SBT2050,2,3,,0,323.5,3.29642,0,0,0,,
1586,1,SBT2050,2,3,,0,328.4,3.29614,0,0,0,,
1586,1,SBT2050,2,3,,0,333.3,3.29592,0,0,0,,
1586,1,SBT2050,2,3,,0,338.2,3.296184,0,0,0,,
1586,1,SBT2050,2,3,,0,343.1,3.2959,0,0,0,,
1586,1,SBT2050,2,3,,0,348,3.29614,0,0,0,,
1586,1,SBT2050,2,3,,0,352.9,3.296119,0,0,0,,
1586,1,SBT2050,2,3,,0,357.8,3.29617,0,0,0,,
1586,1,SBT2050,2,3,,0,362.7,3.29622,0,0,0,,
1586,1,SBT2050,2,3,,0,367.6,3.29597,0,0,0,,
1586,1,SBT2050,2,3,,0,372.5,3.29613,0,0,0,,
1586,1,SBT2050,2,3,,0,377.4,3.29603,0,0,0,,
1586,1,SBT2050,2,3,,0,382.3,3.29617,0,0,0,,
1586,1,SBT2050,2,3,,0,387.2,3.296001,0,0,0,,
1586,1,SBT2050,2,3,,0,392.1,3.29607,0,0,0,,
1586,1,SBT2050,2,3,,0,397,3.29593,0,0,0,,
1586,1,SBT2050,2,3,,0,401.9,3.29598,0,0,0,,
1586,1,SBT2050,2,3,,0,406.8,3.29623,0,0,0,,
1586,1,SBT2050,2,3,,0,411.7,3.29605,0,0,0,,
1586,1,SBT2050,2,3,,0,416.6,3.29632,0,0,0,,
1586,1,SBT2050,2,3,,0,421.5,3.29608,0,0,0,,
1586,1,SBT2050,2,3,,0,426.4,3.29592,0,0,0,,
1586,1,SBT2050,2,3,,0,431.3,3.29593,0,0,0,,
1586,1,SBT2050,2,3,,0,436.2,3.29604,0,0,0,,
1586,1,SBT2050,2,3,,0,441.1,3.29608,0,0,0,,
1586,1,SBT2050,2,3,,0,446,3.29598,0,0,0,,
1586,1,SBT2050,2,3,,0,450.9,3.29621,0,0,0,,
1586,1,SBT2050,2,3,,0,455.8,3.29608,0,0,0,,
1586,1,SBT2050,2,3,,0,460.7,3.29621,0,0,0,,
1586,1,SBT2050,2,3,,0,465.6,3.29626,0,0,0,,
1586,1,SBT2050,2,3,,0,470.5,3.29618,0,0,0,,
1586,1,SBT2050,2,3,,0,475.4,3.296246,0,0,0,,
1586,1,SBT2050,2,3,,0,480.3,3.29626,0,0,0,,
1586,1,SBT2050,2,3,,0,485.2,3.296147,0,0,0,,
1586,1,SBT2050,2,3,,0,490.1,3.29605,0,0,0,,
1586,1,SBT2050,2,3,,0,495,3.2962,0,0,0,,
1586,1,SBT2050,2,3,,0,499.9,3.2961,0,0,0,,
1586,1,SBT2050,2,3,,0,504.8,3.29622,0,0,0,,
1586,1,SBT2050,2,3,,0,509.7,3.2962,0,0,0,,
1586,1,SBT2050,2,3,,0,514.6,3.29608,0,0,0,,
1586,1,SBT2050,2,3,,0,519.5,3.2961,0,0,0,,
1586,1,SBT2050,2,3,,0,524.4,3.29601,0,0,0,,
1586,1,SBT2050,2,3,,0,529.3,3.29593,0,0,0,,
1586,1,SBT2050,2,3,,0,534.2,3.29629,0,0,0,,
1586,1,SBT2050,2,3,,0,539.1,3.29622,0,0,0,,
1586,1,SBT2050,2,3,,0,544,3.29617,0,0,0,,
1586,1,SBT2050,2,3,,0,548.9,3.29606,0,0,0,,
1586,1,SBT2050,2,3,,0,553.8,3.295905,0,0,0,,
1586,1,SBT2050,2,3,,0,558.7,3.29597,0,0,0,,
1586,1,SBT2050,2,3,,0,563.6,3.29583,0,0,0,,
1586,1,SBT2050,2,3,,0,568.5,3.29584,0,0,0,,
1586,1,SBT2050,2,3,,0,573.4,3.2956,0,0,0,,
1586,1,SBT2050,2,3,,0,578.3,3.295903,0,0,0,,
1586,1,SBT2050,2,3,,0,583.2,3.29582,0,0,0,,
1586,1,SBT2050,2,3,,0,588.1,3.29582,0,0,0,,
1586,1,SBT2050,2,3,,0,593,3.29589,0,0,0,,
1586,1,SBT2050,2,3,,0,597.9,3.29583,0,0,0,,
1586,1,SBT2050,2,3,,0,602.8,3.29601,0,0,0,,
1586,1,SBT2050,2,3,,0,607.7,3.29563,0,0,0,,
1586,1,SBT2050,2,3,,0,612.6,3.295782,0,0,0,,
1586,1,SBT2050,2,3,,0,617.5,3.29597,0,0,0,,
1586,1,SBT2050,2,3,,0,622.4,3.2959,0,0,0,,
1586,1,SBT2050,2,3,,0,627.3,3.29598,0,0,0,,
1586,1,SBT2050,2,3,,0,632.2,3.29604,0,0,0,,
1586,1,SBT2050,2,3,,0,637.1,3.29585,0,0,0,,
1586,1,SBT2050,2,3,,0,642,3.29603,0,0,0,,
1586,1,SBT2050,2,3,,0,646.9,3.29603,0,0,0,,
1586,1,SBT2050,2,3,,0,651.8,3.29596,0,0,0,,
1586,1,SBT2050,2,3,,0,656.7,3.295921,0,0,0,,
1586,1,SBT2050,2,3,,0,661.6,3.29605,0,0,0,,
1586,1,SBT2050,2,3,,0,666.5,3.29624,0,0,0,,
1586,1,SBT2050,2,3,,0,671.4,3.29605,0,0,0,,
1586,1,SBT2050,2,3,,0,676.3,3.29621,0,0,0,,
1586,1,SBT2050,2,3,,0,681.2,3.296152,0,0,0,,
1586,1,SBT2050,2,3,,0,686.1,3.296,0,0,0,,
1586,1,SBT2050,2,3,,0,691,3.29595,0,0,0,,
1586,1,SBT2050,2,3,,0,695.9,3.29622,0,0,0,,
1586,1,SBT2050,2,3,,0,700.8,3.29583,0,0,0,,
1586,1,SBT2050,2,3,,0,705.7,3.29603,0,0,0,,
1586,1,SBT2050,2,3,,0,710.6,3.29609,0,0,0,,
1586,1,SBT2050,2,3,,0,715.5,3.29611,0,0,0,,
1586,1,SBT2050,2,3,,0,720.4,3.295946,0,0,0,,
1586,1,SBT2050,2,3,,0,725.3,3.29591,0,0,0,,
1586,1,SBT2050,2,3,,0,730.2,3.29597,0,0,0,,
1586,1,SBT2050,2,3,,0,735.1,3.29612,0,0,0,,
1586,1,SBT2050,2,3,,0,740,3.296062,0,0,0,,
1586,1,SBT2050,2,3,,0,744.9,3.29614,0,0,0,,
1586,1,SBT2050,2,3,,0,749.8,3.296047,0,0,0,,
1586,1,SBT2050,2,3,,0,754.7,3.29596,0,0,0,,
1586,1,SBT2050,2,3,,0,759.6,3.29615,0,0,0,,
1586,1,SBT2050,2,3,,0,764.5,3.2959,0,0,0,,
1586,1,SBT2050,2,3,,0,769.4,3.29609,0,0,0,,
1586,1,SBT2050,2,3,,0,774.3,3.29596,0,0,0,,
1586,1,SBT2050,2,3,,0,779.2,3.29604,0,0,0,,
1586,1,SBT2050,2,3,,0,784.1,3.29578,0,0,0,,
1586,1,SBT2050,2,3,,0,789,3.29612,0,0,0,,
1586,1,SBT2050,2,3,,0,793.9,3.29605,0,0,0,,
1586,1,SBT2050,2,3,,0,798.8,3.2961,0,0,0,,
1586,1,SBT2050,2,3,,0,803.7,3.29599,0,0,0,,
1586,1,SBT2050,2,3,,0,808.6,3.296124,0,0,0,,
1586,1,SBT2050,2,3,,0,813.5,3.29615,0,0,0,,
1586,1,SBT2050,2,3,,0,818.4,3.29595,0,0,0,,
1586,1,SBT2050,2,3,,0,823.3,3.29612,0,0,0,,
1586,1,SBT2050,2,3,,0,828.2,3.296,0,0,0,,
1586,1,SBT2050,2,3,,0,833.1,3.295919,0,0,0,,
1586,1,SBT2050,2,3,,0,838,3.29589,0,0,0,,
1586,1,SBT2050,2,3,,0,842.9,3.295884,0,0,0,,
1586,1,SBT2050,2,3,,0,847.8,3.29577,0,0,0,,
1586,1,SBT2050,2,3,,0,852.7,3.29596,0,0,0,,
1586,1,SBT2050,2,3,,0,857.6,3.29616,0,0,0,,
1586,1,SBT2050,2,3,,0,862.5,3.29602,0,0,0,,
1586,1,SBT2050,2,3,,0,867.4,3.29585,0,0,0,,
1586,1,SBT2050,2,3,,0,872.3,3.29599,0,0,0,,
1586,1,SBT2050,2,3,,0,877.2,3.29611,0,0,0,,
1586,1,SBT2050,2,3,,0,882.1,3.296,0,0,0,,
1586,1,SBT2050,2,3,,0,887,3.29605,0,0,0,,
1586,1,SBT2050,2,3,,0,891.9,3.29604,0,0,0,,
1586,1,SBT2050,2,3,,0,896.8,3.296165,0,0,0,,
1586,1,SBT2050,2,3,,0,901.7,3.29617,0,0,0,,
1586,1,SBT2050,2,3,,0,906.6,3.29642,0,0,0,,
1586,1,SBT2050,2,3,,0,911.5,3.29604,0,0,0,,
1586,1,SBT2050,2,3,,0,916.4,3.29599,0,0,0,,
1586,1,SBT2050,2,3,,0,921.3,3.296158,0,0,0,,
1586,1,SBT2050,2,3,,0,926.2,3.29602,0,0,0,,
1586,1,SBT2050,2,3,,0,931.1,3.29609,0,0,0,,
1586,1,SBT2050,2,3,,0,936,3.29616,0,0,0,,
1586,1,SBT2050,2,3,,0,940.9,3.29614,0,0,0,,
1586,1,SBT2050,2,3,,0,945.8,3.29616,0,0,0,,
1586,1,SBT2050,2,3,,0,950.7,3.29608,0,0,0,,
1586,1,SBT2050,2,3,,0,955.6,3.29618,0,0,0,,
1586,1,SBT2050,2,3,,0,960.5,3.29607,0,0,0,,
1586,1,SBT2050,2,3,,0,965.4,3.295873,0,0,0,,
1586,1,SBT2050,2,3,,0,970.3,3.29623,0,0,0,,
1586,1,SBT2050,2,3,,0,975.2,3.29598,0,0,0,,
1586,1,SBT2050,2,3,,0,980.1,3.296006,0,0,0,,
1586,1,SBT2050,2,3,,0,985,3.29601,0,0,0,,
1586,1,SBT2050,2,3,,0,989.9,3.29613,0,0,0,,
1586,1,SBT2050,2,3,,0,994.8,3.29629,0,0,0,,
1586,1,SBT2050,2,3,,0,999.7,3.296007,0,0,0,,
1586,1,SBT2050,2,3,,0,1004.6,3.296038,0,0,0,,
1586,1,SBT2050,2,3,,0,1009.5,3.29602,0,0,0,,
1586,1,SBT2050,2,3,,0,1014.4,3.29628,0,0,0,,
1586,1,SBT2050,2,3,,0,1019.3,3.29626,0,0,0,,
1586,1,SBT2050,2,3,,0,1024.2,3.29594,0,0,0,,
1586,1,SBT2050,2,3,,0,1029.1,3.296047,0,0,0,,
1586,1,SBT2050,2,3,,0,1034,3.2961,0,0,0,,
1586,1,SBT2050,2,3,,0,1038.9,3.2961,0,0,0,,
1586,1,SBT2050,2,3,,0,1043.8,3.2961,0,0,0,,
1586,1,SBT2050,2,3,,0,1048.7,3.29599,0,0,0,,
1586,1,SBT2050,2,3,,0,1053.6,3.296179,0,0,0,,
1586,1,SBT2050,2,3,,0,1058.5,3.295931,0,0,0,,
1586,1,SBT2050,2,3,,0,1063.4,3.29618,0,0,0,,
1586,1,SBT2050,2,3,,0,1068.3,3.295986,0,0,0,,
1586,1,SBT2050,2,3,,0,1073.2,3.29588,0,0,0,,
1586,1,SBT2050,2,3,,0,1078.1,3.29606,0,0,0,,
1586,1,SBT2050,2,3,,0,1083,3.295856,0,0,0,,
1586,1,SBT2050,2,3,,0,1087.9,3.295819,0,0,0,,
1586,1,SBT2050,2,3,,0,1092.8,3.29602,0,0,0,,
1586,1,SBT2050,2,3,,0,1097.7,3.29591,0,0,0,,
1586,1,SBT2050,2,3,,0,1102.6,3.29589,0,0,0,,
1586,1,SBT2050,2,3,,0,1107.5,3.29572,0,0,0,,
1586,1,SBT2050,2,3,,0,1112.4,3.29599,0,0,0,,
1586,1,SBT2050,2,3,,0,1117.3,3.29582,0,0,0,,
1586,1,SBT2050,2,3,,0,1122.2,3.29578,0,0,0,,
1586,1,SBT2050,2,3,,0,1127.1,3.29597,0,0,0,,
1586,1,SBT2050,2,3,,0,1132,3.295989,0,0,0,,
1586,1,SBT2050,2,3,,0,1136.9,3.29605,0,0,0,,
1586,1,SBT2050,2,3,,0,1141.8,3.29612,0,0,0,,
1586,1,SBT2050,2,3,,0,1146.7,3.296,0,0,0,,
1586,1,SBT2050,2,3,,0,1151.6,3.29587,0,0,0,,
1586,1,SBT2050,2,3,,0,1156.5,3.29621,0,0,0,,
1586,1,SBT2050,2,3,,0,1161.4,3.29597,0,0,0,,
1586,1,SBT2050,2,3,,0,1166.3,3.29589,0,0,0,,
1586,1,SBT2050,2,3,,0,1171.2,3.29592,0,0,0,,
1586,1,SBT2050,2,3,,0,1176.1,3.29574,0,0,0,,
1586,1,SBT2050,2,3,,0,1181,3.29584,0,0,0,,
1586,1,SBT2050,2,3,,0,1185.9,3.295801,0,0,0,,
1586,1,SBT2050,2,3,,0,1190.8,3.296,0,0,0,,
1586,1,SBT2050,2,3,,0,1195.7,3.29583,0,0,0,,
1586,1,SBT2050,2,3,,0,1200.6,3.29583,0,0,0,,
1586,1,SBT2050,2,3,,0,1205.5,3.295844,0,0,0,,
1586,1,SBT2050,2,3,,0,1210.4,3.29617,0,0,0,,
1586,1,SBT2050,2,3,,0,1215.3,3.29587,0,0,0,,
1586,1,SBT2050,2,3,,0,1220.2,3.29605,0,0,0,,
1586,1,SBT2050,2,3,,0,1225.1,3.296343,0,0,0,,
1586,1,SBT2050,2,3,,0,1230,3.2961,0,0,0,,
1586,1,SBT2050,2,3,,0,1234.9,3.29606,0,0,0,,
1586,1,SBT2050,2,3,,0,1239.8,3.296195,0,0,0,,
1586,1,SBT2050,2,3,,0,1244.7,3.29594,0,0,0,,
1586,1,SBT2050,2,3,,0,1249.6,3.2962,0,0,0,,
1586,1,SBT2050,2,3,,0,1254.5,3.29624,0,0,0,,
1586,1,SBT2050,2,3,,0,1259.4,3.29629,0,0,0,,
1586,1,SBT2050,2,3,,0,1264.3,3.29617,0,0,0,,
1586,1,SBT2050,2,3,,0,1269.2,3.29612,0,0,0,,
1586,1,SBT2050,2,3,,0,1274.1,3.296148,0,0,0,,
1586,1,SBT2050,2,3,,0,1279,3.29608,0,0,0,,
1586,1,SBT2050,2,3,,0,1283.9,3.29591,0,0,0,,
1586,1,SBT2050,2,3,,0,1288.8,3.29601,0,0,0,,
1586,1,SBT2050,2,3,,0,1293.7,3.296146,0,0,0,,
1586,1,SBT2050,2,3,,0,1298.6,3.29613,0,0,0,,
1586,1,SBT2050,2,3,,0,1303.5,3.29611,0,0,0,,
1586,1,SBT2050,2,3,,0,1308.4,3.29637,0,0,0,,
1586,1,SBT2050,2,3,,0,1313.3,3.29616,0,0,0,,
1586,1,SBT2050,2,3,,0,1318.2,3.29612,0,0,0,,
1586,1,SBT2050,2,3,,0,1323.1,3.29606,0,0,0,,
1586,1,SBT2050,2,3,,0,1328,3.2961,0,0,0,,
1586,1,SBT2050,2,3,,0,1332.9,3.29629,0,0,0,,
1586,1,SBT2050,2,3,,0,1337.8,3.29615,0,0,0,,
1586,1,SBT2050,2,3,,0,1342.7,3.29611,0,0,0,,
1586,1,SBT2050,2,3,,0,1347.6,3.29617,0,0,0,,
1586,1,SBT2050,2,3,,0,1352.5,3.29629,0,0,0,,
1586,1,SBT2050,2,3,,0,1357.4,3.29598,0,0,0,,
1586,1,SBT2050,2,3,,0,1362.3,3.29581,0,0,0,,
1586,1,SBT2050,2,3,,0,1367.2,3.29609,0,0,0,,
1586,1,SBT2050,2,3,,0,1372.1,3.29608,0,0,0,,
1586,1,SBT2050,2,3,,0,1377,3.2961,0,0,0,,
1586,1,SBT2050,2,3,,0,1381.9,3.29602,0,0,0,,
1586,1,SBT2050,2,3,,0,1386.8,3.29603,0,0,0,,
1586,1,SBT2050,2,3,,0,1391.7,3.29604,0,0,0,,
1586,1,SBT2050,2,3,,0,1396.6,3.295944,0,0,0,,
1586,1,SBT2050,2,3,,0,1401.5,3.296224,0,0,0,,
1586,1,SBT2050,2,3,,0,1406.4,3.29599,0,0,0,,
1586,1,SBT2050,2,3,,0,1411.3,3.29599,0,0,0,,
1586,1,SBT2050,2,3,,0,1416.2,3.29586,0,0,0,,
1586,1,SBT2050,2,3,,0,1421.1,3.29598,0,0,0,,
1586,1,SBT2050,2,3,,0,1426,3.29584,0,0,0,,
1586,1,SBT2050,2,3,,0,1430.9,3.2959,0,0,0,,
1586,1,SBT2050,2,3,,0,1435.8,3.29586,0,0,0,,
1586,1,SBT2050,2,3,,0,1440.7,3.29572,0,0,0,,
1586,1,SBT2050,2,3,,0,1445.6,3.2959,0,0,0,,
1586,1,SBT2050,2,3,,0,1450.5,3.29585,0,0,0,,
1586,1,SBT2050,2,3,,0,1455.4,3.295885,0,0,0,,
1586,1,SBT2050,2,3,,0,1460.3,3.296161,0,0,0,,
1586,1,SBT2050,2,3,,0,1465.2,3.29585,0,0,0,,
1586,1,SBT2050,2,3,,0,1470.1,3.29595,0,0,0,,
1586,1,SBT2050,2,3,,0,1475,3.29603,0,0,0,,
1586,1,SBT2050,2,3,,0,1479.9,3.29596,0,0,0,,
1586,1,SBT2050,2,3,,0,1484.8,3.29584,0,0,0,,
1586,1,SBT2050,2,3,,0,1489.7,3.296,0,0,0,,
1586,1,SBT2050,2,3,,0,1494.6,3.29626,0,0,0,,
1586,1,SBT2050,2,3,,0,1499.5,3.29612,0,0,0,,
1586,1,SBT2050,2,3,,0,1504.4,3.296146,0,0,0,,
1586,1,SBT2050,2,3,,0,1509.3,3.296061,0,0,0,,
1586,1,SBT2050,2,3,,0,1514.2,3.29603,0,0,0,,
1586,1,SBT2050,2,3,,0,1519.1,3.29608,0,0,0,,
1586,1,SBT2050,2,3,,0,1524,3.29605,0,0,0,,
1586,1,SBT2050,2,3,,0,1528.9,3.29614,0,0,0,,
1586,1,SBT2050,2,3,,0,1533.8,3.29599,0,0,0,,
1586,1,SBT2050,2,3,,0,1538.7,3.295859,0,0,0,,
1586,1,SBT2050,2,3,,0,1543.6,3.29588,0,0,0,,
1586,1,SBT2050,2,3,,0,1548.5,3.2959,0,0,0,,
1586,1,SBT2050,2,3,,0,1553.4,3.29589,0,0,0,,
1586,1,SBT2050,2,3,,0,1558.3,3.29596,0,0,0,,
1586,1,SBT2050,2,3,,0,1563.2,3.29576,0,0,0,,
1586,1,SBT2050,2,3,,0,1568.1,3.29586,0,0,0,,
1586,1,SBT2050,2,3,,0,1573,3.29586,0,0,0,,
1586,1,SBT2050,2,3,,0,1577.9,3.296,0,0,0,,
1586,1,SBT2050,2,3,,0,1582.8,3.29635,0,0,0,,
1586,1,SBT2050,2,3,,0,1587.7,3.29601,0,0,0,,
1586,1,SBT2050,2,3,,0,1592.6,3.29614,0,0,0,,
1586,1,SBT2050,2,3,,0,1597.5,3.296015,0,0,0,,
1586,1,SBT2050,2,3,,0,1602.4,3.29604,0,0,0,,
1586,1,SBT2050,2,3,,0,1607.3,3.29609,0,0,0,,
1586,1,SBT2050,2,3,,0,1612.2,3.29617,0,0,0,,
1586,1,SBT2050,2,3,,0,1617.1,3.29625,0,0,0,,
1586,1,SBT2050,2,3,,0,1622,3.29594,0,0,0,,
1586,1,SBT2050,2,3,,0,1626.9,3.29612,0,0,0,,
1586,1,SBT2050,2,3,,0,1631.8,3.29577,0,0,0,,
1586,1,SBT2050,2,3,,0,1636.7,3.29592,0,0,0,,
1586,1,SBT2050,2,3,,0,1641.6,3.29602,0,0,0,,
1586,1,SBT2050,2,3,,0,1646.5,3.295873,0,0,0,,
1586,1,SBT2050,2,3,,0,1651.4,3.29627,0,0,0,,
1586,1,SBT2050,2,3,,0,1656.3,3.29622,0,0,0,,
1586,1,SBT2050,2,3,,0,1661.2,3.29618,0,0,0,,
1586,1,SBT2050,2,3,,0,1666.1,3.2961,0,0,0,,
1586,1,SBT2050,2,3,,0,1671,3.29591,0,0,0,25.2,
1586,1,SBT2050,2,3,,0,1675.9,3.2961,0,0,0,,
1586,1,SBT2050,2,3,,0,1680.8,3.2962,0,0,0,,
1586,1,SBT2050,2,3,,0,1685.7,3.296,0,0,0,,
1586,1,SBT2050,2,3,,0,1690.6,3.295819,0,0,0,,
1586,1,SBT2050,2,3,,0,1695.5,3.29607,0,0,0,,
1586,1,SBT2050,2,3,,0,1700.4,3.296,0,0,0,,
1586,1,SBT2050,2,3,,0,1705.3,3.29609,0,0,0,,
1586,1,SBT2050,2,3,,0,1710.2,3.296244,0,0,0,,
1586,1,SBT2050,2,3,,0,1715.1,3.29597,0,0,0,,
1586,1,SBT2050,2,3,,0,1720,3.29628,0,0,0,,
1586,1,SBT2050,2,3,,0,1724.9,3.29609,0,0,0,,
1586,1,SBT2050,2,3,,0,1729.8,3.29611,0,0,0,,
1586,1,SBT2050,2,3,,0,1734.7,3.29595,0,0,0,,
1586,1,SBT2050,2,3,,0,1739.6,3.2961,0,0,0,,
1586,1,SBT2050,2,3,,0,1744.5,3.29622,0,0,0,,
1586,1,SBT2050,2,3,,0,1749.4,3.29622,0,0,0,,
1586,1,SBT2050,2,3,,0,1754.3,3.29636,0,0,0,,
1586,1,SBT2050,2,3,,0,1759.2,3.296157,0,0,0,,
1586,1,SBT2050,2,3,,0,1764.1,3.295926,0,0,0,,
1586,1,SBT2050,2,3,,0,1769,3.29615,0,0,0,,
1586,1,SBT2050,2,3,,0,1773.9,3.29614,0,0,0,,
1586,1,SBT2050,2,3,,0,1778.8,3.29613,0,0,0,,
1586,1,SBT2050,2,3,,0,1783.7,3.29613,0,0,0,,
1586,1,SBT2050,2,3,,0,1788.6,3.296141,0,0,0,,
1586,1,SBT2050,2,3,,0,1793.5,3.29607,0,0,0,,
1586,1,SBT2050,2,3,,0,1798.4,3.29613,0,0,0,,
1586,1,SBT2050,2,3,,7,1803.2,3.36364,0.8352,0.112,0,,
1586,1,SBT2050,2,3,,7,1808.1,3.64983,4.6818,3.905,0,,
1586,1,SBT2050,2,3,,7,1812.9,3.798472,7.233,11.827,0,,
1586,1,SBT2050,2,3,,7,1817.8,3.89109,8.66,22.604,0,,
1586,1,SBT2050,2,3,,7,1822.6,3.93895,9.141,34.513,0,,
1586,1,SBT2050,2,3,,7,1827.5,3.95978,9.115,47.002,0,,
1586,1,SBT2050,2,3,,7,1832.3,3.95535,8.61,58.835,0,,
1586,1,SBT2050,2,3,,7,1837.2,3.95505,8.329,70.289,0,,
1586,1,SBT2050,2,3,,7,1842,3.96005,8.206,81.32,0,27.7,
1586,1,SBT2050,2,3,,7,1846.9,3.9637,8.078,92.412,0,,
1586,1,SBT2050,2,3,,7,1851.7,3.9662,7.981,103.116,0,,
1586,1,SBT2050,2,3,,7,1856.6,3.96719,7.867,113.887,0,,
1586,1,SBT2050,2,3,,7,1861.4,3.96722,7.751,124.29,0,,
1586,1,SBT2050,2,3,,7,1866.2,3.96653,7.645,134.55,0,,
1586,1,SBT2050,2,3,,7,1871.1,3.96486,7.542,144.888,0,,
1586,1,SBT2050,2,3,,7,1875.9,3.96333,7.444,154.883,0,,
1586,1,SBT2050,2,3,,7,1880.8,3.961256,7.352,164.964,0,,
1586,1,SBT2050,2,3,,7,1885.6,3.95936,7.282,174.722,0,,
1586,1,SBT2050,2,3,,7,1890.5,3.95672,7.199,184.568,0,,
1586,1,SBT2050,2,3,,7,1895.3,3.95388,7.122,194.112,0,,
1586,1,SBT2050,2,3,,7,1900.2,3.950726,7.046,203.753,0,,
1586,1,SBT2050,2,3,,7,1905,3.9478,6.974,213.105,0,33,
1586,1,SBT2050,2,3,,7,1909.9,3.9449,6.909,222.562,0,,
1586,1,SBT2050,2,3,,7,1914.7,3.94219,6.862,231.743,0,,
1586,1,SBT2050,2,3,,7,1919.6,3.939288,6.8,241.034,0,,
1586,1,SBT2050,2,3,,7,1924.4,3.93677,6.75,250.061,0,,
1586,1,SBT2050,2,3,,7,1929.2,3.93396,6.695,259.024,0,,
1586,1,SBT2050,2,3,,7,1934.1,3.931498,6.645,268.104,0,,
1586,1,SBT2050,2,3,,7,1938.9,3.92916,6.601,276.941,0,,
1586,1,SBT2050,2,3,,7,1943.8,3.92716,6.563,285.903,0,,
1586,1,SBT2050,2,3,,7,1948.6,3.92543,6.523,294.628,0,,
1586,1,SBT2050,2,3,,7,1953.5,3.92325,6.484,303.477,0,,
1586,1,SBT2050,2,3,,7,1958.3,3.92172,6.446,312.092,0,,
1586,1,SBT2050,2,3,,7,1963.2,3.9202,6.414,320.849,0,,
1586,1,SBT2050,2,3,,7,1968,3.91928,6.381,329.383,0,36,
1586,1,SBT2050,2,3,,7,1972.9,3.91798,6.352,338.051,0,,
1586,1,SBT2050,2,3,,7,1977.7,3.91692,6.326,346.501,0,,
1586,1,SBT2050,2,3,,7,1982.6,3.91573,6.291,355.084,0,,
1586,1,SBT2050,2,3,,7,1987.4,3.91532,6.268,363.457,0,,
1586,1,SBT2050,2,3,,7,1992.2,3.91421,6.236,371.792,0,,
1586,1,SBT2050,2,3,,7,1997.1,3.91395,6.218,380.272,0,,
1586,1,SBT2050,2,3,,7,2001.9,3.91306,6.187,388.54,0,,
1586,1,SBT2050,2,3,,7,2006.8,3.91248,6.162,396.946,0,,
1586,1,SBT2050,2,3,,7,2011.6,3.9124,6.143,405.148,0,,
1586,1,SBT2050,2,3,,7,2016.5,3.91251,6.124,413.493,0,,
1586,1,SBT2050,2,3,,7,2021.3,3.91188,6.1,421.641,0,,
1586,1,SBT2050,2,3,,7,2026.2,3.91172,6.071,429.926,0,,
1586,1,SBT2050,2,3,,7,2031,3.91145,6.046,438.007,0,37.6,
1586,1,SBT2050,2,3,,7,2035.9,3.9116,6.027,446.226,0,,
1586,1,SBT2050,2,3,,7,2040.7,3.91188,6.013,454.256,0,,
1586,1,SBT2050,2,3,,7,2045.6,3.91197,5.992,462.422,0,,
1586,1,SBT2050,2,3,,7,2050.4,3.91165,5.96,470.389,0,,
1586,1,SBT2050,2,3,,7,2055.2,3.911674,5.942,478.329,0,,
1586,1,SBT2050,2,3,,7,2060.1,3.91218,5.925,486.411,0,,
1586,1,SBT2050,2,3,,7,2064.9,3.91202,5.895,494.293,0,,
1586,1,SBT2050,2,3,,7,2069.8,3.9119,5.87,502.299,0,,
1586,1,SBT2050,2,3,,7,2074.6,3.91212,5.853,510.118,0,,
1586,1,SBT2050,2,3,,7,2079.5,3.91285,5.838,518.076,0,,
1586,1,SBT2050,2,3,,7,2084.3,3.91292,5.811,525.841,0,,
1586,1,SBT2050,2,3,,7,2089.2,3.91317,5.794,533.741,0,,
1586,1,SBT2050,2,3,,7,2094,3.91347,5.767,541.451,0,,
1586,1,SBT2050,2,3,,7,2098.9,3.914,5.753,549.291,0,,
1586,1,SBT2050,2,3,,7,2103.7,3.91427,5.735,556.949,0,,
1586,1,SBT2050,2,3,,7,2108.6,3.91441,5.706,564.73,0,,
1586,1,SBT2050,2,3,,7,2113.4,3.91459,5.677,572.317,0,,
1586,1,SBT2050,2,3,,7,2118.2,3.91512,5.65,579.869,0,,
1586,1,SBT2050,2,3,,7,2123.1,3.9157,5.637,587.553,0,,
1586,1,SBT2050,2,3,,7,2127.9,3.91603,5.613,595.058,0,,
1586,1,SBT2050,2,3,,7,2132.8,3.916414,5.584,602.679,0,,
1586,1,SBT2050,2,3,,7,2137.6,3.91718,5.567,610.114,0,,
1586,1,SBT2050,2,3,,7,2142.5,3.917374,5.542,617.674,0,,
1586,1,SBT2050,2,3,,7,2147.3,3.91769,5.516,625.047,0,,
1586,1,SBT2050,2,3,,7,2152.2,3.918096,5.492,632.54,0,,
1586,1,SBT2050,2,3,,7,2157,3.91917,5.483,639.862,0,,
1586,1,SBT2050,2,3,,7,2161.9,3.9195,5.451,647.309,0,,
1586,1,SBT2050,2,3,,7,2166.7,3.92003,5.425,654.558,0,,
1586,1,SBT2050,2,3,,7,2171.6,3.92032,5.404,661.928,0,,
1586,1,SBT2050,2,3,,7,2176.4,3.92084,5.376,669.113,0,,
1586,1,SBT2050,2,3,,7,2181.2,3.92146,5.355,676.268,0,,
1586,1,SBT2050,2,3,,7,2186.1,3.922388,5.334,683.543,0,,
1586,1,SBT2050,2,3,,7,2190.9,3.92266,5.308,690.641,0,,
1586,1,SBT2050,2,3,,7,2195.8,3.923604,5.287,697.855,0,,
1586,1,SBT2050,2,3,,7,2200.6,3.92481,5.279,704.901,0,,
1586,1,SBT2050,2,3,,7,2205.5,3.92491,5.246,712.06,0,,
1586,1,SBT2050,2,3,,7,2210.3,3.92564,5.221,719.038,0,,
1586,1,SBT2050,2,3,,7,2215.2,3.92586,5.186,726.121,0,,
1586,1,SBT2050,2,3,,7,2220,3.92639,5.163,733.024,0,38.4,
1586,1,SBT2050,2,3,,7,2224.9,3.92734,5.145,740.042,0,,
1586,1,SBT2050,2,3,,7,2229.7,3.92819,5.128,746.888,0,,
1586,1,SBT2050,2,3,,7,2234.6,3.92875,5.101,753.845,0,,
1586,1,SBT2050,2,3,,7,2239.4,3.92935,5.077,760.634,0,,
1586,1,SBT2050,2,3,,7,2244.2,3.92995,5.048,767.384,0,,
1586,1,SBT2050,2,3,,7,2249.1,3.9308,5.027,774.243,0,,
1586,1,SBT2050,2,3,,7,2253.9,3.93196,5.005,780.934,0,,
1586,1,SBT2050,2,3,,7,2258.8,3.93241,4.981,787.737,0,,
1586,1,SBT2050,2,3,,7,2263.6,3.933046,4.958,794.362,0,,
1586,1,SBT2050,2,3,,7,2268.5,3.934108,4.934,801.092,0,,
1586,1,SBT2050,2,3,,7,2273.3,3.9347,4.913,807.659,0,,
1586,1,SBT2050,2,3,,7,2278.2,3.935874,4.893,814.334,0,,
1586,1,SBT2050,2,3,,7,2283,3.93658,4.861,820.84,0,,
1586,1,SBT2050,2,3,,7,2287.9,3.936884,4.834,827.444,0,,
1586,1,SBT2050,2,3,,7,2292.7,3.937698,4.814,833.876,0,,
1586,1,SBT2050,2,3,,7,2297.6,3.93875,4.791,840.413,0,,
1586,1,SBT2050,2,3,,7,2302.4,3.93968,4.773,846.789,0,,
1586,1,SBT2050,2,3,,7,2307.2,3.94023,4.743,853.133,0,,
1586,1,SBT2050,2,3,,7,2312.1,3.94097,4.721,859.574,0,,
1586,1,SBT2050,2,3,,7,2316.9,3.941882,4.6988,865.859,0,,
1586,1,SBT2050,2,3,,7,2321.8,3.942828,4.6824,872.24,0,,
1586,1,SBT2050,2,3,,7,2326.6,3.94356,4.656,878.461,0,,
1586,1,SBT2050,2,3,,7,2331.5,3.9442,4.6261,884.777,0,,
1586,1,SBT2050,2,3,,7,2336.3,3.94491,4.6062,890.932,0,,
1586,1,SBT2050,2,3,,7,2341.2,3.94603,4.5824,897.185,0,,
1586,1,SBT2050,2,3,,7,2346,3.94662,4.5573,903.279,0,,
1586,1,SBT2050,2,3,,7,2350.9,3.947022,4.5303,909.467,0,,
1586,1,SBT2050,2,3,,7,2355.7,3.94808,4.5118,915.495,0,,
1586,1,SBT2050,2,3,,7,2360.6,3.949142,4.4926,921.622,0,,
1586,1,SBT2050,2,3,,7,2365.4,3.94959,4.4652,927.593,0,,
1586,1,SBT2050,2,3,,7,2370.2,3.9505,4.4453,933.532,0,,
1586,1,SBT2050,2,3,,7,2375.1,3.95179,4.4252,939.57,0,,
1586,1,SBT2050,2,3,,7,2379.9,3.95235,4.3971,945.452,0,,
1586,1,SBT2050,2,3,,7,2384.8,3.95308,4.376,951.425,0,,
1586,1,SBT2050,2,3,,7,2389.6,3.954132,4.3534,957.241,0,,
1586,1,SBT2050,2,3,,7,2394.5,3.95491,4.329,963.151,0,,
1586,1,SBT2050,2,3,,7,2399.3,3.955746,4.3063,968.907,0,,
1586,1,SBT2050,2,3,,7,2404.2,3.95635,4.2817,974.754,0,,
1586,1,SBT2050,2,3,,7,2409,3.95722,4.2602,980.448,0,,
1586,1,SBT2050,2,3,,7,2413.9,3.958186,4.2418,986.236,0,,
1586,1,SBT2050,2,3,,7,2418.7,3.959306,4.2243,991.88,0,,
1586,1,SBT2050,2,3,,7,2423.6,3.96067,4.2127,997.62,0,,
1586,1,SBT2050,2,3,,7,2428.4,3.96173,4.1976,1003.228,0,,
1586,1,SBT2050,2,3,,7,2433.2,3.96292,4.1858,1008.816,0,,
1586,1,SBT2050,2,3,,7,2438.1,3.96407,4.1677,1014.501,0,,
1586,1,SBT2050,2,3,,7,2442.9,3.96547,4.1571,1020.052,0,,
1586,1,SBT2050,2,3,,7,2447.8,3.96693,4.1443,1025.703,0,,
1586,1,SBT2050,2,3,,7,2452.6,3.96784,4.1314,1031.218,0,,
1586,1,SBT2050,2,3,,7,2457.5,3.96927,4.1191,1036.834,0,,
1586,1,SBT2050,2,3,,7,2462.3,3.970498,4.1036,1042.314,0,,
1586,1,SBT2050,2,3,,7,2467.2,3.97202,4.0932,1047.892,0,,
1586,1,SBT2050,2,3,,7,2472,3.973356,4.0763,1053.34,0,,
1586,1,SBT2050,2,3,,7,2476.9,3.9744,4.066,1058.882,0,,
1586,1,SBT2050,2,3,,7,2481.7,3.975724,4.0513,1064.294,0,,
1586,1,SBT2050,2,3,,7,2486.6,3.9773,4.0388,1069.798,0,,
1586,1,SBT2050,2,3,,7,2491.4,3.97829,4.0215,1075.172,0,,
1586,1,SBT2050,2,3,,7,2496.2,3.98003,4.011,1080.527,0,,
1586,1,SBT2050,2,3,,7,2501.1,3.98116,3.9983,1085.979,0,,
1586,1,SBT2050,2,3,,7,2505.9,3.98266,3.982,1091.3,0,,
1586,1,SBT2050,2,3,,7,2510.8,3.98399,3.9746,1096.715,0,,
1586,1,SBT2050,2,3,,7,2515.6,3.98531,3.9615,1102.006,0,,
1586,1,SBT2050,2,3,,7,2520.5,3.98674,3.9457,1107.386,0,,
1586,1,SBT2050,2,3,,7,2525.3,3.987514,3.9287,1112.635,0,,
1586,1,SBT2050,2,3,,7,2530.2,3.989056,3.9178,1117.975,0,,
1586,1,SBT2050,2,3,,7,2535,3.99036,3.9075,1123.193,0,,
1586,1,SBT2050,2,3,,7,2539.9,3.99139,3.8906,1128.5,0,,
1586,1,SBT2050,2,3,,7,2544.7,3.99307,3.882,1133.681,0,,
1586,1,SBT2050,2,3,,7,2549.6,3.99442,3.871,1138.957,0,,
1586,1,SBT2050,2,3,,7,2554.4,3.99559,3.8531,1144.104,0,,
1586,1,SBT2050,2,3,,7,2559.2,3.996654,3.8432,1149.236,0,,
1586,1,SBT2050,2,3,,7,2564.1,3.9982,3.8256,1154.454,0,,
1586,1,SBT2050,2,3,,7,2568.9,3.99942,3.815,1159.549,0,,
1586,1,SBT2050,2,3,,7,2573.8,4.000942,3.8065,1164.736,0,,
1586,1,SBT2050,2,3,,7,2578.6,4.00192,3.79,1169.798,0,,
1586,1,SBT2050,2,3,,7,2583.5,4.00352,3.7786,1174.948,0,,
1586,1,SBT2050,2,3,,7,2588.3,4.00498,3.7692,1179.98,0,,
1586,1,SBT2050,2,3,,7,2593.2,4.00591,3.752,1185.1,0,,
1586,1,SBT2050,2,3,,7,2598,4.00713,3.7417,1190.096,0,35.3,
1586,1,SBT2050,2,3,,7,2602.9,4.0083,3.7241,1195.179,0,,
1586,1,SBT2050,2,3,,7,2607.7,4.00947,3.7157,1200.139,0,,
1586,1,SBT2050,2,3,,7,2612.6,4.011,3.7052,1205.189,0,,
1586,1,SBT2050,2,3,,7,2617.4,4.01245,3.6957,1210.123,0,,
1586,1,SBT2050,2,3,,7,2622.2,4.01325,3.679,1215.04,0,,
1586,1,SBT2050,2,3,,7,2627.1,4.01462,3.6647,1220.04,0,,
1586,1,SBT2050,2,3,,7,2631.9,4.01582,3.6495,1224.917,0,,
1586,1,SBT2050,2,3,,7,2636.8,4.016964,3.6426,1229.88,0,,
1586,1,SBT2050,2,3,,7,2641.6,4.01827,3.6277,1234.728,0,,
1586,1,SBT2050,2,3,,7,2646.5,4.01966,3.6137,1239.655,0,,
1586,1,SBT2050,2,3,,7,2651.3,4.0209,3.6022,1244.467,0,,
1586,1,SBT2050,2,3,,7,2656.2,4.02197,3.5862,1249.358,0,,
1586,1,SBT2050,2,3,,7,2661,4.02309,3.5764,1254.135,0,,
1586,1,SBT2050,2,3,,7,2665.9,4.02434,3.5689,1258.998,0,,
1586,1,SBT2050,2,3,,7,2670.7,4.02588,3.5618,1263.752,0,,
1586,1,SBT2050,2,3,,7,2675.6,4.02723,3.544,1268.586,0,,
1586,1,SBT2050,2,3,,7,2680.4,4.02839,3.5329,1273.304,0,,
1586,1,SBT2050,2,3,,7,2685.2,4.02938,3.5151,1278.001,0,,
1586,1,SBT2050,2,3,,7,2690.1,4.03079,3.5016,1282.779,0,,
1586,1,SBT2050,2,3,,7,2694.9,4.03171,3.4862,1287.438,0,,
1586,1,SBT2050,2,3,,7,2699.8,4.03303,3.4785,1292.177,0,,
1586,1,SBT2050,2,3,,7,2704.6,4.034064,3.4666,1296.808,0,,
1586,1,SBT2050,2,3,,7,2709.5,4.03509,3.4562,1301.516,0,,
1586,1,SBT2050,2,3,,7,2714.3,4.03625,3.4444,1306.117,0,,
1586,1,SBT2050,2,3,,7,2719.2,4.03733,3.4297,1310.797,0,,
1586,1,SBT2050,2,3,,7,2724,4.0387,3.4136,1315.359,0,,
1586,1,SBT2050,2,3,,7,2728.9,4.03969,3.4038,1319.999,0,,
1586,1,SBT2050,2,3,,7,2733.7,4.04084,3.3975,1324.534,0,,
1586,1,SBT2050,2,3,,7,2738.6,4.04209,3.3789,1329.143,0,,
1586,1,SBT2050,2,3,,7,2743.4,4.04322,3.3694,1333.64,0,,
1586,1,SBT2050,2,3,,7,2748.2,4.044874,3.3607,1338.127,0,,
1586,1,SBT2050,2,3,,7,2753.1,4.04547,3.3431,1342.691,0,,
1586,1,SBT2050,2,3,,7,2757.9,4.04658,3.3327,1347.142,0,,
1586,1,SBT2050,2,3,,7,2762.8,4.04767,3.3163,1351.666,0,,
1586,1,SBT2050,2,3,,7,2767.6,4.048878,3.3061,1356.079,0,,
1586,1,SBT2050,2,3,,7,2772.5,4.04995,3.2941,1360.572,0,,
1586,1,SBT2050,2,3,,7,2777.3,4.05058,3.2783,1364.952,0,,
1586,1,SBT2050,2,3,,7,2782.2,4.05164,3.2636,1369.406,0,,
1586,1,SBT2050,2,3,,7,2787,4.05252,3.2487,1373.748,0,,
1586,1,SBT2050,2,3,,7,2791.9,4.053602,3.2408,1378.165,0,,
1586,1,SBT2050,2,3,,7,2796.7,4.05498,3.2354,1382.482,0,,
1586,1,SBT2050,2,3,,7,2801.6,4.0558,3.2194,1386.875,0,,
1586,1,SBT2050,2,3,,7,2806.4,4.05685,3.2077,1391.158,0,,
1586,1,SBT2050,2,3,,7,2811.2,4.05788,3.1995,1395.428,0,,
1586,1,SBT2050,2,3,,7,2816.1,4.05929,3.1928,1399.779,0,,
1586,1,SBT2050,2,3,,7,2820.9,4.06034,3.1794,1404.029,0,,
1586,1,SBT2050,2,3,,7,2825.8,4.06111,3.1659,1408.347,0,,
1586,1,SBT2050,2,3,,7,2830.6,4.06245,3.1573,1412.562,0,,
1586,1,SBT2050,2,3,,7,2835.5,4.06329,3.1372,1416.842,0,,
1586,1,SBT2050,2,3,,7,2840.3,4.064208,3.1271,1421.017,0,,
1586,1,SBT2050,2,3,,7,2845.2,4.0654,3.1178,1425.267,0,,
1586,1,SBT2050,2,3,,7,2850,4.06585,3.1007,1429.414,0,,
1586,1,SBT2050,2,3,,7,2854.9,4.0672,3.091,1433.628,0,,
1586,1,SBT2050,2,3,,7,2859.7,4.06813,3.0857,1437.745,0,,
1586,1,SBT2050,2,3,,7,2864.6,4.068826,3.0643,1441.927,0,,
1586,1,SBT2050,2,3,,7,2869.4,4.06973,3.0513,1446.005,0,,
1586,1,SBT2050,2,3,,7,2874.2,4.07022,3.0331,1450.06,0,,
1586,1,SBT2050,2,3,,7,2879.1,4.07166,3.026,1454.183,0,,
1586,1,SBT2050,2,3,,7,2883.9,4.07282,3.0213,1458.214,0,,
1586,1,SBT2050,2,3,,7,2888.8,4.07383,3.0128,1462.322,0,,
1586,1,SBT2050,2,3,,7,2893.6,4.07469,2.9988,1466.329,0,,
1586,1,SBT2050,2,3,,7,2898.5,4.07576,2.9907,1470.403,0,,
1586,1,SBT2050,2,3,,7,2903.3,4.07653,2.9812,1474.386,0,,
1586,1,SBT2050,2,3,,7,2908.2,4.07726,2.9652,1478.431,0,,
1586,1,SBT2050,2,3,,7,2913,4.07877,2.9599,1482.381,0,,
1586,1,SBT2050,2,3,,7,2917.9,4.07997,2.9511,1486.406,0,,
1586,1,SBT2050,2,3,,7,2922.7,4.08051,2.9377,1490.331,0,,
1586,1,SBT2050,2,3,,7,2927.6,4.081922,2.9313,1494.324,0,,
1586,1,SBT2050,2,3,,7,2932.4,4.08327,2.9286,1498.23,0,,
1586,1,SBT2050,2,3,,7,2937.2,4.08404,2.9114,1502.125,0,,
1586,1,SBT2050,2,3,,7,2942.1,4.08512,2.9038,1506.082,0,,
1586,1,SBT2050,2,3,,7,2946.9,4.085748,2.8865,1509.944,0,,
1586,1,SBT2050,2,3,,7,2951.8,4.0867,2.88,1513.867,0,,
1586,1,SBT2050,2,3,,7,2956.6,4.08819,2.8755,1517.704,0,,
1586,1,SBT2050,2,3,,7,2961.5,4.08958,2.8733,1521.615,0,,
1586,1,SBT2050,2,3,,7,2966.3,4.09046,2.8591,1525.439,0,,
1586,1,SBT2050,2,3,,7,2971.2,4.091462,2.8484,1529.322,0,,
1586,1,SBT2050,2,3,,7,2976,4.09248,2.8439,1533.117,0,,
1586,1,SBT2050,2,3,,7,2980.9,4.09341,2.8411,1536.986,0,,
1586,1,SBT2050,2,3,,7,2985.7,4.09437,2.8241,1540.762,0,,
1586,1,SBT2050,2,3,,7,2990.6,4.09556,2.8162,1544.599,0,,
1586,1,SBT2050,2,3,,7,2995.4,4.09676,2.808,1548.349,0,,
1586,1,SBT2050,2,3,,7,3000.2,4.09725,2.7922,1552.08,0,,
1586,1,SBT2050,2,3,,7,3005.1,4.0982,2.7815,1555.875,0,,
1586,1,SBT2050,2,3,,7,3009.9,4.09897,2.7721,1559.579,0,,
1586,1,SBT2050,2,3,,7,3014.8,4.10008,2.7623,1563.345,0,,
1586,1,SBT2050,2,3,,7,3019.6,4.101202,2.7573,1567.024,0,,
1586,1,SBT2050,2,3,,7,3024.5,4.10218,2.7456,1570.772,0,,
1586,1,SBT2050,2,3,,7,3029.3,4.103224,2.7332,1574.423,0,,
1586,1,SBT2050,2,3,,7,3034.2,4.10436,2.7289,1578.141,0,,
1586,1,SBT2050,2,3,,7,3039,4.10513,2.7147,1581.774,0,,
1586,1,SBT2050,2,3,,7,3043.9,4.10612,2.7048,1585.462,0,,
1586,1,SBT2050,2,3,,7,3048.7,4.10723,2.7018,1589.067,0,,
1586,1,SBT2050,2,3,,7,3053.6,4.10792,2.6908,1592.739,0,,
1586,1,SBT2050,2,3,,7,3058.4,4.10883,2.6787,1596.317,0,,
1586,1,SBT2050,2,3,,7,3063.2,4.10987,2.674,1599.885,0,,
1586,1,SBT2050,2,3,,7,3068.1,4.11087,2.6714,1603.524,0,,
1586,1,SBT2050,2,3,,7,3072.9,4.11211,2.6642,1607.084,0,,
1586,1,SBT2050,2,3,,7,3077.8,4.11299,2.6508,1610.7,0,,
1586,1,SBT2050,2,3,,7,3082.6,4.11417,2.6446,1614.229,0,,
1586,1,SBT2050,2,3,,7,3087.5,4.11498,2.6408,1617.826,0,,
1586,1,SBT2050,2,3,,7,3092.3,4.11604,2.6326,1621.345,0,,
1586,1,SBT2050,2,3,,7,3097.2,4.11697,2.6183,1624.918,0,,
1586,1,SBT2050,2,3,,7,3102,4.11806,2.6129,1628.405,0,,
1586,1,SBT2050,2,3,,7,3106.9,4.11882,2.6025,1631.958,0,,
1586,1,SBT2050,2,3,,7,3111.7,4.119576,2.5914,1635.42,0,,
1586,1,SBT2050,2,3,,7,3116.6,4.120544,2.5855,1638.942,0,,
1586,1,SBT2050,2,3,,7,3121.4,4.12107,2.5693,1642.379,0,,
1586,1,SBT2050,2,3,,7,3126.2,4.12204,2.5612,1645.8,0,,
1586,1,SBT2050,2,3,,7,3131.1,4.12303,2.5577,1649.284,0,,
1586,1,SBT2050,2,3,,7,3135.9,4.1242,2.5544,1652.693,0,,
1586,1,SBT2050,2,3,,7,3140.8,4.12571,2.551,1656.168,0,,
1586,1,SBT2050,2,3,,7,3145.6,4.1268,2.5469,1659.566,0,,
1586,1,SBT2050,2,3,,7,3150.5,4.127248,2.5311,1663.022,0,,
1586,1,SBT2050,2,3,,7,3155.3,4.12812,2.5243,1666.392,0,,
1586,1,SBT2050,2,3,,7,3160.2,4.12908,2.5154,1669.824,0,,
1586,1,SBT2050,2,3,,7,3165,4.12986,2.5073,1673.171,0,,
1586,1,SBT2050,2,3,,7,3169.9,4.13054,2.4967,1676.577,0,,
1586,1,SBT2050,2,3,,7,3174.7,4.13182,2.4928,1679.904,0,,
1586,1,SBT2050,2,3,,7,3179.6,4.132438,2.477,1683.285,0,,
1586,1,SBT2050,2,3,,7,3184.4,4.13304,2.4692,1686.582,0,,
1586,1,SBT2050,2,3,,7,3189.2,4.13407,2.4654,1689.872,0,,
1586,1,SBT2050,2,3,,7,3194.1,4.1351,2.4581,1693.224,0,,
1586,1,SBT2050,2,3,,7,3198.9,4.136032,2.4513,1696.493,0,,
1586,1,SBT2050,2,3,,7,3203.8,4.13715,2.4413,1699.822,0,,
1586,1,SBT2050,2,3,,7,3208.6,4.13795,2.4354,1703.073,0,,
1586,1,SBT2050,2,3,,7,3213.5,4.13859,2.4199,1706.376,0,,
1586,1,SBT2050,2,3,,7,3218.3,4.13928,2.4178,1709.601,0,,
1586,1,SBT2050,2,3,,7,3223.2,4.14034,2.4091,1712.886,0,,
1586,1,SBT2050,2,3,,7,3228,4.14138,2.4049,1716.095,0,,
1586,1,SBT2050,2,3,,7,3232.9,4.14157,2.3908,1719.363,0,,
1586,1,SBT2050,2,3,,7,3237.7,4.14269,2.3835,1722.545,0,,
1586,1,SBT2050,2,3,,7,3242.6,4.143712,2.3788,1725.786,0,,
1586,1,SBT2050,2,3,,7,3247.4,4.14465,2.3747,1728.954,0,,
1586,1,SBT2050,2,3,,7,3252.2,4.14572,2.3699,1732.117,0,,
1586,1,SBT2050,2,3,,7,3257.1,4.146516,2.3619,1735.34,0,,
1586,1,SBT2050,2,3,,7,3261.9,4.14726,2.3492,1738.481,0,,
1586,1,SBT2050,2,3,,7,3266.8,4.14833,2.3443,1741.675,0,,
1586,1,SBT2050,2,3,,7,3271.6,4.14911,2.3401,1744.798,0,,
1586,1,SBT2050,2,3,,7,3276.5,4.14993,2.3266,1747.975,0,,
1586,1,SBT2050,2,3,,7,3281.3,4.15079,2.3185,1751.072,0,,
1586,1,SBT2050,2,3,,7,3286.2,4.1515,2.3142,1754.224,0,,
1586,1,SBT2050,2,3,,7,3291,4.15261,2.3097,1757.307,0,,
1586,1,SBT2050,2,3,,7,3295.9,4.15331,2.2963,1760.445,0,,
1586,1,SBT2050,2,3,,7,3300.7,4.15411,2.2894,1763.502,0,,
1586,1,SBT2050,2,3,,7,3305.6,4.154742,2.284,1766.615,0,,
1586,1,SBT2050,2,3,,7,3310.4,4.15598,2.2766,1769.657,0,,
1586,1,SBT2050,2,3,,7,3315.2,4.156668,2.266,1772.685,0,,
1586,1,SBT2050,2,3,,7,3320.1,4.157492,2.2621,1775.766,0,,
1586,1,SBT2050,2,3,,7,3324.9,4.15811,2.2546,1778.778,0,,
1586,1,SBT2050,2,3,,7,3329.8,4.15948,2.2508,1781.844,0,,
1586,1,SBT2050,2,3,,7,3334.6,4.16051,2.2464,1784.842,0,,
1586,1,SBT2050,2,3,,7,3339.5,4.16065,2.2317,1787.887,0,,
1586,1,SBT2050,2,3,,7,3344.3,4.16168,2.2256,1790.858,0,,
1586,1,SBT2050,2,3,,7,3349.2,4.16243,2.2212,1793.885,0,,
1586,1,SBT2050,2,3,,7,3354,4.16376,2.2165,1796.844,0,,
1586,1,SBT2050,2,3,,7,3358.9,4.16462,2.2122,1799.858,0,,
1586,1,SBT2050,2,3,,7,3363.7,4.165354,2.2055,1802.805,0,,
1586,1,SBT2050,2,3,,7,3368.6,4.16596,2.1929,1805.796,0,,
1586,1,SBT2050,2,3,,7,3373.4,4.166788,2.1873,1808.716,0,,
1586,1,SBT2050,2,3,,7,3378.2,4.16777,2.1832,1811.631,0,,
1586,1,SBT2050,2,3,,7,3383.1,4.16897,2.1789,1814.6,0,,
1586,1,SBT2050,2,3,,7,3387.9,4.16976,2.1742,1817.502,0,,
1586,1,SBT2050,2,3,,7,3392.8,4.17075,2.167,1820.455,0,,
1586,1,SBT2050,2,3,,7,3397.6,4.17209,2.1656,1823.344,0,,
1586,1,SBT2050,2,3,,7,3402.5,4.17207,2.1511,1826.279,0,,
1586,1,SBT2050,2,3,,7,3407.3,4.17295,2.1457,1829.144,0,,
1586,1,SBT2050,2,3,,7,3412.2,4.17415,2.141,1832.061,0,,
1586,1,SBT2050,2,3,,7,3417,4.17446,2.1265,1834.906,0,,
1586,1,SBT2050,2,3,,7,3421.9,4.17493,2.1204,1837.796,0,,
1586,1,SBT2050,2,3,,7,3426.7,4.175952,2.1167,1840.621,0,,
1586,1,SBT2050,2,3,,7,3431.6,4.1769,2.1126,1843.498,0,,
1586,1,SBT2050,2,3,,7,3436.4,4.17786,2.1079,1846.312,0,,
1586,1,SBT2050,2,3,,7,3441.2,4.17828,2.0947,1849.114,0,,
1586,1,SBT2050,2,3,,7,3446.1,4.17881,2.0881,1851.961,0,,
1586,1,SBT2050,2,3,,7,3450.9,4.17977,2.0832,1854.742,0,,
1586,1,SBT2050,2,3,,7,3455.8,4.1808,2.0799,1857.575,0,,
1586,1,SBT2050,2,3,,7,3460.6,4.181282,2.07,1860.343,0,,
1586,1,SBT2050,2,3,,7,3465.5,4.18211,2.0606,1863.152,0,,
1586,1,SBT2050,2,3,,7,3470.3,4.18297,2.0557,1865.896,0,,
1586,1,SBT2050,2,3,,7,3475.2,4.18356,2.051,1868.691,0,,
1586,1,SBT2050,2,3,,7,3480,4.18459,2.0416,1871.422,0,30.1,
1586,1,SBT2050,2,3,,7,3484.9,4.1858,2.0408,1874.199,0,,
1586,1,SBT2050,2,3,,7,3489.7,4.186284,2.0359,1876.918,0,,
1586,1,SBT2050,2,3,,7,3494.6,4.18714,2.0248,1879.679,0,,
1586,1,SBT2050,2,3,,7,3499.4,4.1879,2.0193,1882.375,0,,
1586,1,SBT2050,2,3,,7,3504.2,4.18877,2.0153,1885.065,0,,
1586,1,SBT2050,2,3,,7,3509.1,4.18943,2.0076,1887.804,0,,
1586,1,SBT2050,2,3,,7,3513.9,4.18994,1.9966,1890.474,0,,
1586,1,SBT2050,2,3,,7,3518.8,4.190708,1.9916,1893.188,0,,
1586,1,SBT2050,2,3,,7,3523.6,4.19166,1.9875,1895.841,0,,
1586,1,SBT2050,2,3,,7,3528.5,4.19242,1.9834,1898.543,0,,
1586,1,SBT2050,2,3,,7,3533.3,4.193258,1.9742,1901.183,0,,
1586,1,SBT2050,2,3,,7,3538.2,4.19334,1.9646,1903.863,0,,
1586,1,SBT2050,2,3,,7,3543,4.19423,1.9598,1906.48,0,,
1586,1,SBT2050,2,3,,7,3547.9,4.19532,1.9567,1909.145,0,,
1586,1,SBT2050,2,3,,7,3552.7,4.196312,1.9525,1911.751,0,,
1586,1,SBT2050,2,3,,7,3557.6,4.19671,1.9431,1914.403,0,,
1586,1,SBT2050,2,3,,7,3562.4,4.19716,1.9341,1916.987,0,,
1586,1,SBT2050,2,3,,7,3567.2,4.19809,1.929,1919.562,0,,
1586,1,SBT2050,2,3,,7,3572.1,4.19892,1.9248,1922.185,0,,
1586,1,SBT2050,2,3,,7,3576.9,4.19996,1.9214,1924.75,0,,
1586,1,SBT2050,2,3,,7,3581.8,4.20103,1.917,1927.362,0,,
1586,1,SBT2050,2,3,,7,3586.6,4.2015,1.9043,1929.907,0,,
1586,1,SBT2050,2,3,,7,3591.5,4.202,1.8988,1932.494,0,,
1586,1,SBT2050,2,3,,7,3596.3,4.20283,1.8942,1935.023,0,,
1586,1,SBT2050,2,3,,7,3601.2,4.20387,1.8903,1937.599,0,,
1586,1,SBT2050,2,3,,7,3606,4.20472,1.886,1940.116,0,,
1586,1,SBT2050,2,3,,7,3610.9,4.20573,1.8824,1942.681,0,,
1586,1,SBT2050,2,3,,7,3615.7,4.20641,1.8754,1945.184,0,,
1586,1,SBT2050,2,3,,7,3620.6,4.207124,1.8658,1947.73,0,,
1586,1,SBT2050,2,3,,7,3625.4,4.20732,1.86,1950.213,0,,
1586,1,SBT2050,2,3,,7,3630.2,4.208656,1.8555,1952.69,0,,
1586,1,SBT2050,2,3,,7,3635.1,4.20942,1.8514,1955.213,0,,
1586,1,SBT2050,2,3,,7,3639.9,4.21014,1.8481,1957.679,0,,
1586,1,SBT2050,2,3,,7,3644.8,4.21072,1.8381,1960.187,0,,
1586,1,SBT2050,2,3,,7,3649.6,4.21143,1.8301,1962.631,0,,
1586,1,SBT2050,2,3,,7,3654.5,4.21215,1.8258,1965.118,0,,
1586,1,SBT2050,2,3,,7,3659.3,4.21274,1.8213,1967.55,0,,
1586,1,SBT2050,2,3,,7,3664.2,4.21362,1.8172,1970.026,0,,
1586,1,SBT2050,2,3,,7,3669,4.214638,1.8129,1972.446,0,,
1586,1,SBT2050,2,3,,7,3673.9,4.21555,1.8096,1974.912,0,,
1586,1,SBT2050,2,3,,7,3678.7,4.21611,1.8038,1977.32,0,,
1586,1,SBT2050,2,3,,7,3683.6,4.21699,1.7993,1979.769,0,,
1586,1,SBT2050,2,3,,7,3688.4,4.21772,1.7888,1982.16,0,,
1586,1,SBT2050,2,3,,7,3693.2,4.21809,1.7832,1984.541,0,,
1586,1,SBT2050,2,3,,7,3698.1,4.21907,1.7791,1986.966,0,,
1586,1,SBT2050,2,3,,7,3702.9,4.21986,1.7759,1989.336,0,,
1586,1,SBT2050,2,3,,7,3707.8,4.22062,1.7718,1991.749,0,,
1586,1,SBT2050,2,3,,7,3712.6,4.22127,1.7618,1994.105,0,,
1586,1,SBT2050,2,3,,7,3717.5,4.221506,1.7545,1996.497,0,,
1586,1,SBT2050,2,3,,7,3722.3,4.2224,1.7499,1998.833,0,,
1586,1,SBT2050,2,3,,7,3727.2,4.22328,1.7458,2001.212,0,,
1586,1,SBT2050,2,3,,7,3732,4.22395,1.7419,2003.537,0,,
1586,1,SBT2050,2,3,,7,3736.9,4.22487,1.7385,2005.906,0,,
1586,1,SBT2050,2,3,,7,3741.7,4.22592,1.7346,2008.221,0,,
1586,1,SBT2050,2,3,,7,3746.6,4.22622,1.7283,2010.578,0,,
1586,1,SBT2050,2,3,,7,3751.4,4.22754,1.7263,2012.881,0,,
1586,1,SBT2050,2,3,,7,3756.2,4.22778,1.7148,2015.175,0,,
1586,1,SBT2050,2,3,,7,3761.1,4.22854,1.7086,2017.505,0,,
1586,1,SBT2050,2,3,,7,3765.9,4.22935,1.7056,2019.781,0,,
1586,1,SBT2050,2,3,,7,3770.8,4.23012,1.7018,2022.1,0,,
1586,1,SBT2050,2,3,,7,3775.6,4.23101,1.6977,2024.365,0,,
1586,1,SBT2050,2,3,,7,3780.5,4.2316,1.6938,2026.673,0,,
1586,1,SBT2050,2,3,,7,3785.3,4.231906,1.6815,2028.922,0,,
1586,1,SBT2050,2,3,,7,3790.2,4.23291,1.676,2031.207,0,,
1586,1,SBT2050,2,3,,7,3795,4.233626,1.6725,2033.44,0,,
1586,1,SBT2050,2,3,,7,3799.9,4.234254,1.6691,2035.714,0,,
1586,1,SBT2050,2,3,,7,3804.7,4.23538,1.6657,2037.936,0,,
1586,1,SBT2050,2,3,,7,3809.6,4.23609,1.6613,2040.2,0,,
1586,1,SBT2050,2,3,,7,3814.4,4.236492,1.649,2042.405,0,,
1586,1,SBT2050,2,3,,7,3819.2,4.23694,1.6441,2044.601,0,,
1586,1,SBT2050,2,3,,7,3824.1,4.23765,1.6401,2046.836,0,,
1586,1,SBT2050,2,3,,7,3828.9,4.23843,1.6371,2049.021,0,,
1586,1,SBT2050,2,3,,7,3833.8,4.23943,1.6333,2051.246,0,,
1586,1,SBT2050,2,3,,7,3838.6,4.24018,1.6296,2053.422,0,,
1586,1,SBT2050,2,3,,7,3843.5,4.24044,1.621,2055.635,0,,
1586,1,SBT2050,2,3,,7,3848.3,4.240956,1.613,2057.791,0,,
1586,1,SBT2050,2,3,,7,3853.2,4.24192,1.6085,2059.983,0,,
1586,1,SBT2050,2,3,,7,3858,4.242496,1.6049,2062.126,0,,
1586,1,SBT2050,2,3,,7,3862.9,4.24318,1.6023,2064.308,0,,
1586,1,SBT2050,2,3,,7,3867.7,4.24408,1.5986,2066.441,0,,
1586,1,SBT2050,2,3,,7,3872.6,4.24497,1.5949,2068.614,0,,
1586,1,SBT2050,2,3,,7,3877.4,4.24561,1.5881,2070.737,0,,
1586,1,SBT2050,2,3,,7,3882.2,4.24595,1.5812,2072.85,0,,
1586,1,SBT2050,2,3,,7,3887.1,4.24657,1.5741,2074.997,0,,
1586,1,SBT2050,2,3,,7,3891.9,4.247302,1.5706,2077.094,0,,
1586,1,SBT2050,2,3,,7,3896.8,4.2482,1.567,2079.229,0,,
1586,1,SBT2050,2,3,,7,3901.6,4.24916,1.5635,2081.316,0,,
1586,1,SBT2050,2,3,,7,3906.5,4.24977,1.5601,2083.441,0,,
1586,1,SBT2050,2,3,,7,3911.3,4.25059,1.5564,2085.519,0,,
1586,1,SBT2050,2,3,,7,3916.2,4.25131,1.5528,2087.635,0,,
1586,1,SBT2050,2,3,,7,3921,4.25186,1.5493,2089.703,0,,
1586,1,SBT2050,2,3,,7,3925.9,4.25304,1.5464,2091.809,0,,
1586,1,SBT2050,2,3,,7,3930.7,4.25316,1.5391,2093.865,0,,
1586,1,SBT2050,2,3,,7,3935.6,4.25446,1.5385,2095.96,0,,
1586,1,SBT2050,2,3,,7,3940.4,4.25487,1.5325,2098.009,0,,
1586,1,SBT2050,2,3,,7,3945.2,4.25629,1.5294,2100.048,0,,
1586,1,SBT2050,2,3,,7,3950.1,4.25633,1.523,2102.128,0,,
1586,1,SBT2050,2,3,,7,3954.9,4.256916,1.5164,2104.153,0,,
1586,1,SBT2050,2,3,,7,3959.8,4.25758,1.5122,2106.213,0,,
1586,1,SBT2050,2,3,,7,3964.6,4.25809,1.5087,2108.227,0,,
1586,1,SBT2050,2,3,,7,3969.5,4.25891,1.5049,2110.277,0,,
1586,1,SBT2050,2,3,,7,3974.3,4.259418,1.5015,2112.282,0,,
1586,1,SBT2050,2,3,,7,3979.2,4.26022,1.4982,2114.323,0,,
1586,1,SBT2050,2,3,,7,3984,4.26098,1.4947,2116.319,0,,
1586,1,SBT2050,2,3,,7,3988.9,4.26157,1.4912,2118.351,0,,
1586,1,SBT2050,2,3,,7,3993.7,4.26244,1.4879,2120.336,0,,
1586,1,SBT2050,2,3,,7,3998.6,4.26323,1.4841,2122.359,0,,
1586,1,SBT2050,2,3,,7,4003.4,4.26384,1.4807,2124.335,0,,
1586,1,SBT2050,2,3,,7,4008.201,4.26443,1.4769,2126.308,0,,
1586,1,SBT2050,2,3,,7,4013.1,4.265248,1.4732,2128.315,0,,
1586,1,SBT2050,2,3,,7,4017.9,4.26591,1.4705,2130.277,0,,
1586,1,SBT2050,2,3,,7,4022.8,4.26624,1.4621,2132.269,0,,
1586,1,SBT2050,2,3,,7,4027.6,4.26737,1.463,2134.22,0,,
1586,1,SBT2050,2,3,,7,4032.5,4.26809,1.4596,2136.209,0,,
1586,1,SBT2050,2,3,,7,4037.3,4.26854,1.4513,2138.151,0,,
1586,1,SBT2050,2,3,,7,4042.2,4.26927,1.4522,2140.128,0,,
1586,1,SBT2050,2,3,,7,4047,4.27012,1.4485,2142.062,0,,
1586,1,SBT2050,2,3,,7,4051.9,4.27047,1.4411,2144.03,0,,
1586,1,SBT2050,2,3,,7,4056.7,4.27088,1.4347,2145.945,0,,
1586,1,SBT2050,2,3,,7,4061.6,4.27151,1.4315,2147.896,0,,
1586,1,SBT2050,2,3,,7,4066.4,4.27197,1.4279,2149.802,0,,
1586,1,SBT2050,2,3,,7,4071.215,4.27248,1.4244,2151.71,0,,
1586,1,SBT2050,2,3,,7,4076.1,4.27308,1.4211,2153.64,0,,
1586,1,SBT2050,2,3,,7,4080.9,4.27383,1.4183,2155.533,0,,
1586,1,SBT2050,2,3,,7,4085.8,4.27446,1.4148,2157.46,0,,
1586,1,SBT2050,2,3,,7,4090.6,4.27529,1.4115,2159.344,0,,
1586,1,SBT2050,2,3,,7,4095.5,4.27558,1.408,2161.263,0,,
1586,1,SBT2050,2,3,,7,4100.3,4.276182,1.4042,2163.138,0,,
1586,1,SBT2050,2,3,,7,4105.2,4.27685,1.4009,2165.047,0,,
1586,1,SBT2050,2,3,,7,4110,4.27735,1.3971,2166.913,0,,
1586,1,SBT2050,2,3,,7,4114.9,4.278038,1.3943,2168.812,0,,
1586,1,SBT2050,2,3,,7,4119.7,4.278552,1.3908,2170.669,0,,
1586,1,SBT2050,2,3,,7,4124.6,4.27938,1.3872,2172.559,0,,
1586,1,SBT2050,2,3,,7,4129.4,4.2796,1.384,2174.407,0,,
1586,1,SBT2050,2,3,,7,4134.229,4.280424,1.3802,2176.261,0,,
1586,1,SBT2050,2,3,,7,4139.1,4.28073,1.377,2178.126,0,,
1586,1,SBT2050,2,3,,7,4143.9,4.28156,1.3741,2179.96,0,,
1586,1,SBT2050,2,3,,7,4148.8,4.28197,1.3707,2181.828,0,,
1586,1,SBT2050,2,3,,7,4153.6,4.28254,1.3672,2183.653,0,,
1586,1,SBT2050,2,3,,7,4158.5,4.28289,1.3634,2185.511,0,,
1586,1,SBT2050,2,3,,7,4163.3,4.28335,1.3601,2187.327,0,,
1586,1,SBT2050,2,3,,7,4168.2,4.28406,1.3592,2189.176,0,,
1586,1,SBT2050,2,3,,7,4173,4.284368,1.3558,2190.985,0,28.5,
1586,1,SBT2050,2,3,,7,4177.9,4.28491,1.3531,2192.828,0,,
1586,1,SBT2050,2,3,,7,4182.7,4.28554,1.3494,2194.629,0,,
1586,1,SBT2050,2,3,,7,4187.6,4.28561,1.3432,2196.46,0,,
1586,1,SBT2050,2,3,,7,4192.4,4.286,1.3429,2198.249,0,,
1586,1,SBT2050,2,3,,7,4197.243,4.2865,1.3393,2200.054,0,,
1586,1,SBT2050,2,3,,7,4202.1,4.28695,1.3359,2201.859,0,,
1586,1,SBT2050,2,3,,7,4206.9,4.28725,1.3335,2203.639,0,,
1586,1,SBT2050,2,3,,7,4211.8,4.28796,1.3301,2205.451,0,,
1586,1,SBT2050,2,3,,7,4216.6,4.28829,1.3271,2207.223,0,,
1586,1,SBT2050,2,3,,7,4221.5,4.28857,1.3238,2209.027,0,,
1586,1,SBT2050,2,3,,7,4226.3,4.28855,1.3207,2210.79,0,,
1586,1,SBT2050,2,3,,7,4231.2,4.289184,1.3174,2212.585,0,,
1586,1,SBT2050,2,3,,7,4236,4.2896,1.3144,2214.341,0,28.7,
1586,1,SBT2050,2,3,,7,4240.9,4.29014,1.315,2216.131,0,,
1586,1,SBT2050,2,3,,7,4245.7,4.29038,1.3116,2217.882,0,,
1586,1,SBT2050,2,3,,7,4250.6,4.29044,1.3086,2219.665,0,,
1586,1,SBT2050,2,3,,7,4255.4,4.290966,1.3057,2221.407,0,,
1586,1,SBT2050,2,3,,7,4260.257,4.29102,1.303,2223.167,0,,
1586,1,SBT2050,2,3,,7,4265.1,4.29142,1.2995,2224.918,0,,
1586,1,SBT2050,2,3,,7,4269.9,4.29144,1.2972,2226.649,0,,
1586,1,SBT2050,2,3,,7,4274.8,4.292118,1.2975,2228.415,0,,
1586,1,SBT2050,2,3,,7,4279.6,4.29216,1.2948,2230.141,0,,
1586,1,SBT2050,2,3,,7,4284.5,4.29269,1.2914,2231.901,0,,
1586,1,SBT2050,2,3,,7,4289.3,4.29279,1.289,2233.621,0,,
1586,1,SBT2050,2,3,,7,4294.2,4.29327,1.286,2235.373,0,,
1586,1,SBT2050,2,3,,7,4299,4.29329,1.2834,2237.086,0,,
1586,1,SBT2050,2,3,,7,4303.9,4.293384,1.2812,2238.832,0,,
1586,1,SBT2050,2,3,,7,4308.7,4.29379,1.2813,2240.541,0,,
1586,1,SBT2050,2,3,,7,4313.6,4.29408,1.2787,2242.283,0,,
1586,1,SBT2050,2,3,,7,4318.4,4.29407,1.2759,2243.986,0,,
1586,1,SBT2050,2,3,,7,4323.271,4.29424,1.2761,2245.713,0,,
1586,1,SBT2050,2,3,,7,4328.1,4.29483,1.2738,2247.423,0,,
1586,1,SBT2050,2,3,,7,4332.9,4.2947,1.272,2249.12,0,,
1586,1,SBT2050,2,3,,7,4337.8,4.29446,1.2692,2250.849,0,,
1586,1,SBT2050,2,3,,7,4342.6,4.29481,1.2668,2252.54,0,,
1586,1,SBT2050,2,3,,7,4347.5,4.29503,1.2685,2254.264,0,,
1586,1,SBT2050,2,3,,7,4352.3,4.29483,1.265,2255.952,0,,
1586,1,SBT2050,2,3,,7,4357.2,4.29489,1.2624,2257.673,0,,
1586,1,SBT2050,2,3,,7,4362,4.2953,1.2627,2259.357,0,,
1586,1,SBT2050,2,3,,7,4366.9,4.29501,1.2585,2261.072,0,,
1586,1,SBT2050,2,3,,7,4371.7,4.29509,1.2594,2262.753,0,,
1586,1,SBT2050,2,3,,7,4376.6,4.295384,1.257,2264.465,0,,
1586,1,SBT2050,2,3,,7,4381.4,4.29501,1.2548,2266.14,0,,
1586,1,SBT2050,2,3,,7,4386.285,4.29549,1.2556,2267.845,0,,
1586,1,SBT2050,2,3,,7,4391.1,4.29511,1.2536,2269.522,0,,
1586,1,SBT2050,2,3,,7,4395.9,4.29547,1.2559,2271.196,0,,
1586,1,SBT2050,2,3,,7,4400.8,4.295466,1.253,2272.902,0,,
1586,1,SBT2050,2,3,,7,4405.6,4.29553,1.2537,2274.571,0,,
1586,1,SBT2050,2,3,,7,4410.5,4.29515,1.2518,2276.277,0,,
1586,1,SBT2050,2,3,,7,4415.3,4.29525,1.2501,2277.945,0,,
1586,1,SBT2050,2,3,,7,4420.2,4.295358,1.253,2279.648,0,,
1586,1,SBT2050,2,3,,7,4425,4.29537,1.2495,2281.315,0,,
1586,1,SBT2050,2,3,,7,4429.9,4.295438,1.2509,2283.016,0,,
1586,1,SBT2050,2,3,,7,4434.7,4.29502,1.2491,2284.683,0,,
1586,1,SBT2050,2,3,,7,4439.6,4.2949,1.2477,2286.382,0,,
1586,1,SBT2050,2,3,,7,4444.4,4.29509,1.2501,2288.046,0,,
1586,1,SBT2050,2,3,,7,4449.299,4.29436,1.2472,2289.746,0,,
1586,1,SBT2050,2,3,,7,4454.1,4.29448,1.2504,2291.409,0,,
1586,1,SBT2050,2,3,,7,4458.9,4.2942,1.2475,2293.075,0,,
1586,1,SBT2050,2,3,,7,4463.8,4.29429,1.2516,2294.777,0,,
1586,1,SBT2050,2,3,,7,4468.6,4.29364,1.248,2296.441,0,,
1586,1,SBT2050,2,3,,7,4473.5,4.29369,1.2519,2298.142,0,,
1586,1,SBT2050,2,3,,7,4478.3,4.29343,1.2478,2299.808,0,,
1586,1,SBT2050,2,3,,7,4483.2,4.29351,1.2528,2301.51,0,,
1586,1,SBT2050,2,3,,7,4488,4.29278,1.2487,2303.177,0,,
1586,1,SBT2050,2,3,,7,4492.9,4.29281,1.2525,2304.878,0,,
1586,1,SBT2050,2,3,,7,4497.7,4.29224,1.2495,2306.548,0,,
1586,1,SBT2050,2,3,,7,4502.6,4.29247,1.2551,2308.255,0,,
1586,1,SBT2050,2,3,,7,4507.4,4.29201,1.2533,2309.924,0,,
1586,1,SBT2050,2,3,,7,4512.3,4.29217,1.2568,2311.635,0,,
1586,1,SBT2050,2,3,,7,4517.1,4.29165,1.2566,2313.307,0,,
1586,1,SBT2050,2,3,,7,4521.9,4.291602,1.259,2314.985,0,,
1586,1,SBT2050,2,3,,7,4526.8,4.29105,1.2557,2316.697,0,,
1586,1,SBT2050,2,3,,7,4531.6,4.29057,1.2554,2318.371,0,,
1586,1,SBT2050,2,3,,7,4536.5,4.29064,1.2641,2320.088,0,,
1586,1,SBT2050,2,3,,7,4541.3,4.29093,1.2715,2321.778,0,,
1586,1,SBT2050,2,3,,7,4546.2,4.29128,1.2758,2323.51,0,,
1586,1,SBT2050,2,3,,7,4551,4.29118,1.2791,2325.214,0,31.1,
1586,1,SBT2050,2,3,,7,4555.9,4.29115,1.2837,2326.957,0,,
1586,1,SBT2050,2,3,,7,4560.7,4.29125,1.2916,2328.674,0,,
1586,1,SBT2050,2,3,,7,4565.6,4.29162,1.3004,2330.439,0,,
1586,1,SBT2050,2,3,,7,4570.4,4.292566,1.3098,2332.178,0,,
1586,1,SBT2050,2,3,,7,4575.3,4.29333,1.3233,2333.968,0,,
1586,1,SBT2050,2,3,,7,4580.1,4.294474,1.3405,2335.742,0,,
1586,1,SBT2050,2,3,,7,4584.9,4.29599,1.3579,2337.542,0,,
1586,1,SBT2050,2,3,,7,4589.8,4.29782,1.379,2339.405,0,,
1586,1,SBT2050,2,3,,7,4594.6,4.300482,1.409,2341.265,0,,
1586,1,SBT2050,2,3,,7,4599.5,4.302722,1.431,2343.2,0,,
1586,1,SBT2050,2,3,,7,4604.3,4.3061,1.4633,2345.128,0,,
1586,1,SBT2050,2,3,,7,4609.2,4.30899,1.4938,2347.141,0,,
1586,1,SBT2050,2,3,,7,4614,4.312194,1.5271,2349.153,0,,
1586,1,SBT2050,2,3,,7,4618.9,4.31584,1.5573,2351.253,0,,
1586,1,SBT2050,2,3,,7,4623.7,4.31934,1.5925,2353.355,0,,
1586,1,SBT2050,2,3,,7,4628.6,4.3232,1.6302,2355.55,0,,
1586,1,SBT2050,2,3,,7,4633.4,4.32754,1.6732,2357.752,0,,
1586,1,SBT2050,2,3,,7,4638.3,4.33161,1.7129,2360.055,0,,
1586,1,SBT2050,2,3,,7,4643.1,4.335938,1.7541,2362.362,0,,
1586,1,SBT2050,2,3,,7,4647.9,4.339764,1.7876,2364.724,0,,
1586,1,SBT2050,2,3,,7,4652.8,4.344892,1.8393,2367.196,0,,
1586,1,SBT2050,2,3,,7,4657.6,4.35028,1.8919,2369.688,0,,
1586,1,SBT2050,2,3,,7,4662.5,4.35584,1.9454,2372.301,0,,
1586,1,SBT2050,2,3,,7,4667.3,4.36073,1.9966,2374.928,0,,
1586,1,SBT2050,2,3,,7,4672.2,4.36651,2.0579,2377.682,0,,
1586,1,SBT2050,2,3,,7,4677,4.372262,2.1148,2380.459,0,,
1586,1,SBT2050,2,3,,7,4681.9,4.37732,2.1584,2383.367,0,,
1586,1,SBT2050,2,3,,7,4686.7,4.3832,2.2236,2386.293,0,,
1586,1,SBT2050,2,3,,7,4691.6,4.39029,2.2917,2389.37,0,,
1586,1,SBT2050,2,3,,7,4696.4,4.396422,2.362,2392.472,0,,
1586,1,SBT2050,2,3,,7,4698.989,4.40003,2.4076,2394.184,0,,