File: ORRG/Test1549.csv
Request Year:,2018,,,,,,,,,,,,
Test:,1549,,,,,,,,,,,,
Test Description:,,,,,,,,,,,,,
TestRegime Name:,Aging_test caseB_1,,,,,,,,,,,,
TestRegime Suffix:,SHP_LC,,,,,,,,,,,,
TestRegime CellSize:,18650,,,,,,,,,,,,
TestRegime Version:,3,,,,,,,,,,,,
Number Of Cells:,1,,,,,,,,,,,,
LotID:,,,,,,,,,,,,,
Lot Description:,,,,,,,,,,,,,
Date Made:,1/21/2003 12:00 AM,,,,,,,,,,,,
Origin:,Other,,,,,,,,,,,,
Requestor:,Admin,,,,,,,,,,,,
Product ID:,Default product,,,,,,,,,,,,
Storage Temp:,R.T./AMB,,,,,,,,,,,,
Storage Delay:,0 days,,,,,,,,,,,,
Test Temp:,R.T./AMB,,,,,,,,,,,,
Start Time:,4/25/2018 2:23 AM,,,,,,,,,,,,
End Time:,4/25/2018 3:39 AM,,,,,,,,,,,,
Operator Instructions:,,,,,,,,,,,,,
Test,Cell,Rack,Shelf,Position,Cell ID,Step,Total Time (Seconds),Voltage (V),Current (A),Charge Capacity (mAh),Discharge Capacity (mAh),Trs (Â°C),
1549,1,SBT2050,2,3,,0,0.1,3.37898,0,0,0,,
1549,1,SBT2050,2,3,,0,4.9,3.379266,0,0,0,,
1549,1,SBT2050,2,3,,0,9.7,3.37947,0,0,0,,
1549,1,SBT2050,2,3,,0,14.5,3.379126,0,0,0,,
1549,1,SBT2050,2,3,,0,19.3,3.37915,0,0,0,,
1549,1,SBT2050,2,3,,0,24.1,3.379,0,0,0,,
1549,1,SBT2050,2,3,,0,28.9,3.37921,0,0,0,,
1549,1,SBT2050,2,3,,0,33.7,3.3792,0,0,0,,
1549,1,SBT2050,2,3,,0,38.5,3.37913,0,0,0,,
1549,1,SBT2050,2,3,,0,43.3,3.37909,0,0,0,,
1549,1,SBT2050,2,3,,0,48.1,3.3791,0,0,0,,
1549,1,SBT2050,2,3,,0,52.9,3.37904,0,0,0,,
1549,1,SBT2050,2,3,,0,57.7,3.37916,0,0,0,,
1549,1,SBT2050,2,3,,0,62.5,3.37909,0,0,0,,
1549,1,SBT2050,2,3,,0,67.3,3.379052,0,0,0,,
1549,1,SBT2050,2,3,,0,72.1,3.37896,0,0,0,,
1549,1,SBT2050,2,3,,0,76.9,3.379154,0,0,0,,
1549,1,SBT2050,2,3,,0,81.7,3.37898,0,0,0,,
1549,1,SBT2050,2,3,,0,86.5,3.37911,0,0,0,,
1549,1,SBT2050,2,3,,0,91.3,3.37936,0,0,0,,
1549,1,SBT2050,2,3,,0,96.1,3.379454,0,0,0,,
1549,1,SBT2050,2,3,,0,100.9,3.37921,0,0,0,,
1549,1,SBT2050,2,3,,0,105.7,3.37953,0,0,0,,
1549,1,SBT2050,2,3,,0,110.5,3.379308,0,0,0,,
1549,1,SBT2050,2,3,,0,115.3,3.379438,0,0,0,,
1549,1,SBT2050,2,3,,0,120.1,3.37949,0,0,0,,
1549,1,SBT2050,2,3,,0,124.9,3.37918,0,0,0,,
1549,1,SBT2050,2,3,,0,129.7,3.3794,0,0,0,,
1549,1,SBT2050,2,3,,0,134.5,3.37954,0,0,0,,
1549,1,SBT2050,2,3,,0,139.3,3.37965,0,0,0,,
1549,1,SBT2050,2,3,,0,144.1,3.379608,0,0,0,,
1549,1,SBT2050,2,3,,0,148.9,3.37959,0,0,0,,
1549,1,SBT2050,2,3,,0,153.7,3.37947,0,0,0,,
1549,1,SBT2050,2,3,,0,158.5,3.379628,0,0,0,,
1549,1,SBT2050,2,3,,0,163.3,3.37944,0,0,0,,
1549,1,SBT2050,2,3,,0,168.1,3.37972,0,0,0,,
1549,1,SBT2050,2,3,,0,172.9,3.37946,0,0,0,,
1549,1,SBT2050,2,3,,0,177.7,3.37978,0,0,0,,
1549,1,SBT2050,2,3,,0,182.5,3.37961,0,0,0,,
1549,1,SBT2050,2,3,,0,187.3,3.3796,0,0,0,,
1549,1,SBT2050,2,3,,0,192.1,3.37964,0,0,0,,
1549,1,SBT2050,2,3,,0,196.9,3.37975,0,0,0,,
1549,1,SBT2050,2,3,,0,201.7,3.379544,0,0,0,,
1549,1,SBT2050,2,3,,0,206.5,3.37961,0,0,0,,
1549,1,SBT2050,2,3,,0,211.3,3.37967,0,0,0,,
1549,1,SBT2050,2,3,,0,216.1,3.379512,0,0,0,,
1549,1,SBT2050,2,3,,0,220.9,3.379532,0,0,0,,
1549,1,SBT2050,2,3,,0,225.7,3.37968,0,0,0,,
1549,1,SBT2050,2,3,,0,230.5,3.37972,0,0,0,,
1549,1,SBT2050,2,3,,0,235.3,3.37969,0,0,0,,
1549,1,SBT2050,2,3,,0,240.1,3.379556,0,0,0,,
1549,1,SBT2050,2,3,,0,244.9,3.37938,0,0,0,,
1549,1,SBT2050,2,3,,0,249.7,3.37967,0,0,0,,
1549,1,SBT2050,2,3,,0,254.5,3.37958,0,0,0,,
1549,1,SBT2050,2,3,,0,259.3,3.3798,0,0,0,,
1549,1,SBT2050,2,3,,0,264.1,3.379838,0,0,0,,
1549,1,SBT2050,2,3,,0,268.9,3.37983,0,0,0,,
1549,1,SBT2050,2,3,,0,273.7,3.37996,0,0,0,,
1549,1,SBT2050,2,3,,0,278.5,3.379772,0,0,0,,
1549,1,SBT2050,2,3,,0,283.3,3.37977,0,0,0,,
1549,1,SBT2050,2,3,,0,288.1,3.37983,0,0,0,,
1549,1,SBT2050,2,3,,0,292.9,3.3797,0,0,0,,
1549,1,SBT2050,2,3,,0,297.7,3.380018,0,0,0,,
1549,1,SBT2050,2,3,,0,302.5,3.379846,0,0,0,,
1549,1,SBT2050,2,3,,0,307.3,3.37984,0,0,0,,
1549,1,SBT2050,2,3,,0,312.1,3.37978,0,0,0,,
1549,1,SBT2050,2,3,,0,316.9,3.37969,0,0,0,,
1549,1,SBT2050,2,3,,0,321.7,3.37963,0,0,0,,
1549,1,SBT2050,2,3,,0,326.5,3.37976,0,0,0,,
1549,1,SBT2050,2,3,,0,331.3,3.37984,0,0,0,,
1549,1,SBT2050,2,3,,0,336.1,3.37973,0,0,0,,
1549,1,SBT2050,2,3,,0,340.9,3.37995,0,0,0,,
1549,1,SBT2050,2,3,,0,345.7,3.37987,0,0,0,,
1549,1,SBT2050,2,3,,0,350.5,3.37969,0,0,0,,
1549,1,SBT2050,2,3,,0,355.3,3.37996,0,0,0,,
1549,1,SBT2050,2,3,,0,360.1,3.37982,0,0,0,,
1549,1,SBT2050,2,3,,0,364.9,3.37982,0,0,0,,
1549,1,SBT2050,2,3,,0,369.7,3.37981,0,0,0,,
1549,1,SBT2050,2,3,,0,374.5,3.3799,0,0,0,,
1549,1,SBT2050,2,3,,0,379.3,3.38009,0,0,0,,
1549,1,SBT2050,2,3,,0,384.1,3.37984,0,0,0,,
1549,1,SBT2050,2,3,,0,388.9,3.38006,0,0,0,,
1549,1,SBT2050,2,3,,0,393.7,3.37999,0,0,0,,
1549,1,SBT2050,2,3,,0,398.5,3.38007,0,0,0,,
1549,1,SBT2050,2,3,,0,403.3,3.38028,0,0,0,,
1549,1,SBT2050,2,3,,0,408.1,3.38006,0,0,0,,
1549,1,SBT2050,2,3,,0,412.9,3.38007,0,0,0,,
1549,1,SBT2050,2,3,,0,417.7,3.38026,0,0,0,,
1549,1,SBT2050,2,3,,0,422.5,3.38023,0,0,0,,
1549,1,SBT2050,2,3,,0,427.3,3.38006,0,0,0,,
1549,1,SBT2050,2,3,,0,432.1,3.380252,0,0,0,,
1549,1,SBT2050,2,3,,0,436.9,3.38026,0,0,0,,
1549,1,SBT2050,2,3,,0,441.7,3.3802,0,0,0,,
1549,1,SBT2050,2,3,,0,446.5,3.38023,0,0,0,,
1549,1,SBT2050,2,3,,0,451.3,3.38009,0,0,0,,
1549,1,SBT2050,2,3,,0,456.1,3.3801,0,0,0,,
1549,1,SBT2050,2,3,,0,460.9,3.37989,0,0,0,,
1549,1,SBT2050,2,3,,0,465.7,3.38017,0,0,0,,
1549,1,SBT2050,2,3,,0,470.5,3.38019,0,0,0,,
1549,1,SBT2050,2,3,,0,475.3,3.38019,0,0,0,,
1549,1,SBT2050,2,3,,0,480.1,3.38016,0,0,0,,
1549,1,SBT2050,2,3,,0,484.9,3.38024,0,0,0,,
1549,1,SBT2050,2,3,,0,489.7,3.38014,0,0,0,,
1549,1,SBT2050,2,3,,0,494.5,3.380342,0,0,0,,
1549,1,SBT2050,2,3,,0,499.3,3.3805,0,0,0,,
1549,1,SBT2050,2,3,,0,504.1,3.38014,0,0,0,,
1549,1,SBT2050,2,3,,0,508.9,3.38026,0,0,0,,
1549,1,SBT2050,2,3,,0,513.7,3.38051,0,0,0,,
1549,1,SBT2050,2,3,,0,518.5,3.38018,0,0,0,,
1549,1,SBT2050,2,3,,0,523.3,3.38034,0,0,0,,
1549,1,SBT2050,2,3,,0,528.1,3.38023,0,0,0,,
1549,1,SBT2050,2,3,,0,532.9,3.38031,0,0,0,,
1549,1,SBT2050,2,3,,0,537.7,3.38039,0,0,0,,
1549,1,SBT2050,2,3,,0,542.5,3.38027,0,0,0,,
1549,1,SBT2050,2,3,,0,547.3,3.38038,0,0,0,,
1549,1,SBT2050,2,3,,0,552.1,3.38027,0,0,0,,
1549,1,SBT2050,2,3,,0,556.9,3.380216,0,0,0,,
1549,1,SBT2050,2,3,,0,561.7,3.38048,0,0,0,,
1549,1,SBT2050,2,3,,0,566.5,3.38032,0,0,0,,
1549,1,SBT2050,2,3,,0,571.3,3.380438,0,0,0,,
1549,1,SBT2050,2,3,,0,576.1,3.38036,0,0,0,,
1549,1,SBT2050,2,3,,0,580.9,3.38048,0,0,0,,
1549,1,SBT2050,2,3,,0,585.7,3.38064,0,0,0,,
1549,1,SBT2050,2,3,,0,590.5,3.38066,0,0,0,,
1549,1,SBT2050,2,3,,0,595.3,3.38046,0,0,0,,
1549,1,SBT2050,2,3,,0,600.1,3.38053,0,0,0,,
1549,1,SBT2050,2,3,,0,604.9,3.38059,0,0,0,,
1549,1,SBT2050,2,3,,0,609.7,3.38063,0,0,0,,
1549,1,SBT2050,2,3,,0,614.5,3.380596,0,0,0,,
1549,1,SBT2050,2,3,,0,619.3,3.38082,0,0,0,,
1549,1,SBT2050,2,3,,0,624.1,3.380614,0,0,0,,
1549,1,SBT2050,2,3,,0,628.9,3.3806,0,0,0,,
1549,1,SBT2050,2,3,,0,633.7,3.38034,0,0,0,,
1549,1,SBT2050,2,3,,0,638.5,3.380776,0,0,0,,
1549,1,SBT2050,2,3,,0,643.3,3.3804,0,0,0,,
1549,1,SBT2050,2,3,,0,648.1,3.38064,0,0,0,,
1549,1,SBT2050,2,3,,0,652.9,3.38068,0,0,0,,
1549,1,SBT2050,2,3,,0,657.7,3.38043,0,0,0,,
1549,1,SBT2050,2,3,,0,662.5,3.38076,0,0,0,,
1549,1,SBT2050,2,3,,0,667.3,3.3806,0,0,0,,
1549,1,SBT2050,2,3,,0,672.1,3.38073,0,0,0,,
1549,1,SBT2050,2,3,,0,676.9,3.38077,0,0,0,,
1549,1,SBT2050,2,3,,0,681.7,3.38082,0,0,0,,
1549,1,SBT2050,2,3,,0,686.5,3.38065,0,0,0,,
1549,1,SBT2050,2,3,,0,691.3,3.38077,0,0,0,,
1549,1,SBT2050,2,3,,0,696.1,3.38086,0,0,0,,
1549,1,SBT2050,2,3,,0,700.9,3.38068,0,0,0,,
1549,1,SBT2050,2,3,,0,705.7,3.380574,0,0,0,,
1549,1,SBT2050,2,3,,0,710.5,3.38069,0,0,0,,
1549,1,SBT2050,2,3,,0,715.3,3.38078,0,0,0,,
1549,1,SBT2050,2,3,,0,720.1,3.381074,0,0,0,,
1549,1,SBT2050,2,3,,0,724.9,3.38069,0,0,0,,
1549,1,SBT2050,2,3,,0,729.7,3.38066,0,0,0,,
1549,1,SBT2050,2,3,,0,734.5,3.38095,0,0,0,,
1549,1,SBT2050,2,3,,0,739.3,3.38084,0,0,0,,
1549,1,SBT2050,2,3,,0,744.1,3.381024,0,0,0,,
1549,1,SBT2050,2,3,,0,748.9,3.3808,0,0,0,,
1549,1,SBT2050,2,3,,0,753.7,3.38086,0,0,0,,
1549,1,SBT2050,2,3,,0,758.5,3.38097,0,0,0,,
1549,1,SBT2050,2,3,,0,763.3,3.38087,0,0,0,,
1549,1,SBT2050,2,3,,0,768.1,3.38083,0,0,0,,
1549,1,SBT2050,2,3,,0,772.9,3.380932,0,0,0,,
1549,1,SBT2050,2,3,,0,777.7,3.380962,0,0,0,,
1549,1,SBT2050,2,3,,0,782.5,3.38101,0,0,0,,
1549,1,SBT2050,2,3,,0,787.3,3.38102,0,0,0,,
1549,1,SBT2050,2,3,,0,792.1,3.38107,0,0,0,,
1549,1,SBT2050,2,3,,0,796.9,3.38092,0,0,0,,
1549,1,SBT2050,2,3,,0,801.7,3.38097,0,0,0,,
1549,1,SBT2050,2,3,,0,806.5,3.38094,0,0,0,,
1549,1,SBT2050,2,3,,0,811.3,3.38093,0,0,0,,
1549,1,SBT2050,2,3,,0,816.1,3.38082,0,0,0,,
1549,1,SBT2050,2,3,,0,820.9,3.38107,0,0,0,,
1549,1,SBT2050,2,3,,0,825.7,3.38072,0,0,0,,
1549,1,SBT2050,2,3,,0,830.5,3.38099,0,0,0,,
1549,1,SBT2050,2,3,,0,835.3,3.38086,0,0,0,,
1549,1,SBT2050,2,3,,0,840.1,3.38104,0,0,0,,
1549,1,SBT2050,2,3,,0,844.9,3.38095,0,0,0,,
1549,1,SBT2050,2,3,,0,849.7,3.38108,0,0,0,,
1549,1,SBT2050,2,3,,0,854.5,3.38131,0,0,0,,
1549,1,SBT2050,2,3,,0,859.3,3.38124,0,0,0,,
1549,1,SBT2050,2,3,,0,864.1,3.38141,0,0,0,,
1549,1,SBT2050,2,3,,0,868.9,3.38143,0,0,0,,
1549,1,SBT2050,2,3,,0,873.7,3.38109,0,0,0,,
1549,1,SBT2050,2,3,,0,878.5,3.38127,0,0,0,,
1549,1,SBT2050,2,3,,0,883.3,3.3813,0,0,0,,
1549,1,SBT2050,2,3,,0,888.1,3.381132,0,0,0,,
1549,1,SBT2050,2,3,,0,892.9,3.38122,0,0,0,,
1549,1,SBT2050,2,3,,0,897.7,3.38156,0,0,0,,
1549,1,SBT2050,2,3,,0,902.5,3.38143,0,0,0,,
1549,1,SBT2050,2,3,,0,907.3,3.38137,0,0,0,,
1549,1,SBT2050,2,3,,0,912.1,3.38125,0,0,0,,
1549,1,SBT2050,2,3,,0,916.9,3.38118,0,0,0,,
1549,1,SBT2050,2,3,,0,921.7,3.38126,0,0,0,,
1549,1,SBT2050,2,3,,0,926.5,3.38111,0,0,0,,
1549,1,SBT2050,2,3,,0,931.3,3.38099,0,0,0,,
1549,1,SBT2050,2,3,,0,936.1,3.38113,0,0,0,,
1549,1,SBT2050,2,3,,0,940.9,3.38113,0,0,0,,
1549,1,SBT2050,2,3,,0,945.7,3.381382,0,0,0,,
1549,1,SBT2050,2,3,,0,950.5,3.38117,0,0,0,,
1549,1,SBT2050,2,3,,0,955.3,3.38127,0,0,0,,
1549,1,SBT2050,2,3,,0,960.1,3.38133,0,0,0,,
1549,1,SBT2050,2,3,,0,964.9,3.38156,0,0,0,,
1549,1,SBT2050,2,3,,0,969.7,3.38132,0,0,0,,
1549,1,SBT2050,2,3,,0,974.5,3.38155,0,0,0,,
1549,1,SBT2050,2,3,,0,979.3,3.38148,0,0,0,,
1549,1,SBT2050,2,3,,0,984.1,3.38159,0,0,0,,
1549,1,SBT2050,2,3,,0,988.9,3.38133,0,0,0,,
1549,1,SBT2050,2,3,,0,993.7,3.38138,0,0,0,,
1549,1,SBT2050,2,3,,0,998.5,3.38154,0,0,0,,
1549,1,SBT2050,2,3,,0,1003.3,3.38151,0,0,0,,
1549,1,SBT2050,2,3,,0,1008.1,3.38151,0,0,0,,
1549,1,SBT2050,2,3,,0,1012.9,3.381562,0,0,0,,
1549,1,SBT2050,2,3,,0,1017.7,3.3816,0,0,0,,
1549,1,SBT2050,2,3,,0,1022.5,3.38154,0,0,0,,
1549,1,SBT2050,2,3,,0,1027.3,3.38169,0,0,0,,
1549,1,SBT2050,2,3,,0,1032.1,3.381612,0,0,0,,
1549,1,SBT2050,2,3,,0,1036.9,3.38175,0,0,0,,
1549,1,SBT2050,2,3,,0,1041.7,3.38154,0,0,0,,
1549,1,SBT2050,2,3,,0,1046.5,3.38175,0,0,0,,
1549,1,SBT2050,2,3,,0,1051.3,3.38154,0,0,0,,
1549,1,SBT2050,2,3,,0,1056.1,3.38131,0,0,0,,
1549,1,SBT2050,2,3,,0,1060.9,3.38163,0,0,0,,
1549,1,SBT2050,2,3,,0,1065.7,3.38133,0,0,0,,
1549,1,SBT2050,2,3,,0,1070.5,3.38126,0,0,0,,
1549,1,SBT2050,2,3,,0,1075.3,3.38138,0,0,0,,
1549,1,SBT2050,2,3,,0,1080.1,3.38142,0,0,0,,
1549,1,SBT2050,2,3,,0,1084.9,3.38148,0,0,0,,
1549,1,SBT2050,2,3,,0,1089.7,3.38155,0,0,0,,
1549,1,SBT2050,2,3,,0,1094.5,3.38153,0,0,0,,
1549,1,SBT2050,2,3,,0,1099.3,3.381452,0,0,0,,
1549,1,SBT2050,2,3,,0,1104.1,3.38156,0,0,0,,
1549,1,SBT2050,2,3,,0,1108.9,3.38173,0,0,0,,
1549,1,SBT2050,2,3,,0,1113.7,3.38166,0,0,0,,
1549,1,SBT2050,2,3,,0,1118.5,3.381664,0,0,0,,
1549,1,SBT2050,2,3,,0,1123.3,3.38189,0,0,0,,
1549,1,SBT2050,2,3,,0,1128.1,3.38177,0,0,0,,
1549,1,SBT2050,2,3,,0,1132.9,3.38181,0,0,0,,
1549,1,SBT2050,2,3,,0,1137.7,3.38166,0,0,0,,
1549,1,SBT2050,2,3,,0,1142.5,3.3819,0,0,0,,
1549,1,SBT2050,2,3,,0,1147.3,3.38194,0,0,0,,
1549,1,SBT2050,2,3,,0,1152.1,3.38194,0,0,0,,
1549,1,SBT2050,2,3,,0,1156.9,3.38206,0,0,0,,
1549,1,SBT2050,2,3,,0,1161.7,3.38206,0,0,0,,
1549,1,SBT2050,2,3,,0,1166.5,3.38159,0,0,0,,
1549,1,SBT2050,2,3,,0,1171.3,3.38182,0,0,0,,
1549,1,SBT2050,2,3,,0,1176.1,3.38181,0,0,0,,
1549,1,SBT2050,2,3,,0,1180.9,3.38194,0,0,0,,
1549,1,SBT2050,2,3,,0,1185.7,3.381796,0,0,0,,
1549,1,SBT2050,2,3,,0,1190.5,3.38178,0,0,0,,
1549,1,SBT2050,2,3,,0,1195.3,3.38176,0,0,0,,
1549,1,SBT2050,2,3,,0,1200.1,3.38175,0,0,0,,
1549,1,SBT2050,2,3,,0,1204.9,3.38172,0,0,0,,
1549,1,SBT2050,2,3,,0,1209.7,3.38154,0,0,0,,
1549,1,SBT2050,2,3,,0,1214.5,3.38182,0,0,0,,
1549,1,SBT2050,2,3,,0,1219.3,3.38187,0,0,0,,
1549,1,SBT2050,2,3,,0,1224.1,3.381816,0,0,0,,
1549,1,SBT2050,2,3,,0,1228.9,3.381762,0,0,0,,
1549,1,SBT2050,2,3,,0,1233.7,3.3819,0,0,0,,
1549,1,SBT2050,2,3,,0,1238.5,3.38185,0,0,0,,
1549,1,SBT2050,2,3,,0,1243.3,3.38161,0,0,0,,
1549,1,SBT2050,2,3,,0,1248.1,3.38169,0,0,0,,
1549,1,SBT2050,2,3,,0,1252.9,3.38182,0,0,0,,
1549,1,SBT2050,2,3,,0,1257.7,3.38212,0,0,0,,
1549,1,SBT2050,2,3,,0,1262.5,3.38182,0,0,0,,
1549,1,SBT2050,2,3,,0,1267.3,3.38194,0,0,0,,
1549,1,SBT2050,2,3,,0,1272.1,3.38202,0,0,0,,
1549,1,SBT2050,2,3,,0,1276.9,3.38192,0,0,0,,
1549,1,SBT2050,2,3,,0,1281.7,3.382,0,0,0,,
1549,1,SBT2050,2,3,,0,1286.5,3.38212,0,0,0,,
1549,1,SBT2050,2,3,,0,1291.3,3.3818,0,0,0,,
1549,1,SBT2050,2,3,,0,1296.1,3.3821,0,0,0,,
1549,1,SBT2050,2,3,,0,1300.9,3.38225,0,0,0,,
1549,1,SBT2050,2,3,,0,1305.7,3.38202,0,0,0,,
1549,1,SBT2050,2,3,,0,1310.5,3.38211,0,0,0,,
1549,1,SBT2050,2,3,,0,1315.3,3.382064,0,0,0,,
1549,1,SBT2050,2,3,,0,1320.1,3.3821,0,0,0,,
1549,1,SBT2050,2,3,,0,1324.9,3.38193,0,0,0,,
1549,1,SBT2050,2,3,,0,1329.7,3.38204,0,0,0,,
1549,1,SBT2050,2,3,,0,1334.5,3.38197,0,0,0,,
1549,1,SBT2050,2,3,,0,1339.3,3.38217,0,0,0,,
1549,1,SBT2050,2,3,,0,1344.1,3.382208,0,0,0,,
1549,1,SBT2050,2,3,,0,1348.9,3.381932,0,0,0,,
1549,1,SBT2050,2,3,,0,1353.7,3.3821,0,0,0,,
1549,1,SBT2050,2,3,,0,1358.5,3.38223,0,0,0,,
1549,1,SBT2050,2,3,,0,1363.3,3.38192,0,0,0,,
1549,1,SBT2050,2,3,,0,1368.1,3.382112,0,0,0,,
1549,1,SBT2050,2,3,,0,1372.9,3.38213,0,0,0,,
1549,1,SBT2050,2,3,,0,1377.7,3.38195,0,0,0,,
1549,1,SBT2050,2,3,,0,1382.5,3.38202,0,0,0,,
1549,1,SBT2050,2,3,,0,1387.3,3.38203,0,0,0,,
1549,1,SBT2050,2,3,,0,1392.1,3.38202,0,0,0,,
1549,1,SBT2050,2,3,,0,1396.9,3.38203,0,0,0,,
1549,1,SBT2050,2,3,,0,1401.7,3.38196,0,0,0,,
1549,1,SBT2050,2,3,,0,1406.5,3.38201,0,0,0,,
1549,1,SBT2050,2,3,,0,1411.3,3.38213,0,0,0,,
1549,1,SBT2050,2,3,,0,1416.1,3.38211,0,0,0,,
1549,1,SBT2050,2,3,,0,1420.9,3.3823,0,0,0,,
1549,1,SBT2050,2,3,,0,1425.7,3.38219,0,0,0,,
1549,1,SBT2050,2,3,,0,1430.5,3.38209,0,0,0,,
1549,1,SBT2050,2,3,,0,1435.3,3.3821,0,0,0,,
1549,1,SBT2050,2,3,,0,1440.1,3.38208,0,0,0,,
1549,1,SBT2050,2,3,,0,1444.9,3.382306,0,0,0,,
1549,1,SBT2050,2,3,,0,1449.7,3.38226,0,0,0,,
1549,1,SBT2050,2,3,,0,1454.5,3.38231,0,0,0,,
1549,1,SBT2050,2,3,,0,1459.3,3.3824,0,0,0,,
1549,1,SBT2050,2,3,,0,1464.1,3.38238,0,0,0,,
1549,1,SBT2050,2,3,,0,1468.9,3.382462,0,0,0,,
1549,1,SBT2050,2,3,,0,1473.7,3.38246,0,0,0,,
1549,1,SBT2050,2,3,,0,1478.5,3.38216,0,0,0,,
1549,1,SBT2050,2,3,,0,1483.3,3.38213,0,0,0,,
1549,1,SBT2050,2,3,,0,1488.1,3.38221,0,0,0,,
1549,1,SBT2050,2,3,,0,1492.9,3.38245,0,0,0,,
1549,1,SBT2050,2,3,,0,1497.7,3.38223,0,0,0,,
1549,1,SBT2050,2,3,,0,1502.5,3.38233,0,0,0,,
1549,1,SBT2050,2,3,,0,1507.3,3.3824,0,0,0,,
1549,1,SBT2050,2,3,,0,1512.1,3.38259,0,0,0,,
1549,1,SBT2050,2,3,,0,1516.9,3.38277,0,0,0,,
1549,1,SBT2050,2,3,,0,1521.7,3.3825,0,0,0,,
1549,1,SBT2050,2,3,,0,1526.5,3.38256,0,0,0,,
1549,1,SBT2050,2,3,,0,1531.3,3.38279,0,0,0,,
1549,1,SBT2050,2,3,,0,1536.1,3.38269,0,0,0,,
1549,1,SBT2050,2,3,,0,1540.9,3.38266,0,0,0,,
1549,1,SBT2050,2,3,,0,1545.7,3.38246,0,0,0,,
1549,1,SBT2050,2,3,,0,1550.5,3.38251,0,0,0,,
1549,1,SBT2050,2,3,,0,1555.3,3.3824,0,0,0,,
1549,1,SBT2050,2,3,,0,1560.1,3.38243,0,0,0,,
1549,1,SBT2050,2,3,,0,1564.9,3.38232,0,0,0,,
1549,1,SBT2050,2,3,,0,1569.7,3.38248,0,0,0,,
1549,1,SBT2050,2,3,,0,1574.5,3.382394,0,0,0,,
1549,1,SBT2050,2,3,,0,1579.3,3.38246,0,0,0,,
1549,1,SBT2050,2,3,,0,1584.1,3.38246,0,0,0,,
1549,1,SBT2050,2,3,,0,1588.9,3.3823,0,0,0,,
1549,1,SBT2050,2,3,,0,1593.7,3.38243,0,0,0,,
1549,1,SBT2050,2,3,,0,1598.5,3.38239,0,0,0,,
1549,1,SBT2050,2,3,,0,1603.3,3.38253,0,0,0,,
1549,1,SBT2050,2,3,,0,1608.1,3.38242,0,0,0,,
1549,1,SBT2050,2,3,,0,1612.9,3.38245,0,0,0,,
1549,1,SBT2050,2,3,,0,1617.7,3.38248,0,0,0,,
1549,1,SBT2050,2,3,,0,1622.5,3.38281,0,0,0,,
1549,1,SBT2050,2,3,,0,1627.3,3.38257,0,0,0,,
1549,1,SBT2050,2,3,,0,1632.1,3.3828,0,0,0,,
1549,1,SBT2050,2,3,,0,1636.9,3.38269,0,0,0,,
1549,1,SBT2050,2,3,,0,1641.7,3.382746,0,0,0,,
1549,1,SBT2050,2,3,,0,1646.5,3.38273,0,0,0,,
1549,1,SBT2050,2,3,,0,1651.3,3.382418,0,0,0,,
1549,1,SBT2050,2,3,,0,1656.1,3.38243,0,0,0,,
1549,1,SBT2050,2,3,,0,1660.9,3.38261,0,0,0,,
1549,1,SBT2050,2,3,,0,1665.7,3.38262,0,0,0,,
1549,1,SBT2050,2,3,,0,1670.5,3.38269,0,0,0,,
1549,1,SBT2050,2,3,,0,1675.3,3.38267,0,0,0,,
1549,1,SBT2050,2,3,,0,1680.1,3.38256,0,0,0,,
1549,1,SBT2050,2,3,,0,1684.9,3.38269,0,0,0,,
1549,1,SBT2050,2,3,,0,1689.7,3.382606,0,0,0,,
1549,1,SBT2050,2,3,,0,1694.5,3.38258,0,0,0,,
1549,1,SBT2050,2,3,,0,1699.3,3.38281,0,0,0,,
1549,1,SBT2050,2,3,,0,1704.1,3.38268,0,0,0,,
1549,1,SBT2050,2,3,,0,1708.9,3.38276,0,0,0,,
1549,1,SBT2050,2,3,,0,1713.7,3.38278,0,0,0,,
1549,1,SBT2050,2,3,,0,1718.5,3.3827,0,0,0,,
1549,1,SBT2050,2,3,,0,1723.3,3.38258,0,0,0,,
1549,1,SBT2050,2,3,,0,1728.1,3.3826,0,0,0,,
1549,1,SBT2050,2,3,,0,1732.9,3.38258,0,0,0,,
1549,1,SBT2050,2,3,,0,1737.7,3.38276,0,0,0,,
1549,1,SBT2050,2,3,,0,1742.5,3.38265,0,0,0,,
1549,1,SBT2050,2,3,,0,1747.3,3.38249,0,0,0,,
1549,1,SBT2050,2,3,,0,1752.1,3.38258,0,0,0,,
1549,1,SBT2050,2,3,,0,1756.9,3.38261,0,0,0,,
1549,1,SBT2050,2,3,,0,1761.7,3.38273,0,0,0,,
1549,1,SBT2050,2,3,,0,1766.5,3.3827,0,0,0,,
1549,1,SBT2050,2,3,,0,1771.3,3.38273,0,0,0,,
1549,1,SBT2050,2,3,,0,1776.1,3.38279,0,0,0,,
1549,1,SBT2050,2,3,,0,1780.9,3.38263,0,0,0,,
1549,1,SBT2050,2,3,,0,1785.7,3.38275,0,0,0,,
1549,1,SBT2050,2,3,,0,1790.5,3.382812,0,0,0,,
1549,1,SBT2050,2,3,,0,1795.3,3.38297,0,0,0,,
1549,1,SBT2050,2,3,,5,1800.1,3.38291,0,0,0,,
1549,1,SBT2050,2,3,,7,1804.8,3.54456,2.415,0.722,0,,
1549,1,SBT2050,2,3,,7,1809.6,3.72955,5.184,5.833,0,,
1549,1,SBT2050,2,3,,7,1814.3,3.86909,7.509,14.399,0,,
1549,1,SBT2050,2,3,,7,1819.1,3.96145,8.752,25.337,0,,
1549,1,SBT2050,2,3,,7,1823.8,4.01249,9.138,37.066,0,,
1549,1,SBT2050,2,3,,7,1828.6,4.03432,8.986,49.178,0,,
1549,1,SBT2050,2,3,,7,1833.3,4.02861,8.428,60.534,0,,
1549,1,SBT2050,2,3,,7,1838.1,4.03563,8.284,71.664,0,,
1549,1,SBT2050,2,3,,7,1842.8,4.04154,8.177,82.406,0,,
1549,1,SBT2050,2,3,,7,1847.6,4.04426,8.051,93.21,0,,
1549,1,SBT2050,2,3,,7,1852.3,4.04426,7.933,103.64,0,,
1549,1,SBT2050,2,3,,7,1857,4.042434,7.806,113.917,0,29.1,
1549,1,SBT2050,2,3,,7,1861.8,4.04062,7.72,124.265,0,,
1549,1,SBT2050,2,3,,7,1866.5,4.036874,7.609,134.263,0,,
1549,1,SBT2050,2,3,,7,1871.3,4.03274,7.51,144.339,0,,
1549,1,SBT2050,2,3,,7,1876,4.0284,7.414,154.087,0,30.8,
1549,1,SBT2050,2,3,,7,1880.8,4.02431,7.337,163.921,0,,
1549,1,SBT2050,2,3,,7,1885.5,4.01964,7.252,173.437,0,,
1549,1,SBT2050,2,3,,7,1890.3,4.01537,7.169,183.049,0,,
1549,1,SBT2050,2,3,,7,1895,4.0106,7.092,192.36,0,32.2,
1549,1,SBT2050,2,3,,7,1899.8,4.00672,7.027,201.772,0,,
1549,1,SBT2050,2,3,,7,1904.5,4.0025,6.952,210.892,0,,
1549,1,SBT2050,2,3,,7,1909.3,3.99856,6.888,220.119,0,,
1549,1,SBT2050,2,3,,7,1914,3.99513,6.825,229.072,0,33.4,
1549,1,SBT2050,2,3,,7,1918.8,3.9923,6.781,238.14,0,,
1549,1,SBT2050,2,3,,7,1923.5,3.98871,6.715,246.945,0,,
1549,1,SBT2050,2,3,,7,1928.3,3.98574,6.662,255.86,0,,
1549,1,SBT2050,2,3,,7,1933,3.98307,6.609,264.526,0,,
1549,1,SBT2050,2,3,,7,1937.741,3.98091,6.571,273.206,0,,
1549,1,SBT2050,2,3,,7,1942.5,3.97849,6.522,281.855,0,,
1549,1,SBT2050,2,3,,7,1947.2,3.976226,6.472,290.337,0,,
1549,1,SBT2050,2,3,,7,1952,3.9744,6.431,298.94,0,,
1549,1,SBT2050,2,3,,7,1956.7,3.97295,6.396,307.314,0,,
1549,1,SBT2050,2,3,,7,1961.5,3.9711,6.35,315.808,0,,
1549,1,SBT2050,2,3,,7,1966.2,3.96965,6.315,324.077,0,,
1549,1,SBT2050,2,3,,7,1971,3.96815,6.276,332.475,0,35.9,
1549,1,SBT2050,2,3,,7,1975.7,3.96758,6.252,340.65,0,,
1549,1,SBT2050,2,3,,7,1980.5,3.96638,6.218,348.965,0,,
1549,1,SBT2050,2,3,,7,1985.2,3.96573,6.183,357.062,0,,
1549,1,SBT2050,2,3,,7,1990,3.96534,6.152,365.287,0,,
1549,1,SBT2050,2,3,,7,1994.7,3.96454,6.121,373.298,0,,
1549,1,SBT2050,2,3,,7,1999.5,3.963954,6.089,381.436,0,,
1549,1,SBT2050,2,3,,7,2004.2,3.96346,6.057,389.367,0,,
1549,1,SBT2050,2,3,,7,2009,3.96305,6.027,397.427,0,,
1549,1,SBT2050,2,3,,7,2013.7,3.963,6.009,405.286,0,,
1549,1,SBT2050,2,3,,7,2018.5,3.962976,5.981,413.277,0,,
1549,1,SBT2050,2,3,,7,2023.2,3.96325,5.957,421.075,0,,
1549,1,SBT2050,2,3,,7,2027.9,3.96315,5.931,428.837,0,,
1549,1,SBT2050,2,3,,7,2032.7,3.96309,5.904,436.725,0,,
1549,1,SBT2050,2,3,,7,2037.4,3.96356,5.881,444.417,0,,
1549,1,SBT2050,2,3,,7,2042.2,3.96409,5.863,452.247,0,,
1549,1,SBT2050,2,3,,7,2046.9,3.96424,5.839,459.891,0,,
1549,1,SBT2050,2,3,,7,2051.7,3.96477,5.813,467.657,0,,
1549,1,SBT2050,2,3,,7,2056.4,3.96504,5.785,475.224,0,,
1549,1,SBT2050,2,3,,7,2061.2,3.96537,5.761,482.919,0,,
1549,1,SBT2050,2,3,,7,2065.9,3.965522,5.735,490.429,0,,
1549,1,SBT2050,2,3,,7,2070.7,3.96658,5.725,498.068,0,,
1549,1,SBT2050,2,3,,7,2075.4,3.96683,5.696,505.523,0,,
1549,1,SBT2050,2,3,,7,2080.2,3.967034,5.661,513.094,0,,
1549,1,SBT2050,2,3,,7,2084.9,3.96764,5.635,520.466,0,,
1549,1,SBT2050,2,3,,7,2089.7,3.96889,5.629,527.975,0,,
1549,1,SBT2050,2,3,,7,2094.4,3.9697,5.617,535.318,0,,
1549,1,SBT2050,2,3,,7,2099.2,3.97061,5.585,542.788,0,,
1549,1,SBT2050,2,3,,7,2103.9,3.97144,5.571,550.069,0,,
1549,1,SBT2050,2,3,,7,2108.7,3.97255,5.553,557.488,0,,
1549,1,SBT2050,2,3,,7,2113.4,3.97311,5.524,564.718,0,,
1549,1,SBT2050,2,3,,7,2118.1,3.97392,5.494,571.913,0,,
1549,1,SBT2050,2,3,,7,2122.9,3.97481,5.483,579.232,0,,
1549,1,SBT2050,2,3,,7,2127.6,3.9761,5.467,586.382,0,,
1549,1,SBT2050,2,3,,7,2132.4,3.97649,5.439,593.652,0,,
1549,1,SBT2050,2,3,,7,2137.1,3.97728,5.41,600.737,0,,
1549,1,SBT2050,2,3,,7,2141.9,3.97788,5.383,607.937,0,,
1549,1,SBT2050,2,3,,7,2146.6,3.97933,5.377,614.961,0,,
1549,1,SBT2050,2,3,,7,2151.4,3.98034,5.36,622.12,0,,
1549,1,SBT2050,2,3,,7,2156.1,3.98105,5.333,629.102,0,,
1549,1,SBT2050,2,3,,7,2160.9,3.9813,5.299,636.198,0,,
1549,1,SBT2050,2,3,,7,2165.6,3.98284,5.284,643.11,0,,
1549,1,SBT2050,2,3,,7,2170.4,3.98361,5.263,650.143,0,,
1549,1,SBT2050,2,3,,7,2175.1,3.98446,5.24,657.001,0,,
1549,1,SBT2050,2,3,,7,2179.9,3.98545,5.214,663.974,0,,
1549,1,SBT2050,2,3,,7,2184.6,3.98629,5.196,670.773,0,,
1549,1,SBT2050,2,3,,7,2189.4,3.9868,5.173,677.686,0,,
1549,1,SBT2050,2,3,,7,2194.1,3.988006,5.152,684.426,0,,
1549,1,SBT2050,2,3,,7,2198.801,3.98873,5.138,691.14,0,,
1549,1,SBT2050,2,3,,7,2203.6,3.98975,5.108,697.965,0,,
1549,1,SBT2050,2,3,,7,2208.3,3.99063,5.086,704.621,0,,
1549,1,SBT2050,2,3,,7,2213.1,3.99113,5.051,711.382,0,,
1549,1,SBT2050,2,3,,7,2217.8,3.991722,5.028,717.962,0,,
1549,1,SBT2050,2,3,,7,2222.6,3.99256,5.007,724.651,0,,
1549,1,SBT2050,2,3,,7,2227.3,3.99355,4.986,731.174,0,,
1549,1,SBT2050,2,3,,7,2232.1,3.99475,4.965,737.809,0,,
1549,1,SBT2050,2,3,,7,2236.8,3.995586,4.948,744.28,0,,
1549,1,SBT2050,2,3,,7,2241.6,3.99601,4.913,750.85,0,,
1549,1,SBT2050,2,3,,7,2246.3,3.99665,4.89,757.249,0,,
1549,1,SBT2050,2,3,,7,2251.1,3.99731,4.864,763.751,0,,
1549,1,SBT2050,2,3,,7,2255.8,3.99874,4.852,770.094,0,,
1549,1,SBT2050,2,3,,7,2260.6,3.99982,4.831,776.55,0,,
1549,1,SBT2050,2,3,,7,2265.3,4.000152,4.802,782.842,0,,
1549,1,SBT2050,2,3,,7,2270.1,4.00103,4.776,789.229,0,,
1549,1,SBT2050,2,3,,7,2274.8,4.00222,4.761,795.456,0,,
1549,1,SBT2050,2,3,,7,2279.6,4.00294,4.7403,801.789,0,,
1549,1,SBT2050,2,3,,7,2284.3,4.00368,4.7093,807.955,0,,
1549,1,SBT2050,2,3,,7,2289,4.00426,4.6773,814.083,0,,
1549,1,SBT2050,2,3,,7,2293.8,4.0052,4.6568,820.305,0,,
1549,1,SBT2050,2,3,,7,2298.5,4.00587,4.6366,826.37,0,,
1549,1,SBT2050,2,3,,7,2303.3,4.00693,4.6185,832.54,0,,
1549,1,SBT2050,2,3,,7,2308,4.00811,4.5995,838.558,0,,
1549,1,SBT2050,2,3,,7,2312.8,4.00934,4.5839,844.681,0,,
1549,1,SBT2050,2,3,,7,2317.5,4.00977,4.5541,850.641,0,,
1549,1,SBT2050,2,3,,7,2322.3,4.010848,4.5321,856.698,0,,
1549,1,SBT2050,2,3,,7,2327,4.01126,4.5036,862.599,0,,
1549,1,SBT2050,2,3,,7,2331.8,4.01215,4.4849,868.59,0,,
1549,1,SBT2050,2,3,,7,2336.5,4.01317,4.4659,874.431,0,,
1549,1,SBT2050,2,3,,7,2341.3,4.01415,4.444,880.372,0,,
1549,1,SBT2050,2,3,,7,2346,4.01468,4.417,886.156,0,,
1549,1,SBT2050,2,3,,7,2350.8,4.01566,4.3977,892.033,0,,
1549,1,SBT2050,2,3,,7,2355.5,4.01644,4.373,897.754,0,,
1549,1,SBT2050,2,3,,7,2360.3,4.01716,4.3507,903.568,0,,
1549,1,SBT2050,2,3,,7,2365,4.01823,4.3267,909.236,0,,
1549,1,SBT2050,2,3,,7,2369.8,4.01882,4.3056,914.99,0,,
1549,1,SBT2050,2,3,,7,2374.5,4.01972,4.2864,920.597,0,,
1549,1,SBT2050,2,3,,7,2379.2,4.02057,4.2665,926.179,0,,
1549,1,SBT2050,2,3,,7,2384,4.02136,4.2406,931.853,0,,
1549,1,SBT2050,2,3,,7,2388.7,4.022232,4.2245,937.378,0,,
1549,1,SBT2050,2,3,,7,2393.5,4.02333,4.2056,942.995,0,,
1549,1,SBT2050,2,3,,7,2398.2,4.02417,4.1888,948.475,0,,
1549,1,SBT2050,2,3,,7,2403,4.02549,4.1742,954.052,0,37.1,
1549,1,SBT2050,2,3,,7,2407.7,4.026888,4.1624,959.493,0,,
1549,1,SBT2050,2,3,,7,2412.5,4.02801,4.1499,965.033,0,,
1549,1,SBT2050,2,3,,7,2417.2,4.02897,4.1307,970.436,0,,
1549,1,SBT2050,2,3,,7,2422,4.0302,4.1203,975.937,0,,
1549,1,SBT2050,2,3,,7,2426.7,4.03211,4.1126,981.311,0,,
1549,1,SBT2050,2,3,,7,2431.5,4.03332,4.0958,986.784,0,,
1549,1,SBT2050,2,3,,7,2436.2,4.0346,4.0833,992.123,0,,
1549,1,SBT2050,2,3,,7,2441,4.03584,4.0652,997.557,0,,
1549,1,SBT2050,2,3,,7,2445.7,4.03676,4.0552,1002.857,0,,
1549,1,SBT2050,2,3,,7,2450.5,4.03821,4.0373,1008.254,0,,
1549,1,SBT2050,2,3,,7,2455.2,4.03944,4.0261,1013.517,0,,
1549,1,SBT2050,2,3,,7,2459.9,4.04026,4.0107,1018.766,0,,
1549,1,SBT2050,2,3,,7,2464.7,4.042,3.9978,1024.104,0,,
1549,1,SBT2050,2,3,,7,2469.4,4.04332,3.9881,1029.316,0,,
1549,1,SBT2050,2,3,,7,2474.2,4.04454,3.975,1034.627,0,,
1549,1,SBT2050,2,3,,7,2478.9,4.046134,3.9586,1039.806,0,,
1549,1,SBT2050,2,3,,7,2483.7,4.04717,3.9427,1045.074,0,,
1549,1,SBT2050,2,3,,7,2488.4,4.04846,3.9297,1050.212,0,,
1549,1,SBT2050,2,3,,7,2493.2,4.04987,3.9203,1055.445,0,,
1549,1,SBT2050,2,3,,7,2497.9,4.051418,3.9103,1060.557,0,,
1549,1,SBT2050,2,3,,7,2502.7,4.05281,3.8998,1065.765,0,,
1549,1,SBT2050,2,3,,7,2507.4,4.05408,3.8832,1070.844,0,,
1549,1,SBT2050,2,3,,7,2512.2,4.05502,3.863,1076.007,0,,
1549,1,SBT2050,2,3,,7,2516.9,4.05627,3.8494,1081.044,0,,
1549,1,SBT2050,2,3,,7,2521.7,4.05752,3.8369,1086.167,0,,
1549,1,SBT2050,2,3,,7,2526.4,4.05897,3.8264,1091.172,0,,
1549,1,SBT2050,2,3,,7,2531.2,4.059858,3.8095,1096.264,0,,
1549,1,SBT2050,2,3,,7,2535.9,4.06113,3.7944,1101.228,0,,
1549,1,SBT2050,2,3,,7,2540.7,4.06251,3.7858,1106.281,0,,
1549,1,SBT2050,2,3,,7,2545.4,4.06401,3.7741,1111.217,0,,
1549,1,SBT2050,2,3,,7,2550.1,4.06477,3.7574,1116.133,0,,
1549,1,SBT2050,2,3,,7,2554.9,4.065992,3.7417,1121.136,0,,
1549,1,SBT2050,2,3,,7,2559.6,4.066844,3.7288,1126.012,0,,
1549,1,SBT2050,2,3,,7,2564.4,4.068142,3.7156,1130.976,0,,
1549,1,SBT2050,2,3,,7,2569.1,4.06917,3.6989,1135.816,0,,
1549,1,SBT2050,2,3,,7,2573.9,4.0705,3.689,1140.741,0,,
1549,1,SBT2050,2,3,,7,2578.6,4.07154,3.6725,1145.547,0,,
1549,1,SBT2050,2,3,,7,2583.4,4.0726,3.6617,1150.435,0,,
1549,1,SBT2050,2,3,,7,2588.1,4.07382,3.6523,1155.208,0,,
1549,1,SBT2050,2,3,,7,2592.9,4.07546,3.6433,1160.073,0,,
1549,1,SBT2050,2,3,,7,2597.6,4.0764,3.6269,1164.819,0,,
1549,1,SBT2050,2,3,,7,2602.4,4.07781,3.6155,1169.647,0,,
1549,1,SBT2050,2,3,,7,2607.1,4.07861,3.5973,1174.356,0,,
1549,1,SBT2050,2,3,,7,2611.9,4.07929,3.5852,1179.146,0,,
1549,1,SBT2050,2,3,,7,2616.6,4.08079,3.5752,1183.821,0,,
1549,1,SBT2050,2,3,,7,2621.4,4.0821,3.5612,1188.581,0,,
1549,1,SBT2050,2,3,,7,2626.1,4.083032,3.5494,1193.222,0,,
1549,1,SBT2050,2,3,,7,2630.895,4.08415,3.5327,1197.942,0,,
1549,1,SBT2050,2,3,,7,2635.6,4.08514,3.5216,1202.55,0,,
1549,1,SBT2050,2,3,,7,2640.3,4.08637,3.5114,1207.141,0,,
1549,1,SBT2050,2,3,,7,2645.1,4.08741,3.4959,1211.816,0,,
1549,1,SBT2050,2,3,,7,2649.8,4.08819,3.485,1216.372,0,,
1549,1,SBT2050,2,3,,7,2654.6,4.08936,3.4748,1221.011,0,,
1549,1,SBT2050,2,3,,7,2659.3,4.0903,3.457,1225.534,0,,
1549,1,SBT2050,2,3,,7,2664.1,4.09134,3.4459,1230.136,0,,
1549,1,SBT2050,2,3,,7,2668.8,4.09253,3.4308,1234.625,0,,
1549,1,SBT2050,2,3,,7,2673.6,4.09329,3.4178,1239.189,0,,
1549,1,SBT2050,2,3,,7,2678.3,4.09449,3.4086,1243.644,0,,
1549,1,SBT2050,2,3,,7,2683.1,4.095442,3.3886,1248.175,0,,
1549,1,SBT2050,2,3,,7,2687.8,4.0966,3.3796,1252.593,0,,
1549,1,SBT2050,2,3,,7,2692.6,4.0973,3.3676,1257.092,0,,
1549,1,SBT2050,2,3,,7,2697.3,4.097898,3.3468,1261.475,0,,
1549,1,SBT2050,2,3,,7,2702.1,4.09892,3.3258,1265.922,0,,
1549,1,SBT2050,2,3,,7,2706.8,4.09989,3.3167,1270.258,0,,
1549,1,SBT2050,2,3,,7,2711.6,4.10078,3.3086,1274.674,0,,
1549,1,SBT2050,2,3,,7,2716.3,4.10182,3.3011,1278.988,0,,
1549,1,SBT2050,2,3,,7,2721,4.10276,3.281,1283.284,0,,
1549,1,SBT2050,2,3,,7,2725.8,4.10375,3.2719,1287.653,0,,
1549,1,SBT2050,2,3,,7,2730.5,4.10464,3.2525,1291.91,0,,
1549,1,SBT2050,2,3,,7,2735.3,4.105348,3.2397,1296.238,0,,
1549,1,SBT2050,2,3,,7,2740,4.105962,3.2205,1300.457,0,,
1549,1,SBT2050,2,3,,7,2744.8,4.1068,3.2108,1304.744,0,,
1549,1,SBT2050,2,3,,7,2749.5,4.1078,3.202,1308.929,0,,
1549,1,SBT2050,2,3,,7,2754.3,4.10901,3.1956,1313.194,0,,
1549,1,SBT2050,2,3,,7,2759,4.10963,3.179,1317.358,0,34,
1549,1,SBT2050,2,3,,7,2763.8,4.11041,3.158,1321.583,0,,
1549,1,SBT2050,2,3,,7,2768.5,4.11109,3.1415,1325.693,0,,
1549,1,SBT2050,2,3,,7,2773.3,4.1121,3.1328,1329.875,0,,
1549,1,SBT2050,2,3,,7,2778,4.11294,3.116,1333.958,0,,
1549,1,SBT2050,2,3,,7,2782.8,4.11336,3.104,1338.104,0,,
1549,1,SBT2050,2,3,,7,2787.5,4.11444,3.0944,1342.149,0,,
1549,1,SBT2050,2,3,,7,2792.3,4.11496,3.0747,1346.262,0,,
1549,1,SBT2050,2,3,,7,2797,4.11556,3.0582,1350.268,0,,
1549,1,SBT2050,2,3,,7,2801.8,4.116262,3.0395,1354.331,0,,
1549,1,SBT2050,2,3,,7,2806.5,4.11679,3.0277,1358.29,0,,
1549,1,SBT2050,2,3,,7,2811.2,4.11806,3.0204,1362.238,0,,
1549,1,SBT2050,2,3,,7,2816,4.11863,3.0039,1366.258,0,,
1549,1,SBT2050,2,3,,7,2820.7,4.11941,2.9921,1370.172,0,,
1549,1,SBT2050,2,3,,7,2825.5,4.12023,2.9796,1374.153,0,,
1549,1,SBT2050,2,3,,7,2830.2,4.120942,2.96,1378.028,0,,
1549,1,SBT2050,2,3,,7,2835,4.12173,2.9512,1381.969,0,,
1549,1,SBT2050,2,3,,7,2839.7,4.122348,2.9391,1385.816,0,,
1549,1,SBT2050,2,3,,7,2844.5,4.122794,2.9238,1389.722,0,,
1549,1,SBT2050,2,3,,7,2849.2,4.12397,2.918,1393.535,0,,
1549,1,SBT2050,2,3,,7,2854,4.124672,2.9006,1397.417,0,,
1549,1,SBT2050,2,3,,7,2858.7,4.12532,2.8927,1401.198,0,,
1549,1,SBT2050,2,3,,7,2863.5,4.12631,2.8808,1405.049,0,,
1549,1,SBT2050,2,3,,7,2868.2,4.12675,2.8673,1408.8,0,,
1549,1,SBT2050,2,3,,7,2873,4.12828,2.8646,1412.62,0,,
1549,1,SBT2050,2,3,,7,2877.7,4.12908,2.8558,1416.357,0,,
1549,1,SBT2050,2,3,,7,2882.5,4.12983,2.8441,1420.154,0,,
1549,1,SBT2050,2,3,,7,2887.2,4.13078,2.8371,1423.865,0,,
1549,1,SBT2050,2,3,,7,2891.953,4.13132,2.8221,1427.601,0,,
1549,1,SBT2050,2,3,,7,2896.7,4.1325,2.8196,1431.32,0,,
1549,1,SBT2050,2,3,,7,2901.4,4.133248,2.8013,1434.985,0,,
1549,1,SBT2050,2,3,,7,2906.2,4.13416,2.7949,1438.715,0,,
1549,1,SBT2050,2,3,,7,2910.9,4.13522,2.7947,1442.364,0,,
1549,1,SBT2050,2,3,,7,2915.7,4.13656,2.7858,1446.087,0,,
1549,1,SBT2050,2,3,,7,2920.4,4.13724,2.7741,1449.715,0,,
1549,1,SBT2050,2,3,,7,2925.2,4.137926,2.7586,1453.406,0,,
1549,1,SBT2050,2,3,,7,2929.9,4.13893,2.7478,1457,0,,
1549,1,SBT2050,2,3,,7,2934.7,4.13997,2.7454,1460.662,0,,
1549,1,SBT2050,2,3,,7,2939.4,4.14135,2.7434,1464.244,0,,
1549,1,SBT2050,2,3,,7,2944.2,4.14215,2.7309,1467.897,0,,
1549,1,SBT2050,2,3,,7,2948.9,4.14276,2.7121,1471.454,0,,
1549,1,SBT2050,2,3,,7,2953.7,4.14318,2.6985,1475.06,0,,
1549,1,SBT2050,2,3,,7,2958.4,4.14458,2.692,1478.578,0,,
1549,1,SBT2050,2,3,,7,2963.2,4.14575,2.6907,1482.166,0,,
1549,1,SBT2050,2,3,,7,2967.9,4.14638,2.676,1485.671,0,,
1549,1,SBT2050,2,3,,7,2972.7,4.14718,2.6681,1489.233,0,,
1549,1,SBT2050,2,3,,7,2977.4,4.14846,2.6658,1492.715,0,,
1549,1,SBT2050,2,3,,7,2982.1,4.14906,2.6507,1496.187,0,,
1549,1,SBT2050,2,3,,7,2986.9,4.14996,2.6431,1499.715,0,,
1549,1,SBT2050,2,3,,7,2991.6,4.15111,2.6409,1503.164,0,,
1549,1,SBT2050,2,3,,7,2996.4,4.1525,2.6407,1506.685,0,,
1549,1,SBT2050,2,3,,7,3001.1,4.15315,2.6237,1510.12,0,,
1549,1,SBT2050,2,3,,7,3005.9,4.15418,2.6172,1513.613,0,,
1549,1,SBT2050,2,3,,7,3010.6,4.15473,2.6084,1517.026,0,,
1549,1,SBT2050,2,3,,7,3015.4,4.155716,2.5956,1520.493,0,,
1549,1,SBT2050,2,3,,7,3020.1,4.15675,2.591,1523.878,0,,
1549,1,SBT2050,2,3,,7,3024.9,4.1575,2.5821,1527.331,0,,
1549,1,SBT2050,2,3,,7,3029.6,4.15837,2.5713,1530.695,0,,
1549,1,SBT2050,2,3,,7,3034.4,4.15966,2.5661,1534.119,0,,
1549,1,SBT2050,2,3,,7,3039.1,4.16083,2.5648,1537.469,0,,
1549,1,SBT2050,2,3,,7,3043.9,4.16196,2.5642,1540.888,0,,
1549,1,SBT2050,2,3,,7,3048.6,4.162324,2.5496,1544.225,0,,
1549,1,SBT2050,2,3,,7,3053.4,4.16354,2.5411,1547.618,0,,
1549,1,SBT2050,2,3,,7,3058.1,4.16445,2.5341,1550.932,0,,
1549,1,SBT2050,2,3,,7,3062.9,4.16521,2.5212,1554.304,0,,
1549,1,SBT2050,2,3,,7,3067.6,4.16622,2.5145,1557.591,0,,
1549,1,SBT2050,2,3,,7,3072.3,4.16704,2.511,1560.871,0,,
1549,1,SBT2050,2,3,,7,3077.1,4.16798,2.4989,1564.214,0,,
1549,1,SBT2050,2,3,,7,3081.8,4.168668,2.4896,1567.47,0,,
1549,1,SBT2050,2,3,,7,3086.6,4.17004,2.4847,1570.785,0,,
1549,1,SBT2050,2,3,,7,3091.3,4.17095,2.4819,1574.027,0,,
1549,1,SBT2050,2,3,,7,3096.1,4.171996,2.4806,1577.336,0,,
1549,1,SBT2050,2,3,,7,3100.8,4.17286,2.4655,1580.563,0,,
1549,1,SBT2050,2,3,,7,3105.6,4.17366,2.4575,1583.844,0,,
1549,1,SBT2050,2,3,,7,3110.3,4.17435,2.4386,1587.038,0,,
1549,1,SBT2050,2,3,,7,3115.1,4.17472,2.4314,1590.284,0,,
1549,1,SBT2050,2,3,,7,3119.8,4.17595,2.4286,1593.457,0,,
1549,1,SBT2050,2,3,,7,3124.6,4.17672,2.4226,1596.693,0,,
1549,1,SBT2050,2,3,,7,3129.3,4.17754,2.4087,1599.845,0,,
1549,1,SBT2050,2,3,,7,3134.1,4.178248,2.4031,1603.052,0,,
1549,1,SBT2050,2,3,,7,3138.8,4.179622,2.4005,1606.188,0,,
1549,1,SBT2050,2,3,,7,3143.6,4.18025,2.3881,1609.382,0,,
1549,1,SBT2050,2,3,,7,3148.3,4.18068,2.3787,1612.492,0,,
1549,1,SBT2050,2,3,,7,3153.011,4.181716,2.3744,1615.602,0,,
1549,1,SBT2050,2,3,,7,3157.8,4.18266,2.372,1618.758,0,,
1549,1,SBT2050,2,3,,7,3162.5,4.18343,2.3596,1621.849,0,,
1549,1,SBT2050,2,3,,7,3167.3,4.18422,2.3502,1624.988,0,,
1549,1,SBT2050,2,3,,7,3172,4.18539,2.3456,1628.053,0,,
1549,1,SBT2050,2,3,,7,3176.8,4.186308,2.3434,1631.179,0,,
1549,1,SBT2050,2,3,,7,3181.5,4.18697,2.3315,1634.232,0,,
1549,1,SBT2050,2,3,,7,3186.3,4.18806,2.3215,1637.333,0,,
1549,1,SBT2050,2,3,,7,3191,4.18823,2.3052,1640.355,0,,
1549,1,SBT2050,2,3,,7,3195.8,4.18955,2.305,1643.426,0,,
1549,1,SBT2050,2,3,,7,3200.5,4.19069,2.3043,1646.436,0,,
1549,1,SBT2050,2,3,,7,3205.3,4.190942,2.2939,1649.5,0,,
1549,1,SBT2050,2,3,,7,3210,4.19216,2.2847,1652.491,0,31,
1549,1,SBT2050,2,3,,7,3214.8,4.19264,2.2758,1655.532,0,,
1549,1,SBT2050,2,3,,7,3219.5,4.19355,2.2671,1658.496,0,,
1549,1,SBT2050,2,3,,7,3224.3,4.19461,2.2627,1661.516,0,,
1549,1,SBT2050,2,3,,7,3229,4.19551,2.2603,1664.469,0,30.8,
1549,1,SBT2050,2,3,,7,3233.8,4.19623,2.2485,1667.475,0,,
1549,1,SBT2050,2,3,,7,3238.5,4.19671,2.2388,1670.403,0,,
1549,1,SBT2050,2,3,,7,3243.2,4.197282,2.228,1673.321,0,,
1549,1,SBT2050,2,3,,7,3248,4.19827,2.2179,1676.287,0,,
1549,1,SBT2050,2,3,,7,3252.7,4.199052,2.2126,1679.179,0,,
1549,1,SBT2050,2,3,,7,3257.5,4.20009,2.209,1682.127,0,,
1549,1,SBT2050,2,3,,7,3262.2,4.200942,2.206,1685.009,0,,
1549,1,SBT2050,2,3,,7,3267,4.20201,2.2002,1687.948,0,,
1549,1,SBT2050,2,3,,7,3271.7,4.20234,2.1882,1690.812,0,,
1549,1,SBT2050,2,3,,7,3276.5,4.20318,2.1817,1693.725,0,,
1549,1,SBT2050,2,3,,7,3281.2,4.20404,2.1785,1696.571,0,,
1549,1,SBT2050,2,3,,7,3286,4.20503,2.1686,1699.472,0,,
1549,1,SBT2050,2,3,,7,3290.7,4.20567,2.1592,1702.296,0,,
1549,1,SBT2050,2,3,,7,3295.5,4.20659,2.1533,1705.17,0,,
1549,1,SBT2050,2,3,,7,3300.2,4.20735,2.1496,1707.979,0,,
1549,1,SBT2050,2,3,,7,3305,4.20849,2.1469,1710.843,0,,
1549,1,SBT2050,2,3,,7,3309.7,4.20942,2.144,1713.644,0,,
1549,1,SBT2050,2,3,,7,3314.5,4.21004,2.1319,1716.496,0,,
1549,1,SBT2050,2,3,,7,3319.2,4.21098,2.123,1719.273,0,,
1549,1,SBT2050,2,3,,7,3324,4.21165,2.1183,1722.101,0,,
1549,1,SBT2050,2,3,,7,3328.7,4.21278,2.1156,1724.865,0,,
1549,1,SBT2050,2,3,,7,3333.4,4.21362,2.1123,1727.624,0,,
1549,1,SBT2050,2,3,,7,3338.2,4.21445,2.1028,1730.437,0,,
1549,1,SBT2050,2,3,,7,3342.9,4.21499,2.0933,1733.175,0,,
1549,1,SBT2050,2,3,,7,3347.7,4.21563,2.0871,1735.961,0,,
1549,1,SBT2050,2,3,,7,3352.4,4.21666,2.0833,1738.683,0,,
1549,1,SBT2050,2,3,,7,3357.2,4.21737,2.0798,1741.459,0,,
1549,1,SBT2050,2,3,,7,3361.9,4.21829,2.069,1744.167,0,,
1549,1,SBT2050,2,3,,7,3366.7,4.21903,2.0596,1746.918,0,,
1549,1,SBT2050,2,3,,7,3371.4,4.219764,2.055,1749.603,0,,
1549,1,SBT2050,2,3,,7,3376.2,4.22073,2.0511,1752.34,0,,
1549,1,SBT2050,2,3,,7,3380.9,4.22176,2.0482,1755.016,0,,
1549,1,SBT2050,2,3,,7,3385.7,4.22216,2.037,1757.74,0,,
1549,1,SBT2050,2,3,,7,3390.4,4.222708,2.0275,1760.392,0,,
1549,1,SBT2050,2,3,,7,3395.2,4.2237,2.0225,1763.091,0,,
1549,1,SBT2050,2,3,,7,3399.9,4.22421,2.0139,1765.727,0,,
1549,1,SBT2050,2,3,,7,3404.7,4.22491,2.0029,1768.403,0,,
1549,1,SBT2050,2,3,,7,3409.4,4.22588,2.0028,1771.017,0,,
1549,1,SBT2050,2,3,,7,3414.1,4.22691,1.9955,1773.627,0,,
1549,1,SBT2050,2,3,,7,3418.9,4.227718,1.9918,1776.284,0,,
1549,1,SBT2050,2,3,,7,3423.6,4.22857,1.9876,1778.882,0,,
1549,1,SBT2050,2,3,,7,3428.4,4.22909,1.9745,1781.524,0,,
1549,1,SBT2050,2,3,,7,3433.1,4.22956,1.967,1784.096,0,,
1549,1,SBT2050,2,3,,7,3437.9,4.23044,1.9631,1786.716,0,,
1549,1,SBT2050,2,3,,7,3442.6,4.23153,1.9594,1789.276,0,,
1549,1,SBT2050,2,3,,7,3447.4,4.23242,1.9558,1791.886,0,,
1549,1,SBT2050,2,3,,7,3452.1,4.23284,1.9441,1794.431,0,,
1549,1,SBT2050,2,3,,7,3456.9,4.23378,1.9372,1797.017,0,,
1549,1,SBT2050,2,3,,7,3461.6,4.23468,1.9314,1799.542,0,,
1549,1,SBT2050,2,3,,7,3466.4,4.23512,1.9275,1802.115,0,,
1549,1,SBT2050,2,3,,7,3471.1,4.23625,1.9241,1804.629,0,,
1549,1,SBT2050,2,3,,7,3475.9,4.23696,1.9158,1807.191,0,,
1549,1,SBT2050,2,3,,7,3480.6,4.23768,1.9056,1809.683,0,,
1549,1,SBT2050,2,3,,7,3485.4,4.238274,1.9,1812.22,0,,
1549,1,SBT2050,2,3,,7,3490.1,4.23906,1.8963,1814.698,0,,
1549,1,SBT2050,2,3,,7,3494.9,4.2402,1.8931,1817.224,0,,
1549,1,SBT2050,2,3,,7,3499.6,4.24093,1.89,1819.693,0,,
1549,1,SBT2050,2,3,,7,3504.3,4.2411,1.8758,1822.15,0,,
1549,1,SBT2050,2,3,,7,3509.1,4.24218,1.8746,1824.648,0,,
1549,1,SBT2050,2,3,,7,3513.8,4.24305,1.8698,1827.093,0,,
1549,1,SBT2050,2,3,,7,3518.6,4.24346,1.8599,1829.579,0,,
1549,1,SBT2050,2,3,,7,3523.3,4.243682,1.8473,1831.998,0,,
1549,1,SBT2050,2,3,,7,3528.1,4.245094,1.8517,1834.464,0,,
1549,1,SBT2050,2,3,,7,3532.8,4.24606,1.8456,1836.879,0,,
1549,1,SBT2050,2,3,,7,3537.6,4.24675,1.8362,1839.332,0,,
1549,1,SBT2050,2,3,,7,3542.3,4.24701,1.8307,1841.725,0,,
1549,1,SBT2050,2,3,,7,3547.1,4.24829,1.8271,1844.164,0,,
1549,1,SBT2050,2,3,,7,3551.8,4.24911,1.8239,1846.547,0,,
1549,1,SBT2050,2,3,,7,3556.6,4.25017,1.8204,1848.977,0,,
1549,1,SBT2050,2,3,,7,3561.3,4.2508,1.8113,1851.349,0,,
1549,1,SBT2050,2,3,,7,3566.1,4.25098,1.8013,1853.758,0,,
1549,1,SBT2050,2,3,,7,3570.8,4.25208,1.7969,1856.106,0,,
1549,1,SBT2050,2,3,,7,3575.6,4.2529,1.7928,1858.499,0,,
1549,1,SBT2050,2,3,,7,3580.3,4.25371,1.7889,1860.837,0,,
1549,1,SBT2050,2,3,,7,3585.1,4.25378,1.7754,1863.214,0,,
1549,1,SBT2050,2,3,,7,3589.8,4.25443,1.7698,1865.528,0,,
1549,1,SBT2050,2,3,,7,3594.5,4.25525,1.7654,1867.835,0,,
1549,1,SBT2050,2,3,,7,3599.3,4.25634,1.7619,1870.186,0,,
1549,1,SBT2050,2,3,,7,3604,4.25687,1.7585,1872.484,0,,
1549,1,SBT2050,2,3,,7,3608.8,4.25765,1.7554,1874.827,0,,
1549,1,SBT2050,2,3,,7,3613.5,4.258716,1.749,1877.116,0,,
1549,1,SBT2050,2,3,,7,3618.3,4.25841,1.7375,1879.439,0,,
1549,1,SBT2050,2,3,,7,3623,4.25947,1.7317,1881.704,0,,
1549,1,SBT2050,2,3,,7,3627.8,4.26019,1.7281,1884.011,0,,
1549,1,SBT2050,2,3,,7,3632.5,4.26125,1.7252,1886.264,0,,
1549,1,SBT2050,2,3,,7,3637.3,4.26154,1.7169,1888.559,0,,
1549,1,SBT2050,2,3,,7,3642,4.2628,1.7164,1890.8,0,29.1,
1549,1,SBT2050,2,3,,7,3646.8,4.26344,1.7077,1893.084,0,,
1549,1,SBT2050,2,3,,7,3651.5,4.26374,1.6992,1895.307,0,,
1549,1,SBT2050,2,3,,7,3656.3,4.264664,1.6945,1897.569,0,,
1549,1,SBT2050,2,3,,7,3661,4.26547,1.6907,1899.779,0,,
1549,1,SBT2050,2,3,,7,3665.8,4.26637,1.6877,1902.031,0,,
1549,1,SBT2050,2,3,,7,3670.5,4.26711,1.6849,1904.232,0,,
1549,1,SBT2050,2,3,,7,3675.2,4.26825,1.6809,1906.429,0,,
1549,1,SBT2050,2,3,,7,3680,4.26863,1.6718,1908.664,0,,
1549,1,SBT2050,2,3,,7,3684.7,4.26907,1.6637,1910.841,0,,
1549,1,SBT2050,2,3,,7,3689.5,4.26974,1.6583,1913.055,0,,
1549,1,SBT2050,2,3,,7,3694.2,4.2707,1.6541,1915.217,0,,
1549,1,SBT2050,2,3,,7,3699,4.2717,1.6506,1917.42,0,,
1549,1,SBT2050,2,3,,7,3703.7,4.27207,1.6479,1919.573,0,,
1549,1,SBT2050,2,3,,7,3708.5,4.272628,1.6356,1921.762,0,,
1549,1,SBT2050,2,3,,7,3713.2,4.273144,1.6282,1923.892,0,,
1549,1,SBT2050,2,3,,7,3718,4.27374,1.6239,1926.06,0,,
1549,1,SBT2050,2,3,,7,3722.7,4.27472,1.6209,1928.179,0,,
1549,1,SBT2050,2,3,,7,3727.5,4.27533,1.6177,1930.337,0,,
1549,1,SBT2050,2,3,,7,3732.2,4.27639,1.6141,1932.447,0,,
1549,1,SBT2050,2,3,,7,3737,4.27633,1.6012,1934.591,0,,
1549,1,SBT2050,2,3,,7,3741.7,4.27731,1.5957,1936.678,0,,
1549,1,SBT2050,2,3,,7,3746.5,4.27775,1.5912,1938.802,0,,
1549,1,SBT2050,2,3,,7,3751.2,4.27861,1.5878,1940.877,0,,
1549,1,SBT2050,2,3,,7,3756,4.279452,1.5848,1942.992,0,28.7,
1549,1,SBT2050,2,3,,7,3760.7,4.28043,1.5804,1945.058,0,,
1549,1,SBT2050,2,3,,7,3765.4,4.28095,1.5767,1947.117,0,,
1549,1,SBT2050,2,3,,7,3770.2,4.28158,1.568,1949.215,0,,
1549,1,SBT2050,2,3,,7,3774.9,4.282358,1.5612,1951.257,0,,
1549,1,SBT2050,2,3,,7,3779.7,4.28248,1.5562,1953.335,0,,
1549,1,SBT2050,2,3,,7,3784.4,4.28355,1.5526,1955.364,0,,
1549,1,SBT2050,2,3,,7,3789.2,4.28459,1.5495,1957.431,0,,
1549,1,SBT2050,2,3,,7,3793.9,4.28563,1.5467,1959.452,0,,
1549,1,SBT2050,2,3,,7,3798.7,4.28619,1.5435,1961.512,0,,
1549,1,SBT2050,2,3,,7,3803.4,4.28701,1.5406,1963.525,0,,
1549,1,SBT2050,2,3,,7,3808.2,4.28751,1.531,1965.572,0,,
1549,1,SBT2050,2,3,,7,3812.9,4.287824,1.5232,1967.565,0,,
1549,1,SBT2050,2,3,,7,3817.7,4.28862,1.5176,1969.592,0,,
1549,1,SBT2050,2,3,,7,3822.4,4.28951,1.5141,1971.571,0,,
1549,1,SBT2050,2,3,,7,3827.2,4.29001,1.5055,1973.586,0,,
1549,1,SBT2050,2,3,,7,3831.9,4.29073,1.5012,1975.549,0,,
1549,1,SBT2050,2,3,,7,3836.7,4.29131,1.4941,1977.547,0,,
1549,1,SBT2050,2,3,,7,3841.4,4.29179,1.4887,1979.493,0,,
1549,1,SBT2050,2,3,,7,3846.165,4.29258,1.4852,1981.462,0,,
1549,1,SBT2050,2,3,,7,3850.9,4.29368,1.4827,1983.413,0,,
1549,1,SBT2050,2,3,,7,3855.6,4.29432,1.4795,1985.346,0,,
1549,1,SBT2050,2,3,,7,3860.4,4.295044,1.4766,1987.316,0,,
1549,1,SBT2050,2,3,,7,3865.1,4.29606,1.4736,1989.242,0,,
1549,1,SBT2050,2,3,,7,3869.9,4.29675,1.471,1991.205,0,,
1549,1,SBT2050,2,3,,7,3874.6,4.29753,1.468,1993.123,0,,
1549,1,SBT2050,2,3,,7,3879.4,4.29831,1.4598,1995.076,0,,
1549,1,SBT2050,2,3,,7,3884.1,4.2984,1.45,1996.976,0,,
1549,1,SBT2050,2,3,,7,3888.9,4.29892,1.4458,1998.906,0,,
1549,1,SBT2050,2,3,,7,3893.6,4.299748,1.4419,2000.791,0,,
1549,1,SBT2050,2,3,,7,3898.4,4.30048,1.4391,2002.711,0,,
1549,1,SBT2050,2,3,,7,3903.1,4.30133,1.4359,2004.588,0,,
1549,1,SBT2050,2,3,,7,3907.9,4.30168,1.4264,2006.497,0,,
1549,1,SBT2050,2,3,,7,3912.6,4.3025,1.4231,2008.359,0,,
1549,1,SBT2050,2,3,,7,3917.4,4.30267,1.4153,2010.251,0,,
1549,1,SBT2050,2,3,,7,3922.1,4.30347,1.4109,2012.095,0,,
1549,1,SBT2050,2,3,,7,3926.9,4.30431,1.4081,2013.975,0,,
1549,1,SBT2050,2,3,,7,3931.6,4.30524,1.4053,2015.811,0,,
1549,1,SBT2050,2,3,,7,3936.3,4.30566,1.4022,2017.644,0,,
1549,1,SBT2050,2,3,,7,3941.1,4.30665,1.3958,2019.508,0,,
1549,1,SBT2050,2,3,,7,3945.8,4.30727,1.3923,2021.327,0,,
1549,1,SBT2050,2,3,,7,3950.6,4.308028,1.391,2023.182,0,,
1549,1,SBT2050,2,3,,7,3955.3,4.30881,1.3834,2024.995,0,,
1549,1,SBT2050,2,3,,7,3960.1,4.30896,1.3761,2026.835,0,,
1549,1,SBT2050,2,3,,7,3964.8,4.309508,1.3724,2028.629,0,,
1549,1,SBT2050,2,3,,7,3969.6,4.31053,1.3691,2030.457,0,,
1549,1,SBT2050,2,3,,7,3974.3,4.311482,1.3665,2032.242,0,,
1549,1,SBT2050,2,3,,7,3979.1,4.31213,1.3636,2034.063,0,,
1549,1,SBT2050,2,3,,7,3983.8,4.31309,1.3614,2035.841,0,,
1549,1,SBT2050,2,3,,7,3988.6,4.31357,1.3571,2037.652,0,,
1549,1,SBT2050,2,3,,7,3993.3,4.31399,1.3465,2039.418,0,,
1549,1,SBT2050,2,3,,7,3998.1,4.31436,1.3395,2041.209,0,,
1549,1,SBT2050,2,3,,7,4002.8,4.31518,1.3366,2042.956,0,,
1549,1,SBT2050,2,3,,7,4007.6,4.31601,1.3336,2044.736,0,,
1549,1,SBT2050,2,3,,7,4012.3,4.31685,1.3312,2046.475,0,,
1549,1,SBT2050,2,3,,7,4017.1,4.31723,1.3283,2048.248,0,,
1549,1,SBT2050,2,3,,7,4021.8,4.31794,1.3261,2049.981,0,,
1549,1,SBT2050,2,3,,7,4026.5,4.318288,1.3146,2051.705,0,,
1549,1,SBT2050,2,3,,7,4031.3,4.31899,1.3097,2053.453,0,,
1549,1,SBT2050,2,3,,7,4036,4.32003,1.3117,2055.162,0,,
1549,1,SBT2050,2,3,,7,4040.8,4.32122,1.3102,2056.909,0,,
1549,1,SBT2050,2,3,,7,4045.5,4.32138,1.3015,2058.613,0,,
1549,1,SBT2050,2,3,,7,4050.3,4.32191,1.2969,2060.345,0,,
1549,1,SBT2050,2,3,,7,4055,4.32304,1.294,2062.037,0,,
1549,1,SBT2050,2,3,,7,4059.8,4.323764,1.2919,2063.76,0,,
1549,1,SBT2050,2,3,,7,4064.5,4.32467,1.2893,2065.445,0,,
1549,1,SBT2050,2,3,,7,4069.3,4.325548,1.2865,2067.162,0,,
1549,1,SBT2050,2,3,,7,4074,4.32641,1.2838,2068.84,0,,
1549,1,SBT2050,2,3,,7,4078.8,4.326944,1.2779,2070.546,0,,
1549,1,SBT2050,2,3,,7,4083.5,4.32697,1.2691,2072.209,0,,
1549,1,SBT2050,2,3,,7,4088.3,4.327984,1.2627,2073.897,0,,
1549,1,SBT2050,2,3,,7,4093,4.32854,1.2592,2075.543,0,,
1549,1,SBT2050,2,3,,7,4097.8,4.32927,1.257,2077.221,0,,
1549,1,SBT2050,2,3,,7,4102.5,4.330224,1.2548,2078.86,0,,
1549,1,SBT2050,2,3,,7,4107.223,4.33096,1.2498,2080.505,0,,
1549,1,SBT2050,2,3,,7,4112,4.3313,1.2487,2082.163,0,,
1549,1,SBT2050,2,3,,7,4116.7,4.33267,1.2476,2083.792,0,,
1549,1,SBT2050,2,3,,7,4121.5,4.33351,1.2454,2085.454,0,,
1549,1,SBT2050,2,3,,7,4126.2,4.33406,1.2429,2087.078,0,,
1549,1,SBT2050,2,3,,7,4131,4.33495,1.2403,2088.734,0,,
1549,1,SBT2050,2,3,,7,4135.7,4.33549,1.2329,2090.35,0,,
1549,1,SBT2050,2,3,,7,4140.5,4.33595,1.2236,2091.987,0,,
1549,1,SBT2050,2,3,,7,4145.2,4.33638,1.2189,2093.581,0,,
1549,1,SBT2050,2,3,,7,4150,4.33701,1.216,2095.205,0,,
1549,1,SBT2050,2,3,,7,4154.7,4.337902,1.2141,2096.791,0,,
1549,1,SBT2050,2,3,,7,4159.5,4.33868,1.2118,2098.409,0,,
1549,1,SBT2050,2,3,,7,4164.2,4.33931,1.2095,2099.989,0,,
1549,1,SBT2050,2,3,,7,4169,4.3399,1.2071,2101.601,0,,
1549,1,SBT2050,2,3,,7,4173.7,4.34075,1.2028,2103.174,0,,
1549,1,SBT2050,2,3,,7,4178.5,4.34159,1.1992,2104.777,0,,
1549,1,SBT2050,2,3,,7,4183.2,4.34166,1.1887,2106.335,0,,
1549,1,SBT2050,2,3,,7,4188,4.34216,1.184,2107.917,0,,
1549,1,SBT2050,2,3,,7,4192.7,4.34286,1.1814,2109.46,0,,
1549,1,SBT2050,2,3,,7,4197.4,4.343688,1.1791,2111.001,0,,
1549,1,SBT2050,2,3,,7,4202.2,4.3443,1.1768,2112.572,0,,
1549,1,SBT2050,2,3,,7,4206.9,4.34547,1.1752,2114.107,0,,
1549,1,SBT2050,2,3,,7,4211.7,4.34598,1.1728,2115.672,0,,
1549,1,SBT2050,2,3,,7,4216.4,4.3471,1.1706,2117.202,0,,
1549,1,SBT2050,2,3,,7,4221.2,4.34783,1.1681,2118.761,0,,
1549,1,SBT2050,2,3,,7,4225.9,4.3485,1.1663,2120.285,0,,
1549,1,SBT2050,2,3,,7,4230.7,4.34927,1.1641,2121.838,0,,
1549,1,SBT2050,2,3,,7,4235.4,4.35015,1.1614,2123.356,0,,
1549,1,SBT2050,2,3,,7,4240.2,4.35027,1.1504,2124.898,0,,
1549,1,SBT2050,2,3,,7,4244.9,4.35086,1.1463,2126.399,0,,
1549,1,SBT2050,2,3,,7,4249.7,4.35161,1.145,2127.927,0,,
1549,1,SBT2050,2,3,,7,4254.4,4.35227,1.1395,2129.418,0,,
1549,1,SBT2050,2,3,,7,4259.2,4.35275,1.1363,2130.935,0,,
1549,1,SBT2050,2,3,,7,4263.9,4.35367,1.1342,2132.417,0,,
1549,1,SBT2050,2,3,,7,4268.7,4.35446,1.1319,2133.928,0,,
1549,1,SBT2050,2,3,,7,4273.4,4.35521,1.13,2135.404,0,,
1549,1,SBT2050,2,3,,7,4278.2,4.35609,1.1277,2136.909,0,,
1549,1,SBT2050,2,3,,7,4282.9,4.35693,1.1257,2138.38,0,,
1549,1,SBT2050,2,3,,7,4287.6,4.357806,1.1236,2139.848,0,,
1549,1,SBT2050,2,3,,7,4292.4,4.35834,1.1211,2141.345,0,,
1549,1,SBT2050,2,3,,7,4297.1,4.35935,1.119,2142.808,0,,
1549,1,SBT2050,2,3,,7,4301.9,4.36021,1.1172,2144.298,0,,
1549,1,SBT2050,2,3,,7,4306.6,4.36102,1.1148,2145.755,0,,
1549,1,SBT2050,2,3,,7,4311.4,4.36138,1.1075,2147.239,0,,
1549,1,SBT2050,2,3,,7,4316.1,4.36151,1.0984,2148.679,0,,
1549,1,SBT2050,2,3,,7,4320.9,4.36224,1.095,2150.141,0,,
1549,1,SBT2050,2,3,,7,4325.6,4.36287,1.092,2151.568,0,,
1549,1,SBT2050,2,3,,7,4330.4,4.36353,1.09,2153.023,0,,
1549,1,SBT2050,2,3,,7,4335.1,4.364482,1.0879,2154.445,0,,
1549,1,SBT2050,2,3,,7,4339.9,4.36499,1.0859,2155.894,0,,
1549,1,SBT2050,2,3,,7,4344.6,4.36572,1.0839,2157.31,0,,
1549,1,SBT2050,2,3,,7,4349.4,4.36645,1.0818,2158.754,0,,
1549,1,SBT2050,2,3,,7,4354.1,4.36754,1.0797,2160.165,0,,
1549,1,SBT2050,2,3,,7,4358.9,4.36845,1.0779,2161.603,0,,
1549,1,SBT2050,2,3,,7,4363.6,4.36927,1.0757,2163.009,0,,
1549,1,SBT2050,2,3,,7,4368.3,4.36957,1.0658,2164.406,0,,
1549,1,SBT2050,2,3,,7,4373.1,4.36953,1.0589,2165.823,0,,
1549,1,SBT2050,2,3,,7,4377.8,4.37018,1.0562,2167.203,0,,
1549,1,SBT2050,2,3,,7,4382.6,4.37104,1.0537,2168.61,0,,
1549,1,SBT2050,2,3,,7,4387.3,4.37169,1.0516,2169.984,0,,
1549,1,SBT2050,2,3,,7,4392.1,4.37214,1.0494,2171.385,0,,
1549,1,SBT2050,2,3,,7,4396.8,4.3731,1.0479,2172.754,0,,
1549,1,SBT2050,2,3,,7,4401.6,4.374308,1.0458,2174.15,0,,
1549,1,SBT2050,2,3,,7,4406.3,4.37481,1.0437,2175.514,0,,
1549,1,SBT2050,2,3,,7,4411.1,4.37579,1.0414,2176.904,0,,
1549,1,SBT2050,2,3,,7,4415.8,4.376706,1.0399,2178.263,0,,
1549,1,SBT2050,2,3,,7,4420.6,4.37756,1.0379,2179.648,0,,
1549,1,SBT2050,2,3,,7,4425.3,4.37836,1.0356,2181.002,0,,
1549,1,SBT2050,2,3,,7,4430.1,4.37894,1.0333,2182.381,0,,
1549,1,SBT2050,2,3,,7,4434.8,4.380132,1.0315,2183.73,0,,
1549,1,SBT2050,2,3,,7,4439.6,4.38028,1.0233,2185.1,0,,
1549,1,SBT2050,2,3,,7,4444.3,4.38066,1.0159,2186.431,0,,
1549,1,SBT2050,2,3,,7,4449.1,4.38085,1.0124,2187.783,0,,
1549,1,SBT2050,2,3,,7,4453.8,4.38158,1.0104,2189.103,0,,
1549,1,SBT2050,2,3,,7,4458.5,4.38252,1.0083,2190.421,0,,
1549,1,SBT2050,2,3,,7,4463.3,4.383126,1.0062,2191.764,0,,
1549,1,SBT2050,2,3,,7,4468,4.38395,1.0047,2193.077,0,,
1549,1,SBT2050,2,3,,7,4472.8,4.38481,1.0026,2194.415,0,,
1549,1,SBT2050,2,3,,7,4477.5,4.3854,1.0009,2195.723,0,,
1549,1,SBT2050,2,3,,7,4482.3,4.386196,0.9988,2197.056,0,,
1549,1,SBT2050,2,3,,7,4487,4.38708,0.9971,2198.359,0,,
1549,1,SBT2050,2,3,,7,4491.8,4.38773,0.995,2199.687,0,,
1549,1,SBT2050,2,3,,7,4496.5,4.38875,0.9927,2200.984,0,,
1549,1,SBT2050,2,3,,7,4501.3,4.389438,0.9906,2202.307,0,,
1549,1,SBT2050,2,3,,7,4506,4.39018,0.9887,2203.598,0,,
1549,1,SBT2050,2,3,,7,4510.8,4.39122,0.9866,2204.915,0,,
1549,1,SBT2050,2,3,,7,4515.5,4.392054,0.9842,2206.201,0,,
1549,1,SBT2050,2,3,,7,4520.3,4.3926,0.9821,2207.512,0,,
1549,1,SBT2050,2,3,,7,4525,4.39348,0.9801,2208.793,0,,
1549,1,SBT2050,2,3,,7,4529.8,4.39419,0.9778,2210.098,0,,
1549,1,SBT2050,2,3,,7,4534.5,4.39457,0.9708,2211.369,0,,
1549,1,SBT2050,2,3,,7,4539.3,4.39562,0.9708,2212.663,0,,
1549,1,SBT2050,2,3,,7,4544,4.39589,0.9637,2213.926,0,,
1549,1,SBT2050,2,3,,7,4548.7,4.39622,0.9591,2215.18,0,,
1549,1,SBT2050,2,3,,7,4553.5,4.39686,0.9567,2216.457,0,,
1549,1,SBT2050,2,3,,7,4558.2,4.39777,0.9544,2217.705,0,,
1549,1,SBT2050,2,3,,7,4563,4.39875,0.9529,2218.976,0,,
1549,1,SBT2050,2,3,,7,4567.7,4.39927,0.9505,2220.219,0,,
1549,1,SBT2050,2,3,,7,4569.894,4.40003,0.9497,2220.798,0,,