File: ORRG/Test1560.csv
Request Year:,2018,,,,,,,,,,,,
Test:,1560,,,,,,,,,,,,
Test Description:,,,,,,,,,,,,,
TestRegime Name:,Aging_test caseB_1,,,,,,,,,,,,
TestRegime Suffix:,SHP_LC,,,,,,,,,,,,
TestRegime CellSize:,18650,,,,,,,,,,,,
TestRegime Version:,3,,,,,,,,,,,,
Number Of Cells:,1,,,,,,,,,,,,
LotID:,,,,,,,,,,,,,
Lot Description:,,,,,,,,,,,,,
Date Made:,1/21/2003 12:00 AM,,,,,,,,,,,,
Origin:,Other,,,,,,,,,,,,
Requestor:,Admin,,,,,,,,,,,,
Product ID:,Default product,,,,,,,,,,,,
Storage Temp:,R.T./AMB,,,,,,,,,,,,
Storage Delay:,0 days,,,,,,,,,,,,
Test Temp:,R.T./AMB,,,,,,,,,,,,
Start Time:,4/26/2018 8:21 PM,,,,,,,,,,,,
End Time:,4/26/2018 9:40 PM,,,,,,,,,,,,
Operator Instructions:,,,,,,,,,,,,,
Test,Cell,Rack,Shelf,Position,Cell ID,Step,Total Time (Seconds),Voltage (V),Current (A),Charge Capacity (mAh),Discharge Capacity (mAh),Trs (Â°C),
1560,1,SBT2050,2,3,,0,0.1,3.31056,0,0,0,,
1560,1,SBT2050,2,3,,0,5.1,3.310623,0,0,0,,
1560,1,SBT2050,2,3,,0,10.1,3.31072,0,0,0,,
1560,1,SBT2050,2,3,,0,15.1,3.31083,0,0,0,,
1560,1,SBT2050,2,3,,0,20.1,3.31059,0,0,0,,
1560,1,SBT2050,2,3,,0,25.1,3.31084,0,0,0,,
1560,1,SBT2050,2,3,,0,30.1,3.31081,0,0,0,,
1560,1,SBT2050,2,3,,0,35.1,3.3109,0,0,0,,
1560,1,SBT2050,2,3,,0,40.1,3.31079,0,0,0,,
1560,1,SBT2050,2,3,,0,45.1,3.31096,0,0,0,,
1560,1,SBT2050,2,3,,0,50.1,3.310768,0,0,0,,
1560,1,SBT2050,2,3,,0,55.1,3.31065,0,0,0,,
1560,1,SBT2050,2,3,,0,60.1,3.31055,0,0,0,,
1560,1,SBT2050,2,3,,0,65.1,3.31058,0,0,0,,
1560,1,SBT2050,2,3,,0,70.1,3.3109,0,0,0,,
1560,1,SBT2050,2,3,,0,75.1,3.3106,0,0,0,,
1560,1,SBT2050,2,3,,0,80.1,3.31073,0,0,0,,
1560,1,SBT2050,2,3,,0,85.1,3.31084,0,0,0,,
1560,1,SBT2050,2,3,,0,90.1,3.3108,0,0,0,,
1560,1,SBT2050,2,3,,0,95.1,3.31088,0,0,0,,
1560,1,SBT2050,2,3,,0,100.1,3.31069,0,0,0,,
1560,1,SBT2050,2,3,,0,105.1,3.31073,0,0,0,,
1560,1,SBT2050,2,3,,0,110.1,3.31064,0,0,0,,
1560,1,SBT2050,2,3,,0,115.1,3.31083,0,0,0,,
1560,1,SBT2050,2,3,,0,120.1,3.31079,0,0,0,,
1560,1,SBT2050,2,3,,0,125.1,3.31075,0,0,0,,
1560,1,SBT2050,2,3,,0,130.1,3.31101,0,0,0,,
1560,1,SBT2050,2,3,,0,135.1,3.31074,0,0,0,,
1560,1,SBT2050,2,3,,0,140.1,3.31091,0,0,0,,
1560,1,SBT2050,2,3,,0,145.1,3.31086,0,0,0,,
1560,1,SBT2050,2,3,,0,150.1,3.31113,0,0,0,,
1560,1,SBT2050,2,3,,0,155.1,3.31103,0,0,0,,
1560,1,SBT2050,2,3,,0,160.1,3.31111,0,0,0,,
1560,1,SBT2050,2,3,,0,165.1,3.31088,0,0,0,,
1560,1,SBT2050,2,3,,0,170.1,3.31099,0,0,0,,
1560,1,SBT2050,2,3,,0,175.1,3.31089,0,0,0,,
1560,1,SBT2050,2,3,,0,180.1,3.31089,0,0,0,,
1560,1,SBT2050,2,3,,0,185.1,3.31103,0,0,0,,
1560,1,SBT2050,2,3,,0,190.1,3.31105,0,0,0,,
1560,1,SBT2050,2,3,,0,195.1,3.31077,0,0,0,,
1560,1,SBT2050,2,3,,0,200.1,3.31089,0,0,0,,
1560,1,SBT2050,2,3,,0,205.1,3.31099,0,0,0,,
1560,1,SBT2050,2,3,,0,210.1,3.31084,0,0,0,,
1560,1,SBT2050,2,3,,0,215.1,3.310893,0,0,0,,
1560,1,SBT2050,2,3,,0,220.1,3.31092,0,0,0,,
1560,1,SBT2050,2,3,,0,225.1,3.31122,0,0,0,,
1560,1,SBT2050,2,3,,0,230.1,3.31115,0,0,0,,
1560,1,SBT2050,2,3,,0,235.1,3.31085,0,0,0,,
1560,1,SBT2050,2,3,,0,240.1,3.31112,0,0,0,,
1560,1,SBT2050,2,3,,0,245.1,3.31074,0,0,0,,
1560,1,SBT2050,2,3,,0,250.1,3.31088,0,0,0,,
1560,1,SBT2050,2,3,,0,255.1,3.31068,0,0,0,,
1560,1,SBT2050,2,3,,0,260.1,3.310895,0,0,0,,
1560,1,SBT2050,2,3,,0,265.1,3.31097,0,0,0,,
1560,1,SBT2050,2,3,,0,270.1,3.31096,0,0,0,,
1560,1,SBT2050,2,3,,0,275.1,3.31092,0,0,0,,
1560,1,SBT2050,2,3,,0,280.1,3.31082,0,0,0,,
1560,1,SBT2050,2,3,,0,285.1,3.31087,0,0,0,,
1560,1,SBT2050,2,3,,0,290.1,3.31094,0,0,0,,
1560,1,SBT2050,2,3,,0,295.1,3.31077,0,0,0,,
1560,1,SBT2050,2,3,,0,300.1,3.31092,0,0,0,,
1560,1,SBT2050,2,3,,0,305.1,3.311016,0,0,0,,
1560,1,SBT2050,2,3,,0,310.1,3.31119,0,0,0,,
1560,1,SBT2050,2,3,,0,315.1,3.31119,0,0,0,,
1560,1,SBT2050,2,3,,0,320.1,3.31104,0,0,0,,
1560,1,SBT2050,2,3,,0,325.1,3.31132,0,0,0,,
1560,1,SBT2050,2,3,,0,330.1,3.31127,0,0,0,,
1560,1,SBT2050,2,3,,0,335.1,3.31123,0,0,0,,
1560,1,SBT2050,2,3,,0,340.1,3.31137,0,0,0,,
1560,1,SBT2050,2,3,,0,345.1,3.31148,0,0,0,,
1560,1,SBT2050,2,3,,0,350.1,3.311349,0,0,0,,
1560,1,SBT2050,2,3,,0,355.1,3.31107,0,0,0,,
1560,1,SBT2050,2,3,,0,360.1,3.31172,0,0,0,,
1560,1,SBT2050,2,3,,0,365.1,3.31162,0,0,0,,
1560,1,SBT2050,2,3,,0,370.1,3.311643,0,0,0,,
1560,1,SBT2050,2,3,,0,375.1,3.31162,0,0,0,,
1560,1,SBT2050,2,3,,0,380.1,3.31164,0,0,0,,
1560,1,SBT2050,2,3,,0,385.1,3.31158,0,0,0,,
1560,1,SBT2050,2,3,,0,390.1,3.3114,0,0,0,,
1560,1,SBT2050,2,3,,0,395.1,3.31132,0,0,0,,
1560,1,SBT2050,2,3,,0,400.1,3.3116,0,0,0,,
1560,1,SBT2050,2,3,,0,405.1,3.31143,0,0,0,,
1560,1,SBT2050,2,3,,0,410.1,3.31165,0,0,0,,
1560,1,SBT2050,2,3,,0,415.1,3.31145,0,0,0,,
1560,1,SBT2050,2,3,,0,420.1,3.311369,0,0,0,,
1560,1,SBT2050,2,3,,0,425.1,3.31154,0,0,0,,
1560,1,SBT2050,2,3,,0,430.1,3.31126,0,0,0,,
1560,1,SBT2050,2,3,,0,435.1,3.31131,0,0,0,,
1560,1,SBT2050,2,3,,0,440.1,3.311352,0,0,0,,
1560,1,SBT2050,2,3,,0,445.1,3.31163,0,0,0,,
1560,1,SBT2050,2,3,,0,450.1,3.31161,0,0,0,,
1560,1,SBT2050,2,3,,0,455.1,3.311462,0,0,0,,
1560,1,SBT2050,2,3,,0,460.1,3.31131,0,0,0,,
1560,1,SBT2050,2,3,,0,465.1,3.31155,0,0,0,,
1560,1,SBT2050,2,3,,0,470.1,3.31158,0,0,0,,
1560,1,SBT2050,2,3,,0,475.1,3.31138,0,0,0,,
1560,1,SBT2050,2,3,,0,480.1,3.31148,0,0,0,,
1560,1,SBT2050,2,3,,0,485.1,3.31148,0,0,0,,
1560,1,SBT2050,2,3,,0,490.1,3.31148,0,0,0,,
1560,1,SBT2050,2,3,,0,495.1,3.31141,0,0,0,,
1560,1,SBT2050,2,3,,0,500.1,3.31153,0,0,0,,
1560,1,SBT2050,2,3,,0,505.1,3.31147,0,0,0,,
1560,1,SBT2050,2,3,,0,510.1,3.3114,0,0,0,,
1560,1,SBT2050,2,3,,0,515.1,3.3114,0,0,0,,
1560,1,SBT2050,2,3,,0,520.1,3.31168,0,0,0,,
1560,1,SBT2050,2,3,,0,525.1,3.31157,0,0,0,,
1560,1,SBT2050,2,3,,0,530.1,3.31143,0,0,0,,
1560,1,SBT2050,2,3,,0,535.1,3.31147,0,0,0,,
1560,1,SBT2050,2,3,,0,540.1,3.311688,0,0,0,,
1560,1,SBT2050,2,3,,0,545.1,3.31158,0,0,0,,
1560,1,SBT2050,2,3,,0,550.1,3.3117,0,0,0,,
1560,1,SBT2050,2,3,,0,555.1,3.31156,0,0,0,,
1560,1,SBT2050,2,3,,0,560.1,3.31164,0,0,0,,
1560,1,SBT2050,2,3,,0,565.1,3.31147,0,0,0,,
1560,1,SBT2050,2,3,,0,570.1,3.311737,0,0,0,,
1560,1,SBT2050,2,3,,0,575.1,3.31162,0,0,0,,
1560,1,SBT2050,2,3,,0,580.1,3.31166,0,0,0,,
1560,1,SBT2050,2,3,,0,585.1,3.31161,0,0,0,,
1560,1,SBT2050,2,3,,0,590.1,3.31151,0,0,0,,
1560,1,SBT2050,2,3,,0,595.1,3.31165,0,0,0,,
1560,1,SBT2050,2,3,,0,600.1,3.3117,0,0,0,,
1560,1,SBT2050,2,3,,0,605.1,3.31172,0,0,0,,
1560,1,SBT2050,2,3,,0,610.1,3.3119,0,0,0,,
1560,1,SBT2050,2,3,,0,615.1,3.31137,0,0,0,,
1560,1,SBT2050,2,3,,0,620.1,3.31179,0,0,0,,
1560,1,SBT2050,2,3,,0,625.1,3.31177,0,0,0,,
1560,1,SBT2050,2,3,,0,630.1,3.3118,0,0,0,,
1560,1,SBT2050,2,3,,0,635.1,3.31148,0,0,0,,
1560,1,SBT2050,2,3,,0,640.1,3.311747,0,0,0,,
1560,1,SBT2050,2,3,,0,645.1,3.31159,0,0,0,,
1560,1,SBT2050,2,3,,0,650.1,3.31146,0,0,0,,
1560,1,SBT2050,2,3,,0,655.1,3.311787,0,0,0,,
1560,1,SBT2050,2,3,,0,660.1,3.31177,0,0,0,,
1560,1,SBT2050,2,3,,0,665.1,3.311756,0,0,0,,
1560,1,SBT2050,2,3,,0,670.1,3.31185,0,0,0,,
1560,1,SBT2050,2,3,,0,675.1,3.31193,0,0,0,,
1560,1,SBT2050,2,3,,0,680.1,3.31157,0,0,0,,
1560,1,SBT2050,2,3,,0,685.1,3.311904,0,0,0,,
1560,1,SBT2050,2,3,,0,690.1,3.311877,0,0,0,,
1560,1,SBT2050,2,3,,0,695.1,3.31195,0,0,0,,
1560,1,SBT2050,2,3,,0,700.1,3.31202,0,0,0,,
1560,1,SBT2050,2,3,,0,705.1,3.3119,0,0,0,,
1560,1,SBT2050,2,3,,0,710.1,3.31187,0,0,0,,
1560,1,SBT2050,2,3,,0,715.1,3.31195,0,0,0,,
1560,1,SBT2050,2,3,,0,720.1,3.31207,0,0,0,,
1560,1,SBT2050,2,3,,0,725.1,3.31207,0,0,0,,
1560,1,SBT2050,2,3,,0,730.1,3.3119,0,0,0,,
1560,1,SBT2050,2,3,,0,735.1,3.31197,0,0,0,,
1560,1,SBT2050,2,3,,0,740.1,3.31199,0,0,0,,
1560,1,SBT2050,2,3,,0,745.1,3.31205,0,0,0,,
1560,1,SBT2050,2,3,,0,750.1,3.312056,0,0,0,,
1560,1,SBT2050,2,3,,0,755.1,3.31182,0,0,0,,
1560,1,SBT2050,2,3,,0,760.1,3.311983,0,0,0,,
1560,1,SBT2050,2,3,,0,765.1,3.31201,0,0,0,,
1560,1,SBT2050,2,3,,0,770.1,3.31194,0,0,0,,
1560,1,SBT2050,2,3,,0,775.1,3.31198,0,0,0,,
1560,1,SBT2050,2,3,,0,780.1,3.31177,0,0,0,,
1560,1,SBT2050,2,3,,0,785.1,3.312166,0,0,0,,
1560,1,SBT2050,2,3,,0,790.1,3.3117,0,0,0,,
1560,1,SBT2050,2,3,,0,795.1,3.31185,0,0,0,,
1560,1,SBT2050,2,3,,0,800.1,3.31185,0,0,0,,
1560,1,SBT2050,2,3,,0,805.1,3.31172,0,0,0,,
1560,1,SBT2050,2,3,,0,810.1,3.31185,0,0,0,,
1560,1,SBT2050,2,3,,0,815.1,3.31191,0,0,0,,
1560,1,SBT2050,2,3,,0,820.1,3.311994,0,0,0,,
1560,1,SBT2050,2,3,,0,825.1,3.311899,0,0,0,,
1560,1,SBT2050,2,3,,0,830.1,3.31179,0,0,0,,
1560,1,SBT2050,2,3,,0,835.1,3.31201,0,0,0,,
1560,1,SBT2050,2,3,,0,840.1,3.31193,0,0,0,,
1560,1,SBT2050,2,3,,0,845.1,3.31196,0,0,0,,
1560,1,SBT2050,2,3,,0,850.1,3.311905,0,0,0,,
1560,1,SBT2050,2,3,,0,855.1,3.31187,0,0,0,,
1560,1,SBT2050,2,3,,0,860.1,3.31206,0,0,0,,
1560,1,SBT2050,2,3,,0,865.1,3.31215,0,0,0,,
1560,1,SBT2050,2,3,,0,870.1,3.31223,0,0,0,,
1560,1,SBT2050,2,3,,0,875.1,3.31198,0,0,0,,
1560,1,SBT2050,2,3,,0,880.1,3.31211,0,0,0,,
1560,1,SBT2050,2,3,,0,885.1,3.31189,0,0,0,,
1560,1,SBT2050,2,3,,0,890.1,3.31216,0,0,0,,
1560,1,SBT2050,2,3,,0,895.1,3.31215,0,0,0,,
1560,1,SBT2050,2,3,,0,900.1,3.312164,0,0,0,,
1560,1,SBT2050,2,3,,0,905.1,3.31214,0,0,0,,
1560,1,SBT2050,2,3,,0,910.1,3.312347,0,0,0,,
1560,1,SBT2050,2,3,,0,915.1,3.31205,0,0,0,,
1560,1,SBT2050,2,3,,0,920.1,3.31217,0,0,0,,
1560,1,SBT2050,2,3,,0,925.1,3.31218,0,0,0,,
1560,1,SBT2050,2,3,,0,930.1,3.31201,0,0,0,,
1560,1,SBT2050,2,3,,0,935.1,3.31182,0,0,0,,
1560,1,SBT2050,2,3,,0,940.1,3.31202,0,0,0,,
1560,1,SBT2050,2,3,,0,945.1,3.31215,0,0,0,,
1560,1,SBT2050,2,3,,0,950.1,3.31199,0,0,0,,
1560,1,SBT2050,2,3,,0,955.1,3.31226,0,0,0,,
1560,1,SBT2050,2,3,,0,960.1,3.312313,0,0,0,,
1560,1,SBT2050,2,3,,0,965.1,3.31228,0,0,0,,
1560,1,SBT2050,2,3,,0,970.1,3.31211,0,0,0,,
1560,1,SBT2050,2,3,,0,975.1,3.31208,0,0,0,,
1560,1,SBT2050,2,3,,0,980.1,3.312139,0,0,0,,
1560,1,SBT2050,2,3,,0,985.1,3.31207,0,0,0,,
1560,1,SBT2050,2,3,,0,990.1,3.31194,0,0,0,,
1560,1,SBT2050,2,3,,0,995.1,3.312022,0,0,0,,
1560,1,SBT2050,2,3,,0,1000.1,3.3122,0,0,0,,
1560,1,SBT2050,2,3,,0,1005.1,3.31209,0,0,0,,
1560,1,SBT2050,2,3,,0,1010.1,3.31197,0,0,0,,
1560,1,SBT2050,2,3,,0,1015.1,3.3121,0,0,0,,
1560,1,SBT2050,2,3,,0,1020.1,3.31226,0,0,0,,
1560,1,SBT2050,2,3,,0,1025.1,3.31234,0,0,0,,
1560,1,SBT2050,2,3,,0,1030.1,3.31229,0,0,0,,
1560,1,SBT2050,2,3,,0,1035.1,3.31247,0,0,0,,
1560,1,SBT2050,2,3,,0,1040.1,3.31251,0,0,0,,
1560,1,SBT2050,2,3,,0,1045.1,3.31226,0,0,0,,
1560,1,SBT2050,2,3,,0,1050.1,3.3122,0,0,0,,
1560,1,SBT2050,2,3,,0,1055.1,3.31244,0,0,0,,
1560,1,SBT2050,2,3,,0,1060.1,3.31211,0,0,0,,
1560,1,SBT2050,2,3,,0,1065.1,3.31225,0,0,0,,
1560,1,SBT2050,2,3,,0,1070.1,3.31232,0,0,0,,
1560,1,SBT2050,2,3,,0,1075.1,3.31193,0,0,0,,
1560,1,SBT2050,2,3,,0,1080.1,3.31216,0,0,0,,
1560,1,SBT2050,2,3,,0,1085.1,3.31217,0,0,0,,
1560,1,SBT2050,2,3,,0,1090.1,3.31217,0,0,0,,
1560,1,SBT2050,2,3,,0,1095.1,3.31223,0,0,0,,
1560,1,SBT2050,2,3,,0,1100.1,3.31203,0,0,0,,
1560,1,SBT2050,2,3,,0,1105.1,3.31231,0,0,0,,
1560,1,SBT2050,2,3,,0,1110.1,3.312541,0,0,0,,
1560,1,SBT2050,2,3,,0,1115.1,3.3123,0,0,0,,
1560,1,SBT2050,2,3,,0,1120.1,3.31262,0,0,0,,
1560,1,SBT2050,2,3,,0,1125.1,3.31248,0,0,0,,
1560,1,SBT2050,2,3,,0,1130.1,3.31246,0,0,0,,
1560,1,SBT2050,2,3,,0,1135.1,3.31231,0,0,0,,
1560,1,SBT2050,2,3,,0,1140.1,3.31255,0,0,0,,
1560,1,SBT2050,2,3,,0,1145.1,3.31222,0,0,0,,
1560,1,SBT2050,2,3,,0,1150.1,3.31242,0,0,0,,
1560,1,SBT2050,2,3,,0,1155.1,3.31249,0,0,0,,
1560,1,SBT2050,2,3,,0,1160.1,3.31237,0,0,0,,
1560,1,SBT2050,2,3,,0,1165.1,3.31239,0,0,0,,
1560,1,SBT2050,2,3,,0,1170.1,3.31245,0,0,0,,
1560,1,SBT2050,2,3,,0,1175.1,3.31232,0,0,0,,
1560,1,SBT2050,2,3,,0,1180.1,3.31249,0,0,0,,
1560,1,SBT2050,2,3,,0,1185.1,3.31227,0,0,0,,
1560,1,SBT2050,2,3,,0,1190.1,3.31257,0,0,0,,
1560,1,SBT2050,2,3,,0,1195.1,3.3125,0,0,0,,
1560,1,SBT2050,2,3,,0,1200.1,3.31258,0,0,0,,
1560,1,SBT2050,2,3,,0,1205.1,3.31243,0,0,0,,
1560,1,SBT2050,2,3,,0,1210.1,3.312476,0,0,0,,
1560,1,SBT2050,2,3,,0,1215.1,3.3123,0,0,0,,
1560,1,SBT2050,2,3,,0,1220.1,3.31265,0,0,0,,
1560,1,SBT2050,2,3,,0,1225.1,3.312426,0,0,0,,
1560,1,SBT2050,2,3,,0,1230.1,3.312562,0,0,0,,
1560,1,SBT2050,2,3,,0,1235.1,3.31268,0,0,0,,
1560,1,SBT2050,2,3,,0,1240.1,3.31255,0,0,0,,
1560,1,SBT2050,2,3,,0,1245.1,3.31261,0,0,0,,
1560,1,SBT2050,2,3,,0,1250.1,3.312339,0,0,0,,
1560,1,SBT2050,2,3,,0,1255.1,3.31255,0,0,0,,
1560,1,SBT2050,2,3,,0,1260.1,3.31248,0,0,0,,
1560,1,SBT2050,2,3,,0,1265.1,3.312397,0,0,0,,
1560,1,SBT2050,2,3,,0,1270.1,3.31265,0,0,0,,
1560,1,SBT2050,2,3,,0,1275.1,3.312554,0,0,0,,
1560,1,SBT2050,2,3,,0,1280.1,3.31255,0,0,0,,
1560,1,SBT2050,2,3,,0,1285.1,3.312542,0,0,0,,
1560,1,SBT2050,2,3,,0,1290.1,3.31242,0,0,0,,
1560,1,SBT2050,2,3,,0,1295.1,3.312423,0,0,0,,
1560,1,SBT2050,2,3,,0,1300.1,3.312345,0,0,0,,
1560,1,SBT2050,2,3,,0,1305.1,3.3125,0,0,0,,
1560,1,SBT2050,2,3,,0,1310.1,3.31258,0,0,0,,
1560,1,SBT2050,2,3,,0,1315.1,3.31257,0,0,0,,
1560,1,SBT2050,2,3,,0,1320.1,3.31274,0,0,0,,
1560,1,SBT2050,2,3,,0,1325.1,3.3125,0,0,0,,
1560,1,SBT2050,2,3,,0,1330.1,3.312574,0,0,0,,
1560,1,SBT2050,2,3,,0,1335.1,3.312523,0,0,0,,
1560,1,SBT2050,2,3,,0,1340.1,3.31262,0,0,0,,
1560,1,SBT2050,2,3,,0,1345.1,3.31239,0,0,0,,
1560,1,SBT2050,2,3,,0,1350.1,3.31265,0,0,0,,
1560,1,SBT2050,2,3,,0,1355.1,3.31271,0,0,0,,
1560,1,SBT2050,2,3,,0,1360.1,3.31264,0,0,0,,
1560,1,SBT2050,2,3,,0,1365.1,3.3128,0,0,0,,
1560,1,SBT2050,2,3,,0,1370.1,3.31281,0,0,0,,
1560,1,SBT2050,2,3,,0,1375.1,3.31266,0,0,0,,
1560,1,SBT2050,2,3,,0,1380.1,3.31264,0,0,0,,
1560,1,SBT2050,2,3,,0,1385.1,3.312705,0,0,0,,
1560,1,SBT2050,2,3,,0,1390.1,3.312601,0,0,0,,
1560,1,SBT2050,2,3,,0,1395.1,3.31269,0,0,0,,
1560,1,SBT2050,2,3,,0,1400.1,3.31257,0,0,0,,
1560,1,SBT2050,2,3,,0,1405.1,3.31243,0,0,0,,
1560,1,SBT2050,2,3,,0,1410.1,3.312746,0,0,0,,
1560,1,SBT2050,2,3,,0,1415.1,3.31271,0,0,0,,
1560,1,SBT2050,2,3,,0,1420.1,3.312648,0,0,0,,
1560,1,SBT2050,2,3,,0,1425.1,3.31259,0,0,0,,
1560,1,SBT2050,2,3,,0,1430.1,3.31279,0,0,0,,
1560,1,SBT2050,2,3,,0,1435.1,3.31271,0,0,0,,
1560,1,SBT2050,2,3,,0,1440.1,3.31258,0,0,0,,
1560,1,SBT2050,2,3,,0,1445.1,3.3128,0,0,0,,
1560,1,SBT2050,2,3,,0,1450.1,3.312605,0,0,0,,
1560,1,SBT2050,2,3,,0,1455.1,3.31245,0,0,0,,
1560,1,SBT2050,2,3,,0,1460.1,3.31279,0,0,0,,
1560,1,SBT2050,2,3,,0,1465.1,3.31256,0,0,0,,
1560,1,SBT2050,2,3,,0,1470.1,3.31267,0,0,0,,
1560,1,SBT2050,2,3,,0,1475.1,3.312628,0,0,0,,
1560,1,SBT2050,2,3,,0,1480.1,3.312546,0,0,0,,
1560,1,SBT2050,2,3,,0,1485.1,3.31283,0,0,0,,
1560,1,SBT2050,2,3,,0,1490.1,3.31291,0,0,0,,
1560,1,SBT2050,2,3,,0,1495.1,3.31301,0,0,0,,
1560,1,SBT2050,2,3,,0,1500.1,3.31284,0,0,0,,
1560,1,SBT2050,2,3,,0,1505.1,3.313118,0,0,0,,
1560,1,SBT2050,2,3,,0,1510.1,3.312855,0,0,0,,
1560,1,SBT2050,2,3,,0,1515.1,3.312783,0,0,0,,
1560,1,SBT2050,2,3,,0,1520.1,3.31294,0,0,0,,
1560,1,SBT2050,2,3,,0,1525.1,3.31297,0,0,0,,
1560,1,SBT2050,2,3,,0,1530.1,3.31296,0,0,0,,
1560,1,SBT2050,2,3,,0,1535.1,3.31304,0,0,0,,
1560,1,SBT2050,2,3,,0,1540.1,3.3127,0,0,0,,
1560,1,SBT2050,2,3,,0,1545.1,3.312788,0,0,0,,
1560,1,SBT2050,2,3,,0,1550.1,3.31293,0,0,0,,
1560,1,SBT2050,2,3,,0,1555.1,3.31286,0,0,0,,
1560,1,SBT2050,2,3,,0,1560.1,3.31287,0,0,0,,
1560,1,SBT2050,2,3,,0,1565.1,3.31296,0,0,0,,
1560,1,SBT2050,2,3,,0,1570.1,3.312872,0,0,0,,
1560,1,SBT2050,2,3,,0,1575.1,3.31295,0,0,0,,
1560,1,SBT2050,2,3,,0,1580.1,3.3129,0,0,0,,
1560,1,SBT2050,2,3,,0,1585.1,3.3128,0,0,0,,
1560,1,SBT2050,2,3,,0,1590.1,3.312837,0,0,0,,
1560,1,SBT2050,2,3,,0,1595.1,3.31283,0,0,0,,
1560,1,SBT2050,2,3,,0,1600.1,3.31279,0,0,0,,
1560,1,SBT2050,2,3,,0,1605.1,3.313059,0,0,0,,
1560,1,SBT2050,2,3,,0,1610.1,3.31308,0,0,0,,
1560,1,SBT2050,2,3,,0,1615.1,3.31317,0,0,0,,
1560,1,SBT2050,2,3,,0,1620.1,3.31319,0,0,0,,
1560,1,SBT2050,2,3,,0,1625.1,3.31306,0,0,0,,
1560,1,SBT2050,2,3,,0,1630.1,3.31307,0,0,0,,
1560,1,SBT2050,2,3,,0,1635.1,3.31322,0,0,0,,
1560,1,SBT2050,2,3,,0,1640.1,3.313073,0,0,0,,
1560,1,SBT2050,2,3,,0,1645.1,3.31294,0,0,0,,
1560,1,SBT2050,2,3,,0,1650.1,3.31307,0,0,0,,
1560,1,SBT2050,2,3,,0,1655.1,3.31314,0,0,0,,
1560,1,SBT2050,2,3,,0,1660.1,3.31295,0,0,0,,
1560,1,SBT2050,2,3,,0,1665.1,3.313,0,0,0,,
1560,1,SBT2050,2,3,,0,1670.1,3.31317,0,0,0,,
1560,1,SBT2050,2,3,,0,1675.1,3.31298,0,0,0,,
1560,1,SBT2050,2,3,,0,1680.1,3.31299,0,0,0,,
1560,1,SBT2050,2,3,,0,1685.1,3.31303,0,0,0,,
1560,1,SBT2050,2,3,,0,1690.1,3.31293,0,0,0,,
1560,1,SBT2050,2,3,,0,1695.1,3.313085,0,0,0,,
1560,1,SBT2050,2,3,,0,1700.1,3.31308,0,0,0,,
1560,1,SBT2050,2,3,,0,1705.1,3.31295,0,0,0,,
1560,1,SBT2050,2,3,,0,1710.1,3.31301,0,0,0,,
1560,1,SBT2050,2,3,,0,1715.1,3.31304,0,0,0,,
1560,1,SBT2050,2,3,,0,1720.1,3.3131,0,0,0,,
1560,1,SBT2050,2,3,,0,1725.1,3.313071,0,0,0,,
1560,1,SBT2050,2,3,,0,1730.1,3.31299,0,0,0,,
1560,1,SBT2050,2,3,,0,1735.1,3.31304,0,0,0,,
1560,1,SBT2050,2,3,,0,1740.1,3.31312,0,0,0,,
1560,1,SBT2050,2,3,,0,1745.1,3.31281,0,0,0,,
1560,1,SBT2050,2,3,,0,1750.1,3.31327,0,0,0,,
1560,1,SBT2050,2,3,,0,1755.1,3.313038,0,0,0,,
1560,1,SBT2050,2,3,,0,1760.1,3.313108,0,0,0,,
1560,1,SBT2050,2,3,,0,1765.1,3.312897,0,0,0,,
1560,1,SBT2050,2,3,,0,1770.1,3.31313,0,0,0,,
1560,1,SBT2050,2,3,,0,1775.1,3.31298,0,0,0,,
1560,1,SBT2050,2,3,,0,1780.1,3.31281,0,0,0,,
1560,1,SBT2050,2,3,,0,1785.1,3.313017,0,0,0,,
1560,1,SBT2050,2,3,,0,1790.1,3.31302,0,0,0,,
1560,1,SBT2050,2,3,,0,1795.1,3.31302,0,0,0,,
1560,1,SBT2050,2,3,,5,1800.1,3.313005,0,0,0,,
1560,1,SBT2050,2,3,,7,1805,3.53979,2.4881,1.019,0,,
1560,1,SBT2050,2,3,,7,1810,3.746196,5.83,6.921,0,,
1560,1,SBT2050,2,3,,7,1814.9,3.87217,7.9,16.35,0,,
1560,1,SBT2050,2,3,,7,1819.9,3.95008,8.938,28.111,0,,
1560,1,SBT2050,2,3,,7,1824.8,3.98991,9.18,40.505,0,,
1560,1,SBT2050,2,3,,7,1829.7,3.99997,8.853,52.855,0,,
1560,1,SBT2050,2,3,,7,1834.7,3.99633,8.376,64.796,0,,
1560,1,SBT2050,2,3,,7,1839.6,4.00434,8.255,76.129,0,,
1560,1,SBT2050,2,3,,7,1844.6,4.00951,8.118,87.518,0,,
1560,1,SBT2050,2,3,,7,1849.5,4.01419,8.024,98.503,0,,
1560,1,SBT2050,2,3,,7,1854.5,4.015442,7.901,109.545,0,,
1560,1,SBT2050,2,3,,7,1859.4,4.01615,7.79,120.21,0,,
1560,1,SBT2050,2,3,,7,1864.4,4.01483,7.68,130.939,0,,
1560,1,SBT2050,2,3,,7,1869.3,4.01301,7.575,141.313,0,,
1560,1,SBT2050,2,3,,7,1874.3,4.01009,7.478,151.763,0,,
1560,1,SBT2050,2,3,,7,1879.2,4.0067,7.384,161.872,0,,
1560,1,SBT2050,2,3,,7,1884.1,4.00308,7.295,171.859,0,,
1560,1,SBT2050,2,3,,7,1889.1,3.99895,7.212,181.931,0,,
1560,1,SBT2050,2,3,,7,1894,3.99506,7.134,191.695,0,32.5,
1560,1,SBT2050,2,3,,7,1899,3.99083,7.06,201.553,0,32.8,
1560,1,SBT2050,2,3,,7,1903.9,3.98683,6.993,211.116,0,,
1560,1,SBT2050,2,3,,7,1908.9,3.98287,6.922,220.784,0,,
1560,1,SBT2050,2,3,,7,1913.8,3.97877,6.858,230.168,0,,
1560,1,SBT2050,2,3,,7,1918.8,3.97547,6.805,239.664,0,,
1560,1,SBT2050,2,3,,7,1923.7,3.971742,6.747,248.892,0,,
1560,1,SBT2050,2,3,,7,1928.6,3.96867,6.697,258.047,0,,
1560,1,SBT2050,2,3,,7,1933.6,3.96576,6.65,267.321,0,,
1560,1,SBT2050,2,3,,7,1938.5,3.96328,6.613,276.346,0,,
1560,1,SBT2050,2,3,,7,1943.5,3.96051,6.567,285.494,0,,
1560,1,SBT2050,2,3,,7,1948.4,3.95816,6.525,294.398,0,,
1560,1,SBT2050,2,3,,7,1953.4,3.9561,6.492,303.437,0,,
1560,1,SBT2050,2,3,,7,1958.3,3.95409,6.447,312.242,0,,
1560,1,SBT2050,2,3,,7,1963.3,3.952432,6.42,321.174,0,,
1560,1,SBT2050,2,3,,7,1968.2,3.9506,6.38,329.884,0,,
1560,1,SBT2050,2,3,,7,1973.2,3.94924,6.349,338.725,0,,
1560,1,SBT2050,2,3,,7,1978.1,3.94787,6.323,347.351,0,,
1560,1,SBT2050,2,3,,7,1983,3.9465,6.288,355.933,0,,
1560,1,SBT2050,2,3,,7,1988,3.94548,6.265,364.652,0,37,
1560,1,SBT2050,2,3,,7,1992.9,3.94471,6.233,373.161,0,,
1560,1,SBT2050,2,3,,7,1997.9,3.94411,6.209,381.8,0,,
1560,1,SBT2050,2,3,,7,2002.8,3.943038,6.179,390.232,0,,
1560,1,SBT2050,2,3,,7,2007.8,3.94216,6.148,398.793,0,,
1560,1,SBT2050,2,3,,7,2012.7,3.94173,6.124,407.147,0,,
1560,1,SBT2050,2,3,,7,2017.7,3.94127,6.104,415.64,0,,
1560,1,SBT2050,2,3,,7,2022.6,3.94129,6.078,423.934,0,,
1560,1,SBT2050,2,3,,7,2027.561,3.94084,6.059,432.301,0,,
1560,1,SBT2050,2,3,,7,2032.5,3.94084,6.039,440.597,0,,
1560,1,SBT2050,2,3,,7,2037.4,3.94093,6.019,448.799,0,,
1560,1,SBT2050,2,3,,7,2042.4,3.94052,5.983,457.131,0,,
1560,1,SBT2050,2,3,,7,2047.3,3.94053,5.963,465.264,0,,
1560,1,SBT2050,2,3,,7,2052.3,3.94082,5.943,473.531,0,,
1560,1,SBT2050,2,3,,7,2057.2,3.94049,5.908,481.597,0,,
1560,1,SBT2050,2,3,,7,2062.2,3.941,5.891,489.792,0,,
1560,1,SBT2050,2,3,,7,2067.1,3.94134,5.875,497.801,0,,
1560,1,SBT2050,2,3,,7,2072.1,3.9418,5.856,505.945,0,,
1560,1,SBT2050,2,3,,7,2077,3.94192,5.829,513.902,0,,
1560,1,SBT2050,2,3,,7,2081.9,3.9423,5.811,521.821,0,,
1560,1,SBT2050,2,3,,7,2086.9,3.942692,5.785,529.877,0,,
1560,1,SBT2050,2,3,,7,2091.8,3.94277,5.768,537.736,0,,
1560,1,SBT2050,2,3,,7,2096.8,3.94369,5.744,545.733,0,,
1560,1,SBT2050,2,3,,7,2101.7,3.94382,5.714,553.534,0,,
1560,1,SBT2050,2,3,,7,2106.7,3.94417,5.689,561.452,0,,
1560,1,SBT2050,2,3,,7,2111.6,3.9447,5.673,569.191,0,,
1560,1,SBT2050,2,3,,7,2116.6,3.945408,5.645,577.056,0,,
1560,1,SBT2050,2,3,,7,2121.5,3.94602,5.624,584.726,0,,
1560,1,SBT2050,2,3,,7,2126.5,3.94694,5.612,592.532,0,,
1560,1,SBT2050,2,3,,7,2131.4,3.94752,5.586,600.152,0,,
1560,1,SBT2050,2,3,,7,2136.3,3.94777,5.556,607.733,0,,
1560,1,SBT2050,2,3,,7,2141.3,3.94837,5.528,615.431,0,,
1560,1,SBT2050,2,3,,7,2146.2,3.94905,5.508,622.943,0,,
1560,1,SBT2050,2,3,,7,2151.2,3.9497,5.484,630.575,0,,
1560,1,SBT2050,2,3,,7,2156.1,3.95012,5.458,638.021,0,,
1560,1,SBT2050,2,3,,7,2161.1,3.950644,5.435,645.585,0,,
1560,1,SBT2050,2,3,,7,2166,3.951336,5.408,652.96,0,38.9,
1560,1,SBT2050,2,3,,7,2171,3.952086,5.384,660.452,0,,
1560,1,SBT2050,2,3,,7,2175.9,3.952802,5.359,667.766,0,,
1560,1,SBT2050,2,3,,7,2180.8,3.95388,5.337,675.049,0,,
1560,1,SBT2050,2,3,,7,2185.8,3.954698,5.314,682.448,0,,
1560,1,SBT2050,2,3,,7,2190.7,3.95523,5.291,689.668,0,,
1560,1,SBT2050,2,3,,7,2195.7,3.95626,5.265,697.003,0,,
1560,1,SBT2050,2,3,,7,2200.6,3.956706,5.232,704.153,0,,
1560,1,SBT2050,2,3,,7,2205.6,3.9571,5.206,711.404,0,,
1560,1,SBT2050,2,3,,7,2210.5,3.95861,5.188,718.479,0,,
1560,1,SBT2050,2,3,,7,2215.5,3.95952,5.166,725.667,0,,
1560,1,SBT2050,2,3,,7,2220.4,3.96025,5.144,732.682,0,,
1560,1,SBT2050,2,3,,7,2225.4,3.961416,5.124,739.811,0,,
1560,1,SBT2050,2,3,,7,2230.3,3.96219,5.1,746.767,0,,
1560,1,SBT2050,2,3,,7,2235.2,3.963,5.071,753.689,0,,
1560,1,SBT2050,2,3,,7,2240.2,3.963506,5.042,760.71,0,,
1560,1,SBT2050,2,3,,7,2245.1,3.96433,5.021,767.56,0,,
1560,1,SBT2050,2,3,,7,2250.1,3.96494,4.989,774.512,0,,
1560,1,SBT2050,2,3,,7,2255,3.96562,4.966,781.286,0,,
1560,1,SBT2050,2,3,,7,2260,3.96683,4.946,788.169,0,,
1560,1,SBT2050,2,3,,7,2264.9,3.96748,4.916,794.884,0,,
1560,1,SBT2050,2,3,,7,2269.9,3.96816,4.89,801.695,0,,
1560,1,SBT2050,2,3,,7,2274.8,3.96893,4.864,808.338,0,,
1560,1,SBT2050,2,3,,7,2279.7,3.96955,4.835,814.943,0,,
1560,1,SBT2050,2,3,,7,2284.7,3.9706,4.814,821.648,0,,
1560,1,SBT2050,2,3,,7,2289.6,3.9719,4.794,828.192,0,,
1560,1,SBT2050,2,3,,7,2294.6,3.97222,4.762,834.831,0,,
1560,1,SBT2050,2,3,,7,2299.5,3.97327,4.7461,841.304,0,,
1560,1,SBT2050,2,3,,7,2304.5,3.9743,4.7271,847.879,0,,
1560,1,SBT2050,2,3,,7,2309.4,3.975072,4.7016,854.296,0,,
1560,1,SBT2050,2,3,,7,2314.4,3.976108,4.6852,860.809,0,,
1560,1,SBT2050,2,3,,7,2319.3,3.976966,4.6578,867.164,0,,
1560,1,SBT2050,2,3,,7,2324.3,3.97779,4.6322,873.61,0,,
1560,1,SBT2050,2,3,,7,2329.2,3.97869,4.6068,879.894,0,,
1560,1,SBT2050,2,3,,7,2334.1,3.97901,4.5766,886.142,0,,
1560,1,SBT2050,2,3,,7,2339.1,3.97987,4.5549,892.483,0,,
1560,1,SBT2050,2,3,,7,2344,3.98075,4.5364,898.67,0,,
1560,1,SBT2050,2,3,,7,2349,3.98194,4.5168,904.956,0,37.9,
1560,1,SBT2050,2,3,,7,2353.9,3.98291,4.489,911.086,0,,
1560,1,SBT2050,2,3,,7,2358.9,3.98361,4.4677,917.306,0,,
1560,1,SBT2050,2,3,,7,2363.8,3.98468,4.4431,923.374,0,,
1560,1,SBT2050,2,3,,7,2368.8,3.98513,4.4195,929.528,0,,
1560,1,SBT2050,2,3,,7,2373.7,3.98632,4.3997,935.531,0,,
1560,1,SBT2050,2,3,,7,2378.639,3.9869,4.3718,941.552,0,,
1560,1,SBT2050,2,3,,7,2383.6,3.9876,4.346,947.563,0,,
1560,1,SBT2050,2,3,,7,2388.5,3.98844,4.3264,953.464,0,,
1560,1,SBT2050,2,3,,7,2393.5,3.98932,4.3021,959.454,0,,
1560,1,SBT2050,2,3,,7,2398.4,3.989826,4.2788,965.29,0,,
1560,1,SBT2050,2,3,,7,2403.4,3.990936,4.2599,971.217,0,,
1560,1,SBT2050,2,3,,7,2408.3,3.99178,4.2424,977.002,0,,
1560,1,SBT2050,2,3,,7,2413.3,3.992678,4.219,982.874,0,,
1560,1,SBT2050,2,3,,7,2418.2,3.99335,4.2012,988.603,0,,
1560,1,SBT2050,2,3,,7,2423.2,3.99503,4.1905,994.43,0,,
1560,1,SBT2050,2,3,,7,2428.1,3.99633,4.1814,1000.127,0,,
1560,1,SBT2050,2,3,,7,2433,3.99753,4.1644,1005.808,0,,
1560,1,SBT2050,2,3,,7,2438,3.99865,4.153,1011.583,0,,
1560,1,SBT2050,2,3,,7,2442.9,3.999904,4.1347,1017.222,0,,
1560,1,SBT2050,2,3,,7,2447.9,4.0016,4.1246,1022.959,0,,
1560,1,SBT2050,2,3,,7,2452.8,4.002856,4.1095,1028.565,0,,
1560,1,SBT2050,2,3,,7,2457.8,4.00399,4.0916,1034.262,0,,
1560,1,SBT2050,2,3,,7,2462.7,4.005284,4.081,1039.826,0,,
1560,1,SBT2050,2,3,,7,2467.7,4.00653,4.0689,1045.486,0,,
1560,1,SBT2050,2,3,,7,2472.6,4.00837,4.0578,1051.017,0,,
1560,1,SBT2050,2,3,,7,2477.6,4.0093,4.0397,1056.64,0,,
1560,1,SBT2050,2,3,,7,2482.5,4.01084,4.0312,1062.132,0,,
1560,1,SBT2050,2,3,,7,2487.4,4.01214,4.0134,1067.605,0,,
1560,1,SBT2050,2,3,,7,2492.4,4.01302,3.9987,1073.169,0,,
1560,1,SBT2050,2,3,,7,2497.3,4.014636,3.9831,1078.599,0,,
1560,1,SBT2050,2,3,,7,2502.3,4.01593,3.9731,1084.123,0,,
1560,1,SBT2050,2,3,,7,2507.2,4.01715,3.9547,1089.516,0,,
1560,1,SBT2050,2,3,,7,2512.2,4.01854,3.9445,1095.001,0,,
1560,1,SBT2050,2,3,,7,2517.1,4.01944,3.9269,1100.357,0,,
1560,1,SBT2050,2,3,,7,2522.1,4.02122,3.9154,1105.802,0,,
1560,1,SBT2050,2,3,,7,2527,4.02261,3.9058,1111.125,0,,
1560,1,SBT2050,2,3,,7,2531.9,4.02363,3.8879,1116.428,0,,
1560,1,SBT2050,2,3,,7,2536.9,4.02486,3.8727,1121.819,0,,
1560,1,SBT2050,2,3,,7,2541.8,4.02601,3.858,1127.079,0,,
1560,1,SBT2050,2,3,,7,2546.8,4.027754,3.8486,1132.431,0,,
1560,1,SBT2050,2,3,,7,2551.7,4.0286,3.8322,1137.661,0,,
1560,1,SBT2050,2,3,,7,2556.7,4.02999,3.8197,1142.976,0,,
1560,1,SBT2050,2,3,,7,2561.6,4.03094,3.8022,1148.165,0,,
1560,1,SBT2050,2,3,,7,2566.6,4.03236,3.7905,1153.439,0,,
1560,1,SBT2050,2,3,,7,2571.5,4.03378,3.7749,1158.587,0,,
1560,1,SBT2050,2,3,,7,2576.5,4.034812,3.7643,1163.821,0,,
1560,1,SBT2050,2,3,,7,2581.4,4.036156,3.755,1168.937,0,,
1560,1,SBT2050,2,3,,7,2586.3,4.03722,3.7413,1174.039,0,,
1560,1,SBT2050,2,3,,7,2591.3,4.03833,3.7274,1179.223,0,,
1560,1,SBT2050,2,3,,7,2596.2,4.03984,3.7152,1184.288,0,,
1560,1,SBT2050,2,3,,7,2601.2,4.040876,3.6987,1189.434,0,,
1560,1,SBT2050,2,3,,7,2606.1,4.04169,3.6795,1194.454,0,,
1560,1,SBT2050,2,3,,7,2611.1,4.04309,3.6695,1199.557,0,,
1560,1,SBT2050,2,3,,7,2616,4.044228,3.6546,1204.544,0,,
1560,1,SBT2050,2,3,,7,2621,4.04554,3.6414,1209.61,0,,
1560,1,SBT2050,2,3,,7,2625.9,4.04666,3.633,1214.561,0,,
1560,1,SBT2050,2,3,,7,2630.8,4.047902,3.6163,1219.494,0,,
1560,1,SBT2050,2,3,,7,2635.8,4.048926,3.6036,1224.508,0,,
1560,1,SBT2050,2,3,,7,2640.7,4.05068,3.5959,1229.409,0,,
1560,1,SBT2050,2,3,,7,2645.7,4.05144,3.5778,1234.39,0,,
1560,1,SBT2050,2,3,,7,2650.6,4.05299,3.5672,1239.253,0,,
1560,1,SBT2050,2,3,,7,2655.6,4.05374,3.5516,1244.2,0,,
1560,1,SBT2050,2,3,,7,2660.5,4.05513,3.5413,1249.026,0,,
1560,1,SBT2050,2,3,,7,2665.5,4.05632,3.527,1253.935,0,,
1560,1,SBT2050,2,3,,7,2670.4,4.05696,3.5134,1258.723,0,,
1560,1,SBT2050,2,3,,7,2675.4,4.05855,3.5042,1263.595,0,,
1560,1,SBT2050,2,3,,7,2680.3,4.05964,3.4952,1268.358,0,,
1560,1,SBT2050,2,3,,7,2685.2,4.06072,3.4846,1273.109,0,,
1560,1,SBT2050,2,3,,7,2690.2,4.0619,3.4685,1277.935,0,,
1560,1,SBT2050,2,3,,7,2695.1,4.0629,3.4495,1282.64,0,,
1560,1,SBT2050,2,3,,7,2700.1,4.06338,3.4328,1287.421,0,,
1560,1,SBT2050,2,3,,7,2705,4.06418,3.4182,1292.082,0,,
1560,1,SBT2050,2,3,,7,2710,4.06588,3.412,1296.829,0,,
1560,1,SBT2050,2,3,,7,2714.9,4.06705,3.4024,1301.466,0,,
1560,1,SBT2050,2,3,,7,2719.9,4.0682,3.3871,1306.184,0,,
1560,1,SBT2050,2,3,,7,2724.8,4.06884,3.3731,1310.785,0,,
1560,1,SBT2050,2,3,,7,2729.717,4.070294,3.3642,1315.387,0,,
1560,1,SBT2050,2,3,,7,2734.7,4.07113,3.3484,1320.034,0,,
1560,1,SBT2050,2,3,,7,2739.6,4.072086,3.3352,1324.583,0,,
1560,1,SBT2050,2,3,,7,2744.6,4.0732,3.3203,1329.208,0,,
1560,1,SBT2050,2,3,,7,2749.5,4.07412,3.3077,1333.718,0,,
1560,1,SBT2050,2,3,,7,2754.5,4.075324,3.2991,1338.304,0,,
1560,1,SBT2050,2,3,,7,2759.4,4.07612,3.2808,1342.78,0,,
1560,1,SBT2050,2,3,,7,2764.4,4.07699,3.2697,1347.327,0,,
1560,1,SBT2050,2,3,,7,2769.3,4.07824,3.262,1351.771,0,,
1560,1,SBT2050,2,3,,7,2774.3,4.07948,3.2485,1356.295,0,,
1560,1,SBT2050,2,3,,7,2779.2,4.08025,3.2342,1360.704,0,,
1560,1,SBT2050,2,3,,7,2784.1,4.08099,3.2174,1365.095,0,,
1560,1,SBT2050,2,3,,7,2789.1,4.081714,3.2049,1369.553,0,,
1560,1,SBT2050,2,3,,7,2794,4.08296,3.1966,1373.909,0,,
1560,1,SBT2050,2,3,,7,2799,4.08411,3.1855,1378.343,0,,
1560,1,SBT2050,2,3,,7,2803.9,4.084898,3.1687,1382.667,0,,
1560,1,SBT2050,2,3,,7,2808.9,4.08593,3.16,1387.062,0,,
1560,1,SBT2050,2,3,,7,2813.8,4.08656,3.1463,1391.357,0,,
1560,1,SBT2050,2,3,,7,2818.8,4.08772,3.131,1395.715,0,,
1560,1,SBT2050,2,3,,7,2823.7,4.08859,3.1195,1399.972,0,,
1560,1,SBT2050,2,3,,7,2828.7,4.089316,3.1012,1404.291,0,,
1560,1,SBT2050,2,3,,7,2833.6,4.09035,3.0926,1408.507,0,,
1560,1,SBT2050,2,3,,7,2838.5,4.09158,3.0879,1412.712,0,,
1560,1,SBT2050,2,3,,7,2843.5,4.092104,3.0671,1416.982,0,,
1560,1,SBT2050,2,3,,7,2848.4,4.09306,3.0572,1421.147,0,,
1560,1,SBT2050,2,3,,7,2853.4,4.09383,3.0375,1425.379,0,,
1560,1,SBT2050,2,3,,7,2858.3,4.09418,3.0218,1429.503,0,,
1560,1,SBT2050,2,3,,7,2863.3,4.09488,3.0031,1433.684,0,,
1560,1,SBT2050,2,3,,7,2868.2,4.09566,2.9963,1437.765,0,,
1560,1,SBT2050,2,3,,7,2873.2,4.096802,2.9929,1441.924,0,,
1560,1,SBT2050,2,3,,7,2878.1,4.09767,2.9724,1445.981,0,,
1560,1,SBT2050,2,3,,7,2883,4.0984,2.9666,1450.022,0,33.4,
1560,1,SBT2050,2,3,,7,2888,4.09927,2.9488,1454.131,0,,
1560,1,SBT2050,2,3,,7,2892.9,4.09996,2.9402,1458.137,0,,
1560,1,SBT2050,2,3,,7,2897.9,4.101298,2.9332,1462.219,0,,
1560,1,SBT2050,2,3,,7,2902.8,4.101992,2.9184,1466.2,0,,
1560,1,SBT2050,2,3,,7,2907.8,4.103508,2.9141,1470.25,0,,
1560,1,SBT2050,2,3,,7,2912.7,4.10428,2.9089,1474.214,0,,
1560,1,SBT2050,2,3,,7,2917.7,4.105488,2.8936,1478.243,0,,
1560,1,SBT2050,2,3,,7,2922.6,4.10608,2.8807,1482.177,0,,
1560,1,SBT2050,2,3,,7,2927.6,4.10699,2.8681,1486.169,0,,
1560,1,SBT2050,2,3,,7,2932.5,4.10773,2.865,1490.07,0,,
1560,1,SBT2050,2,3,,7,2937.4,4.1093,2.8579,1493.961,0,,
1560,1,SBT2050,2,3,,7,2942.4,4.109672,2.8438,1497.918,0,,
1560,1,SBT2050,2,3,,7,2947.3,4.1107,2.8317,1501.782,0,,
1560,1,SBT2050,2,3,,7,2952.3,4.11131,2.8185,1505.703,0,,
1560,1,SBT2050,2,3,,7,2957.2,4.112816,2.8145,1509.536,0,,
1560,1,SBT2050,2,3,,7,2962.2,4.11363,2.8049,1513.441,0,,
1560,1,SBT2050,2,3,,7,2967.1,4.11462,2.7922,1517.248,0,,
1560,1,SBT2050,2,3,,7,2972.1,4.115652,2.7881,1521.122,0,,
1560,1,SBT2050,2,3,,7,2977,4.11704,2.7811,1524.914,0,,
1560,1,SBT2050,2,3,,7,2981.9,4.11728,2.7661,1528.688,0,,
1560,1,SBT2050,2,3,,7,2986.9,4.11879,2.7609,1532.526,0,,
1560,1,SBT2050,2,3,,7,2991.8,4.11957,2.7558,1536.279,0,,
1560,1,SBT2050,2,3,,7,2996.8,4.12028,2.74,1540.095,0,,
1560,1,SBT2050,2,3,,7,3001.7,4.121174,2.7337,1543.82,0,,
1560,1,SBT2050,2,3,,7,3006.7,4.12206,2.7151,1547.605,0,,
1560,1,SBT2050,2,3,,7,3011.6,4.12274,2.71,1551.296,0,,
1560,1,SBT2050,2,3,,7,3016.6,4.12407,2.7077,1555.057,0,,
1560,1,SBT2050,2,3,,7,3021.5,4.12538,2.7057,1558.741,0,,
1560,1,SBT2050,2,3,,7,3026.5,4.1265,2.6963,1562.494,0,,
1560,1,SBT2050,2,3,,7,3031.4,4.127162,2.6841,1566.153,0,,
1560,1,SBT2050,2,3,,7,3036.3,4.12825,2.6797,1569.803,0,,
1560,1,SBT2050,2,3,,7,3041.3,4.12956,2.677,1573.522,0,,
1560,1,SBT2050,2,3,,7,3046.2,4.130756,2.67,1577.163,0,,
1560,1,SBT2050,2,3,,7,3051.2,4.13158,2.6553,1580.859,0,,
1560,1,SBT2050,2,3,,7,3056.1,4.132506,2.6499,1584.469,0,,
1560,1,SBT2050,2,3,,7,3061.1,4.133756,2.6466,1588.147,0,,
1560,1,SBT2050,2,3,,7,3066,4.134288,2.6294,1591.735,0,,
1560,1,SBT2050,2,3,,7,3071,4.13541,2.6227,1595.381,0,32.1,
1560,1,SBT2050,2,3,,7,3075.9,4.13604,2.6059,1598.941,0,,
1560,1,SBT2050,2,3,,7,3080.8,4.13749,2.598,1602.482,0,,
1560,1,SBT2050,2,3,,7,3085.8,4.13778,2.5945,1606.089,0,,
1560,1,SBT2050,2,3,,7,3090.7,4.13841,2.579,1609.611,0,,
1560,1,SBT2050,2,3,,7,3095.7,4.139356,2.5714,1613.188,0,,
1560,1,SBT2050,2,3,,7,3100.6,4.140382,2.5685,1616.686,0,,
1560,1,SBT2050,2,3,,7,3105.6,4.14131,2.5647,1620.25,0,,
1560,1,SBT2050,2,3,,7,3110.5,4.142636,2.5543,1623.735,0,,
1560,1,SBT2050,2,3,,7,3115.5,4.14344,2.5423,1627.272,0,,
1560,1,SBT2050,2,3,,7,3120.4,4.14445,2.5376,1630.728,0,,
1560,1,SBT2050,2,3,,7,3125.4,4.14511,2.5223,1634.241,0,,
1560,1,SBT2050,2,3,,7,3130.3,4.14599,2.515,1637.667,0,,
1560,1,SBT2050,2,3,,7,3135.2,4.14696,2.503,1641.084,0,,
1560,1,SBT2050,2,3,,7,3140.2,4.14725,2.492,1644.55,0,,
1560,1,SBT2050,2,3,,7,3145.1,4.14857,2.4868,1647.938,0,,
1560,1,SBT2050,2,3,,7,3150.1,4.14958,2.4834,1651.389,0,,
1560,1,SBT2050,2,3,,7,3155,4.15069,2.4767,1654.767,0,,
1560,1,SBT2050,2,3,,7,3160,4.151,2.4625,1658.196,0,,
1560,1,SBT2050,2,3,,7,3164.9,4.15213,2.4576,1661.544,0,,
1560,1,SBT2050,2,3,,7,3169.9,4.15305,2.4538,1664.954,0,,
1560,1,SBT2050,2,3,,7,3174.8,4.15418,2.4467,1668.292,0,,
1560,1,SBT2050,2,3,,7,3179.8,4.15503,2.4329,1671.68,0,,
1560,1,SBT2050,2,3,,7,3184.7,4.155858,2.4276,1674.987,0,,
1560,1,SBT2050,2,3,,7,3189.6,4.156868,2.424,1678.289,0,,
1560,1,SBT2050,2,3,,7,3194.6,4.15741,2.411,1681.647,0,,
1560,1,SBT2050,2,3,,7,3199.5,4.15831,2.4039,1684.924,0,,
1560,1,SBT2050,2,3,,7,3204.5,4.15912,2.3981,1688.257,0,,
1560,1,SBT2050,2,3,,7,3209.4,4.16008,2.3949,1691.518,0,,
1560,1,SBT2050,2,3,,7,3214.4,4.16098,2.3791,1694.832,0,,
1560,1,SBT2050,2,3,,7,3219.3,4.16182,2.3723,1698.064,0,,
1560,1,SBT2050,2,3,,7,3224.3,4.16223,2.3565,1701.347,0,,
1560,1,SBT2050,2,3,,7,3229.2,4.16286,2.3492,1704.548,0,,
1560,1,SBT2050,2,3,,7,3234.1,4.16401,2.3449,1707.742,0,,
1560,1,SBT2050,2,3,,7,3239.1,4.16498,2.3386,1710.996,0,,
1560,1,SBT2050,2,3,,7,3244,4.1657,2.3274,1714.17,0,,
1560,1,SBT2050,2,3,,7,3249,4.16658,2.3198,1717.397,0,,
1560,1,SBT2050,2,3,,7,3253.9,4.16741,2.316,1720.551,0,,
1560,1,SBT2050,2,3,,7,3258.9,4.16838,2.3118,1723.765,0,,
1560,1,SBT2050,2,3,,7,3263.8,4.16923,2.3005,1726.907,0,,
1560,1,SBT2050,2,3,,7,3268.8,4.16982,2.2911,1730.095,0,,
1560,1,SBT2050,2,3,,7,3273.7,4.17075,2.2866,1733.21,0,,
1560,1,SBT2050,2,3,,7,3278.7,4.17163,2.283,1736.384,0,,
1560,1,SBT2050,2,3,,7,3283.6,4.17245,2.2715,1739.484,0,,
1560,1,SBT2050,2,3,,7,3288.5,4.17332,2.2621,1742.567,0,,
1560,1,SBT2050,2,3,,7,3293.5,4.174076,2.2581,1745.705,0,,
1560,1,SBT2050,2,3,,7,3298.4,4.175152,2.2543,1748.775,0,,
1560,1,SBT2050,2,3,,7,3303.4,4.17599,2.2502,1751.903,0,,
1560,1,SBT2050,2,3,,7,3308.3,4.17668,2.2384,1754.958,0,,
1560,1,SBT2050,2,3,,7,3313.3,4.177072,2.2296,1758.059,0,,
1560,1,SBT2050,2,3,,7,3318.2,4.17846,2.2246,1761.089,0,,
1560,1,SBT2050,2,3,,7,3323.2,4.17948,2.2206,1764.176,0,,
1560,1,SBT2050,2,3,,7,3328.1,4.179996,2.2105,1767.193,0,,
1560,1,SBT2050,2,3,,7,3333,4.18085,2.1996,1770.194,0,,
1560,1,SBT2050,2,3,,7,3338,4.18157,2.1955,1773.246,0,,
1560,1,SBT2050,2,3,,7,3342.9,4.18279,2.1909,1776.231,0,,
1560,1,SBT2050,2,3,,7,3347.9,4.18314,2.1785,1779.264,0,,
1560,1,SBT2050,2,3,,7,3352.8,4.18371,2.1703,1782.224,0,,
1560,1,SBT2050,2,3,,7,3357.8,4.18461,2.1659,1785.235,0,,
1560,1,SBT2050,2,3,,7,3362.7,4.185552,2.1619,1788.181,0,,
1560,1,SBT2050,2,3,,7,3367.7,4.18669,2.1539,1791.18,0,,
1560,1,SBT2050,2,3,,7,3372.6,4.18706,2.1442,1794.104,0,,
1560,1,SBT2050,2,3,,7,3377.6,4.18815,2.1376,1797.076,0,,
1560,1,SBT2050,2,3,,7,3382.5,4.18895,2.1335,1799.982,0,,
1560,1,SBT2050,2,3,,7,3387.4,4.18984,2.1288,1802.882,0,,
1560,1,SBT2050,2,3,,7,3392.4,4.19049,2.1165,1805.83,0,,
1560,1,SBT2050,2,3,,7,3397.3,4.19129,2.1092,1808.705,0,,
1560,1,SBT2050,2,3,,7,3402.3,4.19215,2.1045,1811.631,0,,
1560,1,SBT2050,2,3,,7,3407.2,4.193108,2.1007,1814.493,0,,
1560,1,SBT2050,2,3,,7,3412.2,4.194112,2.0959,1817.407,0,,
1560,1,SBT2050,2,3,,7,3417.1,4.19469,2.0818,1820.248,0,,
1560,1,SBT2050,2,3,,7,3422.1,4.1953,2.0759,1823.136,0,,
1560,1,SBT2050,2,3,,7,3427,4.196454,2.0715,1825.959,0,,
1560,1,SBT2050,2,3,,7,3431.9,4.19727,2.0674,1828.776,0,,
1560,1,SBT2050,2,3,,7,3436.9,4.19785,2.0577,1831.643,0,,
1560,1,SBT2050,2,3,,7,3441.8,4.19839,2.0478,1834.437,0,,
1560,1,SBT2050,2,3,,7,3446.8,4.19943,2.0433,1837.278,0,,
1560,1,SBT2050,2,3,,7,3451.7,4.199994,2.0391,1840.057,0,,
1560,1,SBT2050,2,3,,7,3456.7,4.200848,2.0344,1842.886,0,,
1560,1,SBT2050,2,3,,7,3461.6,4.201714,2.0282,1845.652,0,,
1560,1,SBT2050,2,3,,7,3466.6,4.20209,2.0168,1848.458,0,,
1560,1,SBT2050,2,3,,7,3471.5,4.20286,2.0118,1851.199,0,,
1560,1,SBT2050,2,3,,7,3476.5,4.203832,2.0071,1853.989,0,,
1560,1,SBT2050,2,3,,7,3481.4,4.20444,1.9976,1856.715,0,,
1560,1,SBT2050,2,3,,7,3486.3,4.2051,1.9878,1859.426,0,,
1560,1,SBT2050,2,3,,7,3491.3,4.20573,1.9836,1862.184,0,,
1560,1,SBT2050,2,3,,7,3496.2,4.20688,1.9789,1864.881,0,,
1560,1,SBT2050,2,3,,7,3501.2,4.20748,1.9749,1867.627,0,,
1560,1,SBT2050,2,3,,7,3506.1,4.20842,1.9678,1870.312,0,,
1560,1,SBT2050,2,3,,7,3511.1,4.20855,1.9566,1873.036,0,,
1560,1,SBT2050,2,3,,7,3516,4.20955,1.9514,1875.695,0,,
1560,1,SBT2050,2,3,,7,3521,4.21063,1.9476,1878.403,0,29.8,
1560,1,SBT2050,2,3,,7,3525.9,4.2112,1.9349,1881.046,0,,
1560,1,SBT2050,2,3,,7,3530.895,4.211986,1.9277,1883.726,0,,
1560,1,SBT2050,2,3,,7,3535.8,4.21284,1.9241,1886.35,0,,
1560,1,SBT2050,2,3,,7,3540.7,4.21375,1.9197,1888.967,0,,
1560,1,SBT2050,2,3,,7,3545.7,4.21475,1.9156,1891.631,0,,
1560,1,SBT2050,2,3,,7,3550.6,4.21496,1.9052,1894.232,0,,
1560,1,SBT2050,2,3,,7,3555.6,4.21584,1.8975,1896.871,0,,
1560,1,SBT2050,2,3,,7,3560.5,4.21642,1.8936,1899.451,0,,
1560,1,SBT2050,2,3,,7,3565.5,4.21746,1.8896,1902.077,0,,
1560,1,SBT2050,2,3,,7,3570.4,4.21808,1.8802,1904.644,0,,
1560,1,SBT2050,2,3,,7,3575.4,4.218796,1.8707,1907.247,0,,
1560,1,SBT2050,2,3,,7,3580.3,4.21945,1.8659,1909.79,0,,
1560,1,SBT2050,2,3,,7,3585.2,4.22017,1.8623,1912.327,0,,
1560,1,SBT2050,2,3,,7,3590.2,4.22101,1.8585,1914.91,0,,
1560,1,SBT2050,2,3,,7,3595.1,4.22153,1.8544,1917.437,0,,
1560,1,SBT2050,2,3,,7,3600.1,4.22252,1.85,1920.01,0,,
1560,1,SBT2050,2,3,,7,3605,4.22344,1.8459,1922.525,0,,
1560,1,SBT2050,2,3,,7,3610,4.22434,1.8417,1925.086,0,,
1560,1,SBT2050,2,3,,7,3614.9,4.22452,1.8294,1927.584,0,,
1560,1,SBT2050,2,3,,7,3619.9,4.225544,1.8236,1930.121,0,,
1560,1,SBT2050,2,3,,7,3624.8,4.226078,1.8191,1932.6,0,,
1560,1,SBT2050,2,3,,7,3629.8,4.22699,1.8152,1935.124,0,,
1560,1,SBT2050,2,3,,7,3634.7,4.227782,1.8105,1937.59,0,,
1560,1,SBT2050,2,3,,7,3639.6,4.22812,1.7998,1940.046,0,,
1560,1,SBT2050,2,3,,7,3644.6,4.2287,1.7935,1942.541,0,,
1560,1,SBT2050,2,3,,7,3649.5,4.22949,1.7894,1944.978,0,,
1560,1,SBT2050,2,3,,7,3654.5,4.23033,1.7853,1947.461,0,,
1560,1,SBT2050,2,3,,7,3659.4,4.23106,1.7812,1949.888,0,,
1560,1,SBT2050,2,3,,7,3664.4,4.23197,1.7773,1952.358,0,,
1560,1,SBT2050,2,3,,7,3669.3,4.23293,1.7732,1954.774,0,,
1560,1,SBT2050,2,3,,7,3674.3,4.2336,1.7691,1957.234,0,,
1560,1,SBT2050,2,3,,7,3679.2,4.23373,1.7561,1959.632,0,,
1560,1,SBT2050,2,3,,7,3684.1,4.23459,1.7514,1962.018,0,,
1560,1,SBT2050,2,3,,7,3689.1,4.23566,1.7469,1964.447,0,,
1560,1,SBT2050,2,3,,7,3694,4.236408,1.7428,1966.823,0,,
1560,1,SBT2050,2,3,,7,3699,4.23668,1.732,1969.238,0,,
1560,1,SBT2050,2,3,,7,3703.9,4.2375,1.725,1971.591,0,,
1560,1,SBT2050,2,3,,7,3708.9,4.23788,1.7207,1973.984,0,,
1560,1,SBT2050,2,3,,7,3713.8,4.23889,1.717,1976.324,0,,
1560,1,SBT2050,2,3,,7,3718.8,4.23974,1.7133,1978.707,0,,
1560,1,SBT2050,2,3,,7,3723.7,4.2403,1.7065,1981.036,0,,
1560,1,SBT2050,2,3,,7,3728.7,4.240876,1.6974,1983.401,0,,
1560,1,SBT2050,2,3,,7,3733.6,4.241518,1.6925,1985.708,0,,
1560,1,SBT2050,2,3,,7,3738.5,4.24232,1.688,1988.008,0,,
1560,1,SBT2050,2,3,,7,3743.5,4.24283,1.6845,1990.349,0,,
1560,1,SBT2050,2,3,,7,3748.4,4.243808,1.6804,1992.639,0,,
1560,1,SBT2050,2,3,,7,3753.4,4.24475,1.6769,1994.97,0,,
1560,1,SBT2050,2,3,,7,3758.3,4.24544,1.6728,1997.25,0,,
1560,1,SBT2050,2,3,,7,3763.3,4.24597,1.667,1999.569,0,,
1560,1,SBT2050,2,3,,7,3768.2,4.246682,1.6564,2001.829,0,,
1560,1,SBT2050,2,3,,7,3773.2,4.24716,1.6513,2004.126,0,,
1560,1,SBT2050,2,3,,7,3778.1,4.24775,1.6475,2006.371,0,,
1560,1,SBT2050,2,3,,7,3783,4.248698,1.6435,2008.611,0,,
1560,1,SBT2050,2,3,,7,3788,4.24942,1.6398,2010.891,0,,
1560,1,SBT2050,2,3,,7,3792.9,4.25038,1.636,2013.121,0,,
1560,1,SBT2050,2,3,,7,3797.9,4.25081,1.6257,2015.388,0,,
1560,1,SBT2050,2,3,,7,3802.8,4.251424,1.6187,2017.596,0,,
1560,1,SBT2050,2,3,,7,3807.8,4.25218,1.6143,2019.842,0,,
1560,1,SBT2050,2,3,,7,3812.7,4.252652,1.6111,2022.038,0,,
1560,1,SBT2050,2,3,,7,3817.7,4.25366,1.6072,2024.273,0,,
1560,1,SBT2050,2,3,,7,3822.6,4.25416,1.6046,2026.459,0,,
1560,1,SBT2050,2,3,,7,3827.6,4.25518,1.6007,2028.684,0,,
1560,1,SBT2050,2,3,,7,3832.5,4.25588,1.597,2030.86,0,,
1560,1,SBT2050,2,3,,7,3837.4,4.256674,1.5903,2033.03,0,,
1560,1,SBT2050,2,3,,7,3842.4,4.256628,1.5812,2035.233,0,,
1560,1,SBT2050,2,3,,7,3847.3,4.25767,1.5823,2037.384,0,,
1560,1,SBT2050,2,3,,7,3852.3,4.25823,1.5742,2039.577,0,,
1560,1,SBT2050,2,3,,7,3857.2,4.25864,1.5687,2041.716,0,,
1560,1,SBT2050,2,3,,7,3862.2,4.259402,1.5649,2043.892,0,,
1560,1,SBT2050,2,3,,7,3867.1,4.26016,1.5614,2046.02,0,,
1560,1,SBT2050,2,3,,7,3872.1,4.26097,1.5576,2048.186,0,,
1560,1,SBT2050,2,3,,7,3877,4.2614,1.5541,2050.304,0,,
1560,1,SBT2050,2,3,,7,3881.973,4.26214,1.5505,2052.448,0,,
1560,1,SBT2050,2,3,,7,3886.9,4.26306,1.5468,2054.568,0,,
1560,1,SBT2050,2,3,,7,3891.8,4.26369,1.538,2056.67,0,,
1560,1,SBT2050,2,3,,7,3896.8,4.26392,1.5303,2058.801,0,,
1560,1,SBT2050,2,3,,7,3901.7,4.26454,1.5262,2060.881,0,,
1560,1,SBT2050,2,3,,7,3906.7,4.26528,1.5227,2062.999,0,,
1560,1,SBT2050,2,3,,7,3911.6,4.26594,1.5199,2065.07,0,,
1560,1,SBT2050,2,3,,7,3916.6,4.26649,1.5161,2067.178,0,,
1560,1,SBT2050,2,3,,7,3921.5,4.26729,1.513,2069.239,0,,
1560,1,SBT2050,2,3,,7,3926.5,4.26784,1.5029,2071.333,0,,
1560,1,SBT2050,2,3,,7,3931.4,4.26821,1.4988,2073.374,0,,
1560,1,SBT2050,2,3,,7,3936.3,4.26874,1.4926,2075.409,0,,
1560,1,SBT2050,2,3,,7,3941.3,4.26934,1.4888,2077.48,0,,
1560,1,SBT2050,2,3,,7,3946.2,4.26984,1.4856,2079.504,0,,
1560,1,SBT2050,2,3,,7,3951.2,4.27047,1.4818,2081.565,0,,
1560,1,SBT2050,2,3,,7,3956.1,4.27124,1.4788,2083.58,0,,
1560,1,SBT2050,2,3,,7,3961.1,4.27212,1.4755,2085.632,0,,
1560,1,SBT2050,2,3,,7,3966,4.27246,1.4723,2087.638,0,,
1560,1,SBT2050,2,3,,7,3971,4.27302,1.4689,2089.68,0,,
1560,1,SBT2050,2,3,,7,3975.9,4.27416,1.4655,2091.677,0,,
1560,1,SBT2050,2,3,,7,3980.9,4.27478,1.4619,2093.71,0,,
1560,1,SBT2050,2,3,,7,3985.8,4.275418,1.4585,2095.698,0,,
1560,1,SBT2050,2,3,,7,3990.7,4.27599,1.4552,2097.681,0,,
1560,1,SBT2050,2,3,,7,3995.7,4.277,1.4517,2099.7,0,,
1560,1,SBT2050,2,3,,7,4000.6,4.277396,1.4488,2101.674,0,,
1560,1,SBT2050,2,3,,7,4005.6,4.27831,1.445,2103.683,0,,
1560,1,SBT2050,2,3,,7,4010.5,4.27804,1.4336,2105.639,0,,
1560,1,SBT2050,2,3,,7,4015.5,4.27886,1.4314,2107.628,0,,
1560,1,SBT2050,2,3,,7,4020.4,4.2796,1.4262,2109.572,0,,
1560,1,SBT2050,2,3,,7,4025.4,4.27996,1.4227,2111.55,0,,
1560,1,SBT2050,2,3,,7,4030.3,4.2806,1.4194,2113.484,0,,
1560,1,SBT2050,2,3,,7,4035.2,4.28103,1.4162,2115.414,0,,
1560,1,SBT2050,2,3,,7,4040.2,4.281866,1.4156,2117.379,0,,
1560,1,SBT2050,2,3,,7,4045.1,4.28272,1.4097,2119.301,0,,
1560,1,SBT2050,2,3,,7,4050.1,4.283076,1.4059,2121.257,0,,
1560,1,SBT2050,2,3,,7,4055,4.2836,1.4027,2123.168,0,,
1560,1,SBT2050,2,3,,7,4060,4.28444,1.3993,2125.114,0,,
1560,1,SBT2050,2,3,,7,4064.9,4.28496,1.3992,2127.019,0,,
1560,1,SBT2050,2,3,,7,4069.9,4.28595,1.399,2128.961,0,,
1560,1,SBT2050,2,3,,7,4074.8,4.28652,1.3926,2130.862,0,,
1560,1,SBT2050,2,3,,7,4079.8,4.286846,1.3861,2132.791,0,,
1560,1,SBT2050,2,3,,7,4084.7,4.286986,1.3826,2134.675,0,,
1560,1,SBT2050,2,3,,7,4089.6,4.287862,1.38,2136.555,0,,
1560,1,SBT2050,2,3,,7,4094.6,4.288332,1.3765,2138.469,0,,
1560,1,SBT2050,2,3,,7,4099.5,4.28864,1.3733,2140.34,0,,
1560,1,SBT2050,2,3,,7,4104.5,4.28944,1.3695,2142.244,0,,
1560,1,SBT2050,2,3,,7,4109.4,4.28971,1.3659,2144.105,0,,
1560,1,SBT2050,2,3,,7,4114.4,4.29046,1.3625,2146,0,,
1560,1,SBT2050,2,3,,7,4119.3,4.29073,1.3594,2147.852,0,,
1560,1,SBT2050,2,3,,7,4124.3,4.29146,1.3569,2149.74,0,,
1560,1,SBT2050,2,3,,7,4129.2,4.29187,1.353,2151.585,0,,
1560,1,SBT2050,2,3,,7,4134.1,4.29226,1.3495,2153.424,0,,
1560,1,SBT2050,2,3,,7,4139.1,4.29299,1.3484,2155.3,0,,
1560,1,SBT2050,2,3,,7,4144,4.29329,1.3424,2157.133,0,,
1560,1,SBT2050,2,3,,7,4149,4.29379,1.342,2158.995,0,,
1560,1,SBT2050,2,3,,7,4153.9,4.29437,1.3386,2160.82,0,,
1560,1,SBT2050,2,3,,7,4158.9,4.29476,1.3353,2162.676,0,,
1560,1,SBT2050,2,3,,7,4163.8,4.29526,1.3318,2164.492,0,,
1560,1,SBT2050,2,3,,7,4168.8,4.29543,1.3283,2166.339,0,,
1560,1,SBT2050,2,3,,7,4173.7,4.295954,1.3251,2168.145,0,,
1560,1,SBT2050,2,3,,7,4178.7,4.29611,1.3215,2169.984,0,,
1560,1,SBT2050,2,3,,7,4183.6,4.29687,1.3192,2171.781,0,,
1560,1,SBT2050,2,3,,7,4188.5,4.29706,1.3157,2173.574,0,,
1560,1,SBT2050,2,3,,7,4193.5,4.29718,1.313,2175.4,0,,
1560,1,SBT2050,2,3,,7,4198.4,4.29801,1.3121,2177.188,0,,
1560,1,SBT2050,2,3,,7,4203.4,4.29814,1.3091,2179.005,0,,
1560,1,SBT2050,2,3,,7,4208.3,4.29836,1.3034,2180.783,0,,
1560,1,SBT2050,2,3,,7,4213.3,4.29849,1.3,2182.591,0,,
1560,1,SBT2050,2,3,,7,4218.2,4.29922,1.2995,2184.362,0,,
1560,1,SBT2050,2,3,,7,4223.2,4.29956,1.2967,2186.165,0,,
1560,1,SBT2050,2,3,,7,4228.1,4.30009,1.2937,2187.928,0,,
1560,1,SBT2050,2,3,,7,4233.051,4.30067,1.2907,2189.705,0,,
1560,1,SBT2050,2,3,,7,4238,4.300492,1.2877,2191.477,0,,
1560,1,SBT2050,2,3,,7,4242.9,4.30118,1.2845,2193.228,0,,
1560,1,SBT2050,2,3,,7,4247.9,4.30128,1.2817,2195.01,0,,
1560,1,SBT2050,2,3,,7,4252.8,4.301778,1.2817,2196.753,0,,
1560,1,SBT2050,2,3,,7,4257.8,4.30221,1.2788,2198.529,0,,
1560,1,SBT2050,2,3,,7,4262.7,4.30291,1.2765,2200.269,0,,
1560,1,SBT2050,2,3,,7,4267.7,4.303458,1.274,2202.038,0,,
1560,1,SBT2050,2,3,,7,4272.6,4.30311,1.2707,2203.77,0,,
1560,1,SBT2050,2,3,,7,4277.6,4.30355,1.2684,2205.533,0,,
1560,1,SBT2050,2,3,,7,4282.5,4.30389,1.2654,2207.257,0,,
1560,1,SBT2050,2,3,,7,4287.4,4.30403,1.2627,2208.977,0,,
1560,1,SBT2050,2,3,,7,4292.4,4.30433,1.2601,2210.729,0,,
1560,1,SBT2050,2,3,,7,4297.3,4.30475,1.2574,2212.443,0,,
1560,1,SBT2050,2,3,,7,4302.3,4.30491,1.2578,2214.19,0,,
1560,1,SBT2050,2,3,,7,4307.2,4.305416,1.255,2215.9,0,,
1560,1,SBT2050,2,3,,7,4312.2,4.30544,1.2525,2217.641,0,,
1560,1,SBT2050,2,3,,7,4317.1,4.30524,1.2498,2219.344,0,,
1560,1,SBT2050,2,3,,7,4322.1,4.30561,1.2472,2221.078,0,,
1560,1,SBT2050,2,3,,7,4327,4.30639,1.2484,2222.775,0,,
1560,1,SBT2050,2,3,,7,4332,4.30683,1.2451,2224.507,0,,
1560,1,SBT2050,2,3,,7,4336.9,4.30678,1.2427,2226.2,0,,
1560,1,SBT2050,2,3,,7,4341.8,4.30678,1.2404,2227.891,0,,
1560,1,SBT2050,2,3,,7,4346.8,4.30702,1.2381,2229.612,0,,
1560,1,SBT2050,2,3,,7,4351.7,4.307354,1.2363,2231.296,0,,
1560,1,SBT2050,2,3,,7,4356.7,4.30763,1.2368,2233.015,0,,
1560,1,SBT2050,2,3,,7,4361.6,4.30775,1.2345,2234.697,0,,
1560,1,SBT2050,2,3,,7,4366.6,4.30801,1.2322,2236.41,0,,
1560,1,SBT2050,2,3,,7,4371.5,4.30836,1.2337,2238.088,0,,
1560,1,SBT2050,2,3,,7,4376.5,4.30836,1.2308,2239.799,0,,
1560,1,SBT2050,2,3,,7,4381.4,4.30852,1.2287,2241.472,0,,
1560,1,SBT2050,2,3,,7,4386.3,4.30851,1.2264,2243.143,0,,
1560,1,SBT2050,2,3,,7,4391.3,4.30862,1.2246,2244.845,0,,
1560,1,SBT2050,2,3,,7,4396.2,4.309,1.2262,2246.513,0,,
1560,1,SBT2050,2,3,,7,4401.2,4.309092,1.2235,2248.213,0,,
1560,1,SBT2050,2,3,,7,4406.1,4.30917,1.2212,2249.877,0,,
1560,1,SBT2050,2,3,,7,4411.1,4.30973,1.2223,2251.575,0,,
1560,1,SBT2050,2,3,,7,4416,4.30964,1.2202,2253.237,0,,
1560,1,SBT2050,2,3,,7,4421,4.30969,1.2185,2254.931,0,,
1560,1,SBT2050,2,3,,7,4425.9,4.31005,1.2209,2256.589,0,,
1560,1,SBT2050,2,3,,7,4430.9,4.31021,1.2179,2258.282,0,,
1560,1,SBT2050,2,3,,7,4435.8,4.31035,1.2159,2259.938,0,,
1560,1,SBT2050,2,3,,7,4440.7,4.3102,1.2146,2261.592,0,,
1560,1,SBT2050,2,3,,7,4445.7,4.31079,1.2173,2263.281,0,,
1560,1,SBT2050,2,3,,7,4450.6,4.31065,1.2138,2264.934,0,,
1560,1,SBT2050,2,3,,7,4455.6,4.31109,1.2167,2266.621,0,,
1560,1,SBT2050,2,3,,7,4460.5,4.31083,1.2133,2268.274,0,,
1560,1,SBT2050,2,3,,7,4465.5,4.31075,1.212,2269.959,0,,
1560,1,SBT2050,2,3,,7,4470.4,4.31089,1.2108,2271.608,0,,
1560,1,SBT2050,2,3,,7,4475.4,4.3112,1.2117,2273.293,0,,
1560,1,SBT2050,2,3,,7,4480.3,4.31128,1.2105,2274.942,0,,
1560,1,SBT2050,2,3,,7,4485.2,4.31143,1.2091,2276.588,0,,
1560,1,SBT2050,2,3,,7,4490.2,4.311824,1.2108,2278.272,0,,
1560,1,SBT2050,2,3,,7,4495.1,4.31176,1.2089,2279.918,0,,
1560,1,SBT2050,2,3,,7,4500.1,4.3123,1.213,2281.601,0,,
1560,1,SBT2050,2,3,,7,4505,4.31228,1.2094,2283.248,0,,
1560,1,SBT2050,2,3,,7,4510,4.31204,1.2082,2284.927,0,,
1560,1,SBT2050,2,3,,7,4514.9,4.31247,1.2115,2286.576,0,,
1560,1,SBT2050,2,3,,7,4519.9,4.31248,1.2087,2288.256,0,,
1560,1,SBT2050,2,3,,7,4524.8,4.31273,1.2122,2289.901,0,,
1560,1,SBT2050,2,3,,7,4529.8,4.31256,1.2091,2291.584,0,,
1560,1,SBT2050,2,3,,7,4534.7,4.31254,1.2085,2293.23,0,,
1560,1,SBT2050,2,3,,7,4539.6,4.31309,1.2134,2294.877,0,,
1560,1,SBT2050,2,3,,7,4544.6,4.31291,1.2089,2296.559,0,,
1560,1,SBT2050,2,3,,7,4549.5,4.31297,1.2129,2298.206,0,,
1560,1,SBT2050,2,3,,7,4554.5,4.31315,1.2114,2299.892,0,,
1560,1,SBT2050,2,3,,7,4559.4,4.31329,1.2118,2301.538,0,,
1560,1,SBT2050,2,3,,7,4564.4,4.31317,1.2151,2303.226,0,,
1560,1,SBT2050,2,3,,7,4569.3,4.31309,1.2102,2304.875,0,,
1560,1,SBT2050,2,3,,7,4574.3,4.313848,1.2178,2306.563,0,,
1560,1,SBT2050,2,3,,7,4579.2,4.31361,1.2116,2308.217,0,,
1560,1,SBT2050,2,3,,7,4584.129,4.31419,1.2202,2309.883,0,,
1560,1,SBT2050,2,3,,7,4589.1,4.3139,1.2154,2311.566,0,,
1560,1,SBT2050,2,3,,7,4594,4.31427,1.2197,2313.22,0,,
1560,1,SBT2050,2,3,,7,4599,4.314568,1.2222,2314.917,0,,
1560,1,SBT2050,2,3,,7,4603.9,4.3146,1.2219,2316.579,0,,
1560,1,SBT2050,2,3,,7,4608.9,4.314582,1.2187,2318.275,0,,
1560,1,SBT2050,2,3,,7,4613.8,4.31479,1.2235,2319.934,0,,
1560,1,SBT2050,2,3,,7,4618.8,4.315466,1.2288,2321.637,0,,
1560,1,SBT2050,2,3,,7,4623.7,4.3155,1.2293,2323.309,0,,
1560,1,SBT2050,2,3,,7,4628.7,4.31598,1.2346,2325.021,0,,
1560,1,SBT2050,2,3,,7,4633.6,4.31664,1.2408,2326.705,0,,
1560,1,SBT2050,2,3,,7,4638.5,4.31712,1.2464,2328.399,0,,
1560,1,SBT2050,2,3,,7,4643.5,4.31791,1.2511,2330.132,0,,
1560,1,SBT2050,2,3,,7,4648.4,4.318676,1.259,2331.841,0,,
1560,1,SBT2050,2,3,,7,4653.4,4.31933,1.2664,2333.594,0,,
1560,1,SBT2050,2,3,,7,4658.3,4.32069,1.2771,2335.326,0,,
1560,1,SBT2050,2,3,,7,4663.3,4.32248,1.2926,2337.11,0,,
1560,1,SBT2050,2,3,,7,4668.2,4.32469,1.3126,2338.882,0,,
1560,1,SBT2050,2,3,,7,4673.2,4.32729,1.3307,2340.718,0,,
1560,1,SBT2050,2,3,,7,4678.1,4.32953,1.3521,2342.543,0,,
1560,1,SBT2050,2,3,,7,4683.1,4.33178,1.3685,2344.432,0,,
1560,1,SBT2050,2,3,,7,4688,4.33429,1.386,2346.305,0,,
1560,1,SBT2050,2,3,,7,4692.9,4.33659,1.402,2348.202,0,,
1560,1,SBT2050,2,3,,7,4697.9,4.33935,1.4247,2350.164,0,,
1560,1,SBT2050,2,3,,7,4702.8,4.3426,1.4504,2352.117,0,,
1560,1,SBT2050,2,3,,7,4707.8,4.34551,1.4701,2354.144,0,,
1560,1,SBT2050,2,3,,7,4712.7,4.34801,1.4886,2356.157,0,,
1560,1,SBT2050,2,3,,7,4717.7,4.351284,1.513,2358.243,0,,
1560,1,SBT2050,2,3,,7,4722.6,4.35462,1.5399,2360.324,0,,
1560,1,SBT2050,2,3,,7,4727.6,4.358636,1.568,2362.486,0,,
1560,1,SBT2050,2,3,,7,4732.5,4.362606,1.5974,2364.642,0,,
1560,1,SBT2050,2,3,,7,4737.4,4.36567,1.6193,2366.834,0,,
1560,1,SBT2050,2,3,,7,4742.4,4.3694,1.646,2369.104,0,,
1560,1,SBT2050,2,3,,7,4747.3,4.37304,1.6743,2371.364,0,,
1560,1,SBT2050,2,3,,7,4752.3,4.37716,1.7063,2373.712,0,,
1560,1,SBT2050,2,3,,7,4757.2,4.38135,1.7356,2376.054,0,,
1560,1,SBT2050,2,3,,7,4762.2,4.38574,1.7684,2378.486,0,,
1560,1,SBT2050,2,3,,7,4767.1,4.3897,1.8,2380.914,0,,
1560,1,SBT2050,2,3,,7,4772.1,4.39442,1.8344,2383.436,0,,
1560,1,SBT2050,2,3,,7,4777,4.3993,1.8673,2385.956,0,,
1560,1,SBT2050,2,3,,7,4777.941,4.40002,1.8755,2386.444,0,,