File: ORRG/Test1583.csv
Request Year:,2018,,,,,,,,,,,,
Test:,1583,,,,,,,,,,,,
Test Description:,,,,,,,,,,,,,
TestRegime Name:,Aging_Performance,,,,,,,,,,,,
TestRegime Suffix:,SHP_LC,,,,,,,,,,,,
TestRegime CellSize:,18650,,,,,,,,,,,,
TestRegime Version:,1,,,,,,,,,,,,
Number Of Cells:,1,,,,,,,,,,,,
LotID:,,,,,,,,,,,,,
Lot Description:,,,,,,,,,,,,,
Date Made:,1/21/2003 12:00 AM,,,,,,,,,,,,
Origin:,Other,,,,,,,,,,,,
Requestor:,Admin,,,,,,,,,,,,
Product ID:,Default product,,,,,,,,,,,,
Storage Temp:,R.T./AMB,,,,,,,,,,,,
Storage Delay:,0 days,,,,,,,,,,,,
Test Temp:,R.T./AMB,,,,,,,,,,,,
Start Time:,4/28/2018 3:01 PM,,,,,,,,,,,,
End Time:,4/29/2018 3:34 AM,,,,,,,,,,,,
Operator Instructions:,,,,,,,,,,,,,
Test,Cell,Rack,Shelf,Position,Cell ID,Step,Total Time (Seconds),Voltage (V),Current (A),Charge Capacity (mAh),Discharge Capacity (mAh),TC1 (Â°C),
1583,1,SBT2050,2,3,,0,1,3.33514,0,0,0,29.2,
1583,1,SBT2050,2,3,,0,60,3.34129,0,0,0,28.3,
1583,1,SBT2050,2,3,,0,119,3.3453,0,0,0,27.7,
1583,1,SBT2050,2,3,,0,178,3.3484,0,0,0,27.2,
1583,1,SBT2050,2,3,,0,237,3.35053,0,0,0,26.8,
1583,1,SBT2050,2,3,,0,296,3.35262,0,0,0,26.6,
1583,1,SBT2050,2,3,,1,355,2.49966,-1.6769,0,36.181,28,
1583,1,SBT2050,2,3,,1,414,2.49972,-1.3112,0,60.222,29,
1583,1,SBT2050,2,3,,1,473,2.49985,-1.0973,0,79.869,29.4,
1583,1,SBT2050,2,3,,1,532,2.49988,-0.9391,0,96.499,29.6,
1583,1,SBT2050,2,3,,1,591,2.499938,-0.8162,0,110.844,29.6,
1583,1,SBT2050,2,3,,1,650,2.49996,-0.7157,0,123.37,29.4,
1583,1,SBT2050,2,3,,1,709,2.49982,-0.6329,0,134.402,29.2,
1583,1,SBT2050,2,3,,1,768,2.49997,-0.5646,0,144.197,29,
1583,1,SBT2050,2,3,,1,827,2.49987,-0.5069,0,152.966,28.7,
1583,1,SBT2050,2,3,,1,886,2.49983,-0.45786,0,160.869,28.4,
1583,1,SBT2050,2,3,,1,945,2.49989,-0.41712,0,168.031,28.2,
1583,1,SBT2050,2,3,,1,1004,2.49996,-0.38263,0,174.574,27.9,
1583,1,SBT2050,2,3,,1,1063,2.4999,-0.35361,0,180.599,27.7,
1583,1,SBT2050,2,3,,1,1122,2.49989,-0.32772,0,186.176,27.5,
1583,1,SBT2050,2,3,,1,1181,2.49989,-0.30533,0,191.361,27.3,
1583,1,SBT2050,2,3,,1,1240,2.500081,-0.28553,0,196.197,27.2,
1583,1,SBT2050,2,3,,1,1299,2.49999,-0.26787,0,200.727,27,
1583,1,SBT2050,2,3,,1,1358,2.49988,-0.25236,0,204.986,26.9,
1583,1,SBT2050,2,3,,1,1417,2.499771,-0.23768,0,209,26.8,
1583,1,SBT2050,2,3,,1,1476,2.49997,-0.22425,0,212.785,26.6,
1583,1,SBT2050,2,3,,1,1535,2.49995,-0.21195,0,216.358,26.5,
1583,1,SBT2050,2,3,,1,1594,2.49997,-0.20073,0,219.737,26.4,
1583,1,SBT2050,2,3,,1,1653,2.49988,-0.19024,0,222.939,26.4,
1583,1,SBT2050,2,3,,1,1712,2.500081,-0.18053,0,225.975,26.3,
1583,1,SBT2050,2,3,,1,1771,2.49987,-0.1709,0,228.854,26.2,
1583,1,SBT2050,2,3,,1,1830,2.49983,-0.1628,0,231.589,26.1,
1583,1,SBT2050,2,3,,1,1889,2.49996,-0.15514,0,234.192,26.1,
1583,1,SBT2050,2,3,,1,1948,2.5,-0.14832,0,236.676,26,
1583,1,SBT2050,2,3,,1,2007,2.50003,-0.14139,0,239.048,26,
1583,1,SBT2050,2,3,,1,2066,2.50005,-0.13536,0,241.315,25.9,
1583,1,SBT2050,2,3,,1,2125,2.49997,-0.12969,0,243.484,25.9,
1583,1,SBT2050,2,3,,1,2184,2.49988,-0.12414,0,245.565,25.9,
1583,1,SBT2050,2,3,,1,2243,2.50003,-0.11915,0,247.559,25.8,
1583,1,SBT2050,2,3,,1,2302,2.49997,-0.11442,0,249.47,25.8,
1583,1,SBT2050,2,3,,1,2361,2.499771,-0.10961,0,251.307,25.7,
1583,1,SBT2050,2,3,,1,2420,2.5001,-0.10574,0,253.073,25.7,
1583,1,SBT2050,2,3,,1,2479,2.49997,-0.10163,0,254.771,25.7,
1583,1,SBT2050,2,3,,1,2538,2.50006,-0.09793,0,256.404,25.6,
1583,1,SBT2050,2,3,,1,2597,2.50003,-0.09414,0,257.978,25.6,
1583,1,SBT2050,2,3,,1,2656,2.49983,-0.09067,0,259.495,25.6,
1583,1,SBT2050,2,3,,1,2715,2.50012,-0.08744,0,260.955,25.6,
1583,1,SBT2050,2,3,,1,2774,2.4999,-0.08425,0,262.362,25.5,
1583,1,SBT2050,2,3,,1,2833,2.50012,-0.08143,0,263.72,25.5,
1583,1,SBT2050,2,3,,1,2892,2.5,-0.07861,0,265.031,25.5,
1583,1,SBT2050,2,3,,1,2951,2.499938,-0.07581,0,266.297,25.5,
1583,1,SBT2050,2,3,,1,3010,2.50001,-0.07341,0,267.52,25.5,
1583,1,SBT2050,2,3,,1,3069,2.50001,-0.07101,0,268.702,25.4,
1583,1,SBT2050,2,3,,1,3128,2.49988,-0.06888,0,269.846,25.5,
1583,1,SBT2050,2,3,,1,3187,2.50003,-0.06675,0,270.956,25.4,
1583,1,SBT2050,2,3,,1,3246,2.50005,-0.06467,0,272.031,25.4,
1583,1,SBT2050,2,3,,1,3305,2.499914,-0.06272,0,273.075,25.4,
1583,1,SBT2050,2,3,,1,3364,2.49999,-0.0607,0,274.087,25.4,
1583,1,SBT2050,2,3,,1,3423,2.50001,-0.05902,0,275.07,25.4,
1583,1,SBT2050,2,3,,1,3482,2.49987,-0.05744,0,276.024,25.4,
1583,1,SBT2050,2,3,,1,3541,2.5001,-0.05589,0,276.952,25.3,
1583,1,SBT2050,2,3,,1,3600,2.50016,-0.05436,0,277.853,25.3,
1583,1,SBT2050,2,3,,1,3659,2.50006,-0.05283,0,278.73,25.3,
1583,1,SBT2050,2,3,,1,3718,2.5,-0.05113,0,279.581,25.3,
1583,1,SBT2050,2,3,,1,3777,2.499914,-0.04974,0,280.408,25.3,
1583,1,SBT2050,2,3,,1,3836,2.50022,-0.04852,0,281.213,25.3,
1583,1,SBT2050,2,3,,1,3895,2.49995,-0.047111,0,281.996,25.3,
1583,1,SBT2050,2,3,,1,3954,2.49989,-0.04573,0,282.757,25.3,
1583,1,SBT2050,2,3,,1,4013,2.500081,-0.04444,0,283.496,25.2,
1583,1,SBT2050,2,3,,1,4072,2.4999,-0.043174,0,284.213,25.3,
1583,1,SBT2050,2,3,,1,4131,2.49982,-0.041807,0,284.909,25.2,
1583,1,SBT2050,2,3,,1,4190,2.5001,-0.040556,0,285.586,25.2,
1583,1,SBT2050,2,3,,1,4249,2.49999,-0.039459,0,286.241,25.2,
1583,1,SBT2050,2,3,,1,4308,2.50013,-0.038339,0,286.875,25.2,
1583,1,SBT2050,2,3,,1,4367,2.5,-0.037054,0,287.491,25.2,
1583,1,SBT2050,2,3,,1,4426,2.500081,-0.035884,0,288.089,25.2,
1583,1,SBT2050,2,3,,1,4485,2.49995,-0.034738,0,288.67,25.2,
1583,1,SBT2050,2,3,,1,4544,2.49989,-0.033922,0,289.233,25.2,
1583,1,SBT2050,2,3,,1,4603,2.49997,-0.032809,0,289.78,25.2,
1583,1,SBT2050,2,3,,1,4662,2.50002,-0.031876,0,290.312,25.2,
1583,1,SBT2050,2,3,,1,4721,2.50003,-0.031109,0,290.83,25.2,
1583,1,SBT2050,2,3,,1,4780,2.49984,-0.030372,0,291.334,25.2,
1583,1,SBT2050,2,3,,1,4839,2.50018,-0.029675,0,291.824,25.2,
1583,1,SBT2050,2,3,,1,4898,2.49995,-0.028742,0,292.302,25.2,
1583,1,SBT2050,2,3,,1,4957,2.50013,-0.028254,0,292.768,25.2,
1583,1,SBT2050,2,3,,1,5016,2.49995,-0.027416,0,293.222,25.2,
1583,1,SBT2050,2,3,,1,5075,2.50005,-0.026656,0,293.666,25.1,
1583,1,SBT2050,2,3,,1,5134,2.499926,-0.026127,0,294.099,25.2,
1583,1,SBT2050,2,3,,1,5193,2.50005,-0.025639,0,294.523,25.1,
1583,1,SBT2050,2,3,,1,5252,2.50005,-0.024912,0,294.936,25.1,
1583,1,SBT2050,2,3,,1,5311,2.49997,-0.02451,0,295.341,25.1,
1583,1,SBT2050,2,3,,1,5370,2.49999,-0.023762,0,295.736,25.1,
1583,1,SBT2050,2,3,,1,5429,2.49984,-0.023083,0,296.123,25.1,
1583,1,SBT2050,2,3,,1,5488,2.500081,-0.022856,0,296.501,25.1,
1583,1,SBT2050,2,3,,1,5547,2.5001,-0.022281,0,296.872,25.1,
1583,1,SBT2050,2,3,,1,5606,2.50001,-0.021851,0,297.234,25.1,
1583,1,SBT2050,2,3,,1,5665,2.50012,-0.021436,0,297.588,25.1,
1583,1,SBT2050,2,3,,1,5724,2.49996,-0.020881,0,297.935,25.1,
1583,1,SBT2050,2,3,,1,5783,2.5,-0.020581,0,298.276,25.1,
1583,1,SBT2050,2,3,,1,5842,2.50005,-0.020144,0,298.61,25.1,
1583,1,SBT2050,2,3,,1,5901,2.50006,-0.019859,0,298.936,25.1,
1583,1,SBT2050,2,3,,1,5960,2.49985,-0.019303,0,299.256,25.1,
1583,1,SBT2050,2,3,,1,6019,2.49995,-0.0189,0,299.569,25.1,
1583,1,SBT2050,2,3,,1,6078,2.50005,-0.018514,0,299.877,25.1,
1583,1,SBT2050,2,3,,1,6137,2.5,-0.018233,0,300.177,25.1,
1583,1,SBT2050,2,3,,1,6196,2.50019,-0.018004,0,300.472,25,
1583,1,SBT2050,2,3,,1,6255,2.49996,-0.017272,0,300.759,25,
1583,1,SBT2050,2,3,,1,6314,2.49999,-0.017069,0,301.041,25.1,
1583,1,SBT2050,2,3,,1,6373,2.49999,-0.016863,0,301.317,25.1,
1583,1,SBT2050,2,3,,1,6432,2.499926,-0.016106,0,301.587,25.1,
1583,1,SBT2050,2,3,,1,6491,2.50014,-0.015948,0,301.851,25.1,
1583,1,SBT2050,2,3,,1,6550,2.49987,-0.015502,0,302.109,25,
1583,1,SBT2050,2,3,,1,6609,2.50005,-0.015219,0,302.362,25,
1583,1,SBT2050,2,3,,1,6668,2.49997,-0.01499,0,302.609,25,
1583,1,SBT2050,2,3,,1,6727,2.5001,-0.014625,0,302.851,25.1,
1583,1,SBT2050,2,3,,1,6786,2.49997,-0.014211,0,303.088,25,
1583,1,SBT2050,2,3,,1,6845,2.499926,-0.013922,0,303.32,25,
1583,1,SBT2050,2,3,,1,6904,2.50002,-0.013791,0,303.547,25.1,
1583,1,SBT2050,2,3,,1,6963,2.49997,-0.013288,0,303.77,25,
1583,1,SBT2050,2,3,,1,7022,2.499914,-0.013128,0,303.987,25,
1583,1,SBT2050,2,3,,1,7081,2.49985,-0.012843,0,304.2,25.1,
1583,1,SBT2050,2,3,,1,7140,2.499938,-0.012549,0,304.409,25,
1583,1,SBT2050,2,3,,1,7199,2.49997,-0.012243,0,304.613,25,
1583,1,SBT2050,2,3,,1,7258,2.500081,-0.012035,0,304.812,25,
1583,1,SBT2050,2,3,,1,7317,2.50012,-0.011755,0,305.006,25,
1583,1,SBT2050,2,3,,1,7376,2.49989,-0.011341,0,305.197,25,
1583,1,SBT2050,2,3,,1,7435,2.50002,-0.011205,0,305.383,25,
1583,1,SBT2050,2,3,,1,7494,2.5,-0.010848,0,305.564,25,
1583,1,SBT2050,2,3,,1,7553,2.50012,-0.010623,0,305.742,25,
1583,1,SBT2050,2,3,,1,7612,2.49997,-0.010453,0,305.915,25.1,
1583,1,SBT2050,2,3,,1,7671,2.50003,-0.010333,0,306.084,25.1,
1583,1,SBT2050,2,3,,2,7729,3.42135,2.9363,32.346,306.136,25.3,
1583,1,SBT2050,2,3,,2,7788,3.60934,2.9358,80.463,306.136,25.9,
1583,1,SBT2050,2,3,,2,7847,3.66275,2.9361,128.58,306.136,26.8,
1583,1,SBT2050,2,3,,2,7906,3.68057,2.9362,176.697,306.136,27.6,
1583,1,SBT2050,2,3,,2,7965,3.69914,2.9357,224.813,306.136,28.2,
1583,1,SBT2050,2,3,,2,8024,3.71715,2.936,272.93,306.136,28.8,
1583,1,SBT2050,2,3,,2,8083,3.73287,2.9357,321.047,306.136,29.2,
1583,1,SBT2050,2,3,,2,8142,3.74608,2.9356,369.164,306.136,29.6,
1583,1,SBT2050,2,3,,2,8201,3.75652,2.9363,417.28,306.136,29.8,
1583,1,SBT2050,2,3,,2,8260,3.7653,2.9357,465.397,306.136,30,
1583,1,SBT2050,2,3,,2,8319,3.77457,2.9361,513.514,306.136,30.1,
1583,1,SBT2050,2,3,,2,8378,3.78514,2.9359,561.631,306.136,30.2,
1583,1,SBT2050,2,3,,2,8437,3.796116,2.936,609.747,306.136,30.3,
1583,1,SBT2050,2,3,,2,8496,3.80679,2.936,657.864,306.136,30.3,
1583,1,SBT2050,2,3,,2,8555,3.81817,2.9361,705.981,306.136,30.3,
1583,1,SBT2050,2,3,,2,8614,3.829196,2.9358,754.098,306.136,30.4,
1583,1,SBT2050,2,3,,2,8673,3.840648,2.936,802.214,306.136,30.4,
1583,1,SBT2050,2,3,,2,8732,3.85315,2.936,850.331,306.136,30.4,
1583,1,SBT2050,2,3,,2,8791,3.86593,2.9357,898.448,306.136,30.4,
1583,1,SBT2050,2,3,,2,8850,3.87964,2.936,946.565,306.136,30.4,
1583,1,SBT2050,2,3,,2,8909,3.89387,2.9358,994.681,306.136,30.5,
1583,1,SBT2050,2,3,,2,8968,3.908924,2.936,1042.798,306.136,30.5,
1583,1,SBT2050,2,3,,2,9027,3.9248,2.9362,1090.915,306.136,30.5,
1583,1,SBT2050,2,3,,2,9086,3.941284,2.9363,1139.032,306.136,30.6,
1583,1,SBT2050,2,3,,2,9145,3.95873,2.9359,1187.149,306.136,30.7,
1583,1,SBT2050,2,3,,2,9204,3.9765,2.9355,1235.265,306.136,30.7,
1583,1,SBT2050,2,3,,2,9263,3.99446,2.9359,1283.382,306.136,30.8,
1583,1,SBT2050,2,3,,2,9322,4.013134,2.9361,1331.499,306.136,30.8,
1583,1,SBT2050,2,3,,2,9381,4.0316,2.9357,1379.616,306.136,31,
1583,1,SBT2050,2,3,,2,9440,4.05014,2.9357,1427.732,306.136,31,
1583,1,SBT2050,2,3,,2,9499,4.0693,2.9361,1475.849,306.136,31.1,
1583,1,SBT2050,2,3,,2,9558,4.08859,2.9364,1523.966,306.136,31.1,
1583,1,SBT2050,2,3,,2,9617,4.10805,2.9359,1572.083,306.136,31.2,
1583,1,SBT2050,2,3,,2,9676,4.12757,2.936,1620.2,306.136,31.3,
1583,1,SBT2050,2,3,,2,9735,4.14772,2.936,1668.316,306.136,31.3,
1583,1,SBT2050,2,3,,2,9794,4.1498,2.7017,1714.566,306.136,31.3,
1583,1,SBT2050,2,3,,2,9853,4.15008,2.4963,1757.117,306.136,31.2,
1583,1,SBT2050,2,3,,2,9912,4.15,2.3066,1796.455,306.136,31.1,
1583,1,SBT2050,2,3,,2,9971,4.149894,2.129,1832.782,306.136,30.8,
1583,1,SBT2050,2,3,,2,10030,4.15016,1.9622,1866.287,306.136,30.5,
1583,1,SBT2050,2,3,,2,10089,4.150252,1.813,1897.207,306.136,30.1,
1583,1,SBT2050,2,3,,2,10148,4.15014,1.6763,1925.775,306.136,29.8,
1583,1,SBT2050,2,3,,2,10207,4.15007,1.5524,1952.221,306.136,29.4,
1583,1,SBT2050,2,3,,2,10266,4.14997,1.4417,1976.74,306.136,29.1,
1583,1,SBT2050,2,3,,2,10325,4.150228,1.3409,1999.528,306.136,28.7,
1583,1,SBT2050,2,3,,2,10384,4.14999,1.2501,2020.753,306.136,28.4,
1583,1,SBT2050,2,3,,2,10443,4.149906,1.171,2040.587,306.136,28.1,
1583,1,SBT2050,2,3,,2,10502,4.15012,1.0968,2059.166,306.136,27.9,
1583,1,SBT2050,2,3,,2,10561,4.150252,1.03,2076.591,306.136,27.7,
1583,1,SBT2050,2,3,,2,10620,4.15024,0.9694,2092.971,306.136,27.4,
1583,1,SBT2050,2,3,,2,10679,4.14987,0.9149,2108.406,306.136,27.2,
1583,1,SBT2050,2,3,,2,10738,4.15018,0.8649,2122.985,306.136,27.1,
1583,1,SBT2050,2,3,,2,10797,4.15014,0.8191,2136.776,306.136,26.9,
1583,1,SBT2050,2,3,,2,10856,4.15011,0.7759,2149.844,306.136,26.8,
1583,1,SBT2050,2,3,,2,10915,4.1501,0.7371,2162.241,306.136,26.6,
1583,1,SBT2050,2,3,,2,10974,4.149894,0.7018,2174.029,306.136,26.5,
1583,1,SBT2050,2,3,,2,11033,4.15018,0.6687,2185.262,306.136,26.4,
1583,1,SBT2050,2,3,,2,11092,4.15017,0.6387,2195.977,306.136,26.3,
1583,1,SBT2050,2,3,,2,11151,4.15003,0.6103,2206.203,306.136,26.2,
1583,1,SBT2050,2,3,,2,11210,4.15031,0.5843,2215.99,306.136,26.2,
1583,1,SBT2050,2,3,,2,11269,4.15014,0.5591,2225.358,306.136,26.1,
1583,1,SBT2050,2,3,,2,11328,4.15,0.5362,2234.348,306.136,26,
1583,1,SBT2050,2,3,,2,11387,4.15008,0.5155,2242.963,306.136,26,
1583,1,SBT2050,2,3,,2,11446,4.14994,0.495,2251.234,306.136,25.9,
1583,1,SBT2050,2,3,,2,11505,4.150192,0.4768,2259.201,306.136,25.9,
1583,1,SBT2050,2,3,,2,11564,4.14997,0.45952,2266.868,306.136,25.8,
1583,1,SBT2050,2,3,,2,11623,4.14974,0.4426,2274.258,306.136,25.8,
1583,1,SBT2050,2,3,,2,11682,4.15029,0.42602,2281.378,306.136,25.8,
1583,1,SBT2050,2,3,,2,11741,4.15035,0.41053,2288.242,306.136,25.7,
1583,1,SBT2050,2,3,,2,11800,4.15014,0.3967,2294.863,306.136,25.7,
1583,1,SBT2050,2,3,,2,11859,4.15014,0.38332,2301.258,306.136,25.6,
1583,1,SBT2050,2,3,,2,11918,4.14999,0.37065,2307.439,306.136,25.6,
1583,1,SBT2050,2,3,,2,11977,4.15004,0.359,2313.416,306.136,25.6,
1583,1,SBT2050,2,3,,2,12036,4.15,0.34671,2319.19,306.136,25.6,
1583,1,SBT2050,2,3,,2,12095,4.14997,0.3356,2324.775,306.136,25.5,
1583,1,SBT2050,2,3,,2,12154,4.15012,0.3253,2330.194,306.136,25.5,
1583,1,SBT2050,2,3,,2,12213,4.14999,0.31508,2335.441,306.136,25.4,
1583,1,SBT2050,2,3,,2,12272,4.14998,0.3059,2340.527,306.136,25.4,
1583,1,SBT2050,2,3,,2,12331,4.149894,0.29651,2345.465,306.136,25.4,
1583,1,SBT2050,2,3,,2,12390,4.14994,0.28851,2350.26,306.136,25.4,
1583,1,SBT2050,2,3,,2,12449,4.15024,0.28017,2354.916,306.136,25.4,
1583,1,SBT2050,2,3,,2,12508,4.15006,0.27269,2359.446,306.136,25.4,
1583,1,SBT2050,2,3,,2,12567,4.15034,0.26486,2363.844,306.136,25.4,
1583,1,SBT2050,2,3,,2,12626,4.15012,0.25816,2368.126,306.136,25.3,
1583,1,SBT2050,2,3,,2,12685,4.14977,0.25089,2372.297,306.136,25.3,
1583,1,SBT2050,2,3,,2,12744,4.14997,0.24484,2376.358,306.136,25.4,
1583,1,SBT2050,2,3,,2,12803,4.150204,0.23847,2380.317,306.136,25.3,
1583,1,SBT2050,2,3,,2,12862,4.149906,0.23243,2384.175,306.136,25.3,
1583,1,SBT2050,2,3,,2,12921,4.14987,0.22727,2387.937,306.136,25.2,
1583,1,SBT2050,2,3,,2,12980,4.14979,0.22142,2391.608,306.136,25.3,
1583,1,SBT2050,2,3,,2,13039,4.14985,0.21579,2395.189,306.136,25.3,
1583,1,SBT2050,2,3,,2,13098,4.15012,0.21095,2398.687,306.136,25.2,
1583,1,SBT2050,2,3,,2,13157,4.15007,0.20602,2402.101,306.136,25.2,
1583,1,SBT2050,2,3,,2,13216,4.1501,0.20056,2405.436,306.136,25.2,
1583,1,SBT2050,2,3,,2,13275,4.15,0.19711,2408.694,306.136,25.2,
1583,1,SBT2050,2,3,,2,13334,4.14994,0.19265,2411.886,306.136,25.2,
1583,1,SBT2050,2,3,,2,13393,4.15013,0.18842,2415.011,306.136,25.2,
1583,1,SBT2050,2,3,,2,13452,4.1498,0.18458,2418.065,306.136,25.2,
1583,1,SBT2050,2,3,,2,13511,4.15,0.18055,2421.054,306.136,25.2,
1583,1,SBT2050,2,3,,2,13570,4.1498,0.17648,2423.979,306.136,25.2,
1583,1,SBT2050,2,3,,2,13629,4.15004,0.17267,2426.843,306.136,25.1,
1583,1,SBT2050,2,3,,2,13688,4.1501,0.16946,2429.647,306.136,25.1,
1583,1,SBT2050,2,3,,2,13747,4.149918,0.16603,2432.395,306.136,25.2,
1583,1,SBT2050,2,3,,2,13806,4.14979,0.16266,2435.087,306.136,25.2,
1583,1,SBT2050,2,3,,2,13865,4.14986,0.15964,2437.726,306.136,25.2,
1583,1,SBT2050,2,3,,2,13924,4.149918,0.15624,2440.313,306.136,25.2,
1583,1,SBT2050,2,3,,2,13983,4.15001,0.15294,2442.846,306.136,25.2,
1583,1,SBT2050,2,3,,2,14042,4.15003,0.15063,2445.334,306.136,25.2,
1583,1,SBT2050,2,3,,2,14101,4.15004,0.14802,2447.778,306.136,25.2,
1583,1,SBT2050,2,3,,2,14160,4.15012,0.14517,2450.181,306.136,25.2,
1583,1,SBT2050,2,3,,2,14219,4.14983,0.14204,2452.531,306.136,25.2,
1583,1,SBT2050,2,3,,2,14278,4.14987,0.13978,2454.835,306.136,25.2,
1583,1,SBT2050,2,3,,2,14337,4.14994,0.13695,2457.1,306.136,25.1,
1583,1,SBT2050,2,3,,2,14396,4.149918,0.13446,2459.325,306.136,25.2,
1583,1,SBT2050,2,3,,2,14455,4.149918,0.13262,2461.515,306.136,25.1,
1583,1,SBT2050,2,3,,2,14514,4.14995,0.1301,2463.664,306.136,25.2,
1583,1,SBT2050,2,3,,2,14573,4.1501,0.12707,2465.772,306.136,25.2,
1583,1,SBT2050,2,3,,2,14632,4.14987,0.1257,2467.843,306.136,25.2,
1583,1,SBT2050,2,3,,2,14691,4.15005,0.12334,2469.879,306.136,25.2,
1583,1,SBT2050,2,3,,2,14750,4.15031,0.12099,2471.88,306.136,25.1,
1583,1,SBT2050,2,3,,2,14809,4.14999,0.11933,2473.845,306.136,25.1,
1583,1,SBT2050,2,3,,2,14868,4.15,0.11721,2475.78,306.136,25.1,
1583,1,SBT2050,2,3,,2,14927,4.15007,0.11487,2477.685,306.136,25.2,
1583,1,SBT2050,2,3,,2,14986,4.14982,0.11316,2479.549,306.136,25.1,
1583,1,SBT2050,2,3,,2,15045,4.15013,0.11096,2481.388,306.136,25.2,
1583,1,SBT2050,2,3,,2,15104,4.14995,0.10935,2483.195,306.136,25.2,
1583,1,SBT2050,2,3,,2,15163,4.15006,0.10783,2484.975,306.136,25.1,
1583,1,SBT2050,2,3,,2,15222,4.15,0.10601,2486.728,306.136,25.1,
1583,1,SBT2050,2,3,,2,15281,4.15013,0.1039,2488.447,306.136,25.1,
1583,1,SBT2050,2,3,,2,15340,4.15,0.10252,2490.14,306.136,25.1,
1583,1,SBT2050,2,3,,2,15399,4.15024,0.10035,2491.805,306.136,25.1,
1583,1,SBT2050,2,3,,2,15458,4.14987,0.09913,2493.442,306.136,25.1,
1583,1,SBT2050,2,3,,2,15517,4.14987,0.0977,2495.053,306.136,25.1,
1583,1,SBT2050,2,3,,2,15576,4.15,0.09577,2496.639,306.136,25.1,
1583,1,SBT2050,2,3,,2,15635,4.15017,0.09497,2498.2,306.136,25.1,
1583,1,SBT2050,2,3,,2,15694,4.14981,0.09339,2499.74,306.136,25.1,
1583,1,SBT2050,2,3,,2,15753,4.15007,0.09169,2501.253,306.136,25.1,
1583,1,SBT2050,2,3,,2,15812,4.14983,0.09069,2502.748,306.136,25.1,
1583,1,SBT2050,2,3,,2,15871,4.14994,0.0889,2504.219,306.136,25.1,
1583,1,SBT2050,2,3,,2,15930,4.1501,0.0877,2505.667,306.136,25.1,
1583,1,SBT2050,2,3,,2,15989,4.14981,0.08666,2507.094,306.136,25.1,
1583,1,SBT2050,2,3,,2,16048,4.15003,0.0849,2508.498,306.136,25.1,
1583,1,SBT2050,2,3,,2,16107,4.15007,0.08406,2509.882,306.136,25.1,
1583,1,SBT2050,2,3,,2,16166,4.15005,0.08268,2511.248,306.136,25.1,
1583,1,SBT2050,2,3,,2,16225,4.15001,0.08171,2512.594,306.136,25.1,
1583,1,SBT2050,2,3,,2,16284,4.14997,0.08028,2513.921,306.136,25.1,
1583,1,SBT2050,2,3,,2,16343,4.15008,0.07905,2515.23,306.136,25.1,
1583,1,SBT2050,2,3,,2,16402,4.14993,0.07773,2516.518,306.136,25.1,
1583,1,SBT2050,2,3,,2,16461,4.1498,0.07685,2517.786,306.136,25.1,
1583,1,SBT2050,2,3,,2,16520,4.14985,0.07552,2519.037,306.136,25.1,
1583,1,SBT2050,2,3,,2,16579,4.15008,0.07472,2520.267,306.136,25.1,
1583,1,SBT2050,2,3,,2,16638,4.15016,0.07332,2521.481,306.136,25.1,
1583,1,SBT2050,2,3,,2,16697,4.14999,0.07233,2522.676,306.136,25.1,
1583,1,SBT2050,2,3,,2,16756,4.14994,0.07121,2523.852,306.136,25.1,
1583,1,SBT2050,2,3,,2,16815,4.15007,0.07062,2525.015,306.136,25,
1583,1,SBT2050,2,3,,2,16874,4.14995,0.06951,2526.16,306.136,25.1,
1583,1,SBT2050,2,3,,2,16933,4.15006,0.06833,2527.29,306.136,25.1,
1583,1,SBT2050,2,3,,2,16992,4.149906,0.06771,2528.405,306.136,25.1,
1583,1,SBT2050,2,3,,2,17051,4.1498,0.06651,2529.505,306.136,25.1,
1583,1,SBT2050,2,3,,2,17110,4.14986,0.06589,2530.59,306.136,25,
1583,1,SBT2050,2,3,,2,17169,4.15003,0.06523,2531.657,306.136,25,
1583,1,SBT2050,2,3,,2,17228,4.15008,0.0637,2532.714,306.136,25,
1583,1,SBT2050,2,3,,2,17287,4.14997,0.06328,2533.754,306.136,25.1,
1583,1,SBT2050,2,3,,2,17346,4.149918,0.06231,2534.782,306.136,25.1,
1583,1,SBT2050,2,3,,2,17405,4.15003,0.06173,2535.794,306.136,25,
1583,1,SBT2050,2,3,,2,17464,4.149894,0.06056,2536.794,306.136,25,
1583,1,SBT2050,2,3,,2,17523,4.15011,0.05983,2537.783,306.136,25,
1583,1,SBT2050,2,3,,2,17582,4.15003,0.05897,2538.761,306.136,25,
1583,1,SBT2050,2,3,,2,17641,4.149906,0.05835,2539.725,306.136,25,
1583,1,SBT2050,2,3,,2,17700,4.14993,0.05762,2540.675,306.136,25,
1583,1,SBT2050,2,3,,2,17759,4.15018,0.05674,2541.614,306.136,25,
1583,1,SBT2050,2,3,,2,17818,4.15005,0.05636,2542.541,306.136,25,
1583,1,SBT2050,2,3,,2,17877,4.15014,0.0556,2543.457,306.136,25,
1583,1,SBT2050,2,3,,2,17936,4.150228,0.05452,2544.359,306.136,25,
1583,1,SBT2050,2,3,,2,17995,4.15011,0.05402,2545.248,306.136,25,
1583,1,SBT2050,2,3,,2,18054,4.15005,0.05286,2546.127,306.136,25.1,
1583,1,SBT2050,2,3,,2,18113,4.150192,0.05238,2546.996,306.136,25.1,
1583,1,SBT2050,2,3,,2,18172,4.149918,0.05199,2547.853,306.136,25,
1583,1,SBT2050,2,3,,2,18231,4.15008,0.05129,2548.697,306.136,25,
1583,1,SBT2050,2,3,,2,18290,4.15001,0.05041,2549.53,306.136,25,
1583,1,SBT2050,2,3,,2,18349,4.150204,0.05005,2550.354,306.136,25,
1583,1,SBT2050,2,3,,2,18408,4.14993,0.04984,2551.173,306.136,25,
1583,1,SBT2050,2,3,,2,18467,4.1501,0.04876,2551.979,306.136,25,
1583,1,SBT2050,2,3,,2,18526,4.15001,0.04814,2552.772,306.136,25,
1583,1,SBT2050,2,3,,2,18585,4.14993,0.0478,2553.557,306.136,25,
1583,1,SBT2050,2,3,,2,18644,4.150252,0.047065,2554.336,306.136,25,
1583,1,SBT2050,2,3,,2,18703,4.14993,0.046835,2555.107,306.136,25,
1583,1,SBT2050,2,3,,2,18762,4.15006,0.046264,2555.869,306.136,25,
1583,1,SBT2050,2,3,,2,18821,4.149882,0.045742,2556.62,306.136,25,
1583,1,SBT2050,2,3,,2,18880,4.150252,0.044604,2557.362,306.136,25,
1583,1,SBT2050,2,3,,2,18939,4.149918,0.044745,2558.096,306.136,25,
1583,1,SBT2050,2,3,,2,18998,4.15006,0.044154,2558.821,306.136,25,
1583,1,SBT2050,2,3,,2,19057,4.149918,0.043528,2559.539,306.136,25,
1583,1,SBT2050,2,3,,2,19116,4.15007,0.043071,2560.251,306.136,25,
1583,1,SBT2050,2,3,,2,19175,4.15034,0.042763,2560.958,306.136,25,
1583,1,SBT2050,2,3,,2,19234,4.14982,0.04206,2561.651,306.136,25,
1583,1,SBT2050,2,3,,2,19293,4.15,0.041436,2562.334,306.136,25,
1583,1,SBT2050,2,3,,2,19352,4.14982,0.041161,2563.012,306.136,25,
1583,1,SBT2050,2,3,,2,19411,4.150192,0.040557,2563.682,306.136,25,
1583,1,SBT2050,2,3,,2,19470,4.15003,0.040338,2564.344,306.136,25,
1583,1,SBT2050,2,3,,2,19529,4.15005,0.039641,2564.999,306.136,25,
1583,1,SBT2050,2,3,,2,19588,4.15014,0.03889,2565.643,306.136,25,
1583,1,SBT2050,2,3,,2,19647,4.14985,0.0388,2566.281,306.136,25,
1583,1,SBT2050,2,3,,2,19706,4.14981,0.038177,2566.91,306.136,25,
1583,1,SBT2050,2,3,,2,19765,4.14998,0.03808,2567.535,306.136,25,
1583,1,SBT2050,2,3,,2,19824,4.15006,0.037523,2568.155,306.136,25,
1583,1,SBT2050,2,3,,2,19883,4.15007,0.037064,2568.767,306.136,25,
1583,1,SBT2050,2,3,,2,19942,4.14997,0.037021,2569.375,306.136,25,
1583,1,SBT2050,2,3,,2,20001,4.15003,0.036291,2569.974,306.136,25,
1583,1,SBT2050,2,3,,2,20060,4.14985,0.035901,2570.569,306.136,25,
1583,1,SBT2050,2,3,,2,20119,4.1501,0.03571,2571.157,306.136,25,
1583,1,SBT2050,2,3,,2,20178,4.15,0.035209,2571.738,306.136,25,
1583,1,SBT2050,2,3,,2,20237,4.15001,0.034992,2572.313,306.136,25,
1583,1,SBT2050,2,3,,2,20296,4.14997,0.034407,2572.882,306.136,25,
1583,1,SBT2050,2,3,,2,20355,4.15006,0.034239,2573.444,306.136,25,
1583,1,SBT2050,2,3,,2,20414,4.149882,0.033965,2574.003,306.136,25,
1583,1,SBT2050,2,3,,2,20473,4.14995,0.033607,2574.555,306.136,25,
1583,1,SBT2050,2,3,,2,20532,4.14985,0.033478,2575.103,306.136,25,
1583,1,SBT2050,2,3,,2,20591,4.15017,0.032711,2575.645,306.136,25,
1583,1,SBT2050,2,3,,2,20650,4.14994,0.032734,2576.178,306.136,25,
1583,1,SBT2050,2,3,,2,20709,4.15003,0.03197,2576.707,306.136,25,
1583,1,SBT2050,2,3,,2,20768,4.14999,0.032064,2577.231,306.136,25,
1583,1,SBT2050,2,3,,2,20827,4.14993,0.03131,2577.748,306.136,25,
1583,1,SBT2050,2,3,,2,20886,4.150216,0.031017,2578.263,306.136,25,
1583,1,SBT2050,2,3,,2,20945,4.15029,0.030834,2578.773,306.136,25,
1583,1,SBT2050,2,3,,2,21004,4.149894,0.030912,2579.281,306.136,25,
1583,1,SBT2050,2,3,,2,21063,4.14983,0.03045,2579.78,306.136,25,
1583,1,SBT2050,2,3,,2,21122,4.14993,0.030147,2580.275,306.136,25,
1583,1,SBT2050,2,3,,2,21181,4.15017,0.029841,2580.765,306.136,25,
1583,1,SBT2050,2,3,,2,21240,4.14997,0.029315,2581.253,306.136,25,
1583,1,SBT2050,2,3,,2,21299,4.15001,0.028673,2581.731,306.136,25,
1583,1,SBT2050,2,3,,2,21358,4.14982,0.028991,2582.205,306.136,25,
1583,1,SBT2050,2,3,,2,21417,4.15005,0.028477,2582.676,306.136,25,
1583,1,SBT2050,2,3,,2,21476,4.15006,0.02785,2583.139,306.136,25,
1583,1,SBT2050,2,3,,2,21535,4.15016,0.027957,2583.599,306.136,25,
1583,1,SBT2050,2,3,,2,21594,4.14977,0.027939,2584.055,306.136,25,
1583,1,SBT2050,2,3,,2,21653,4.14993,0.027354,2584.507,306.136,25,
1583,1,SBT2050,2,3,,2,21712,4.15012,0.027086,2584.954,306.136,25,
1583,1,SBT2050,2,3,,2,21771,4.150204,0.02686,2585.397,306.136,25,
1583,1,SBT2050,2,3,,2,21830,4.14998,0.026704,2585.836,306.136,25,
1583,1,SBT2050,2,3,,2,21889,4.1498,0.026334,2586.272,306.136,25,
1583,1,SBT2050,2,3,,2,21948,4.15011,0.026013,2586.702,306.136,25,
1583,1,SBT2050,2,3,,2,22007,4.15014,0.025904,2587.129,306.136,25,
1583,1,SBT2050,2,3,,2,22066,4.14986,0.025543,2587.552,306.136,25,
1583,1,SBT2050,2,3,,2,22125,4.149894,0.025587,2587.971,306.136,25,
1583,1,SBT2050,2,3,,2,22184,4.14994,0.025143,2588.387,306.136,25,
1583,1,SBT2050,2,3,,2,22243,4.15007,0.024883,2588.798,306.136,24.9,
1583,1,SBT2050,2,3,,2,22302,4.15014,0.024857,2589.207,306.136,25,
1583,1,SBT2050,2,3,,2,22361,4.15011,0.02464,2589.613,306.136,25,
1583,1,SBT2050,2,3,,2,22420,4.14999,0.024295,2590.014,306.136,25,
1583,1,SBT2050,2,3,,2,22479,4.15012,0.023978,2590.414,306.136,25,
1583,1,SBT2050,2,3,,2,22538,4.15008,0.02411,2590.805,306.136,25,
1583,1,SBT2050,2,3,,2,22597,4.14985,0.023379,2591.194,306.136,24.9,
1583,1,SBT2050,2,3,,2,22656,4.15005,0.023081,2591.575,306.136,25,
1583,1,SBT2050,2,3,,2,22715,4.150228,0.023181,2591.956,306.136,25,
1583,1,SBT2050,2,3,,2,22774,4.149918,0.023314,2592.334,306.136,25,
1583,1,SBT2050,2,3,,2,22833,4.149882,0.022894,2592.71,306.136,25,
1583,1,SBT2050,2,3,,2,22892,4.14998,0.022867,2593.082,306.136,25,
1583,1,SBT2050,2,3,,2,22951,4.15003,0.022252,2593.45,306.136,25,
1583,1,SBT2050,2,3,,2,23010,4.15014,0.021994,2593.815,306.136,25,
1583,1,SBT2050,2,3,,2,23069,4.14974,0.022188,2594.176,306.136,25,
1583,1,SBT2050,2,3,,2,23128,4.14993,0.021734,2594.534,306.136,25,
1583,1,SBT2050,2,3,,2,23187,4.15016,0.021753,2594.889,306.136,25,
1583,1,SBT2050,2,3,,2,23246,4.15007,0.021552,2595.243,306.136,25,
1583,1,SBT2050,2,3,,2,23305,4.15006,0.0216,2595.595,306.136,25,
1583,1,SBT2050,2,3,,2,23364,4.14998,0.0212,2595.944,306.136,25,
1583,1,SBT2050,2,3,,2,23423,4.15028,0.020641,2596.289,306.136,25,
1583,1,SBT2050,2,3,,2,23482,4.15008,0.020815,2596.629,306.136,25.1,
1583,1,SBT2050,2,3,,2,23541,4.150204,0.020571,2596.969,306.136,25,
1583,1,SBT2050,2,3,,2,23600,4.14982,0.020509,2597.306,306.136,25,
1583,1,SBT2050,2,3,,2,23659,4.15003,0.02052,2597.642,306.136,25,
1583,1,SBT2050,2,3,,2,23718,4.14994,0.020318,2597.973,306.136,25,
1583,1,SBT2050,2,3,,2,23777,4.14985,0.02013,2598.303,306.136,25,
1583,1,SBT2050,2,3,,2,23836,4.15016,0.019794,2598.629,306.136,25,
1583,1,SBT2050,2,3,,2,23895,4.14997,0.01948,2598.951,306.136,25,
1583,1,SBT2050,2,3,,2,23954,4.15003,0.019448,2599.271,306.136,25,
1583,1,SBT2050,2,3,,2,24013,4.15012,0.019075,2599.588,306.136,25,
1583,1,SBT2050,2,3,,2,24072,4.14999,0.019733,2599.907,306.136,25,
1583,1,SBT2050,2,3,,2,24131,4.15008,0.019021,2600.224,306.136,25,
1583,1,SBT2050,2,3,,2,24190,4.150216,0.0189,2600.532,306.136,25,
1583,1,SBT2050,2,3,,2,24249,4.14976,0.018841,2600.843,306.136,25,
1583,1,SBT2050,2,3,,2,24308,4.14977,0.018489,2601.15,306.136,25,
1583,1,SBT2050,2,3,,2,24367,4.1501,0.018691,2601.451,306.136,25,
1583,1,SBT2050,2,3,,2,24426,4.149906,0.018294,2601.752,306.136,25,
1583,1,SBT2050,2,3,,2,24485,4.149882,0.018304,2602.053,306.136,25,
1583,1,SBT2050,2,3,,2,24544,4.15004,0.017795,2602.348,306.136,25,
1583,1,SBT2050,2,3,,2,24603,4.1498,0.01795,2602.639,306.136,25,
1583,1,SBT2050,2,3,,2,24662,4.1498,0.018101,2602.931,306.136,25,
1583,1,SBT2050,2,3,,2,24721,4.150192,0.017139,2603.217,306.136,25,
1583,1,SBT2050,2,3,,2,24780,4.1501,0.017255,2603.501,306.136,25,
1583,1,SBT2050,2,3,,2,24839,4.15005,0.017278,2603.784,306.136,25,
1583,1,SBT2050,2,3,,2,24898,4.15003,0.017086,2604.065,306.136,25.1,
1583,1,SBT2050,2,3,,2,24957,4.15004,0.016778,2604.344,306.136,25,
1583,1,SBT2050,2,3,,2,25016,4.14999,0.016908,2604.621,306.136,25,
1583,1,SBT2050,2,3,,2,25075,4.149906,0.016837,2604.897,306.136,25,
1583,1,SBT2050,2,3,,2,25134,4.15,0.016858,2605.172,306.136,25.1,
1583,1,SBT2050,2,3,,2,25193,4.149906,0.016784,2605.446,306.136,25,
1583,1,SBT2050,2,3,,2,25252,4.149918,0.016339,2605.717,306.136,25.1,
1583,1,SBT2050,2,3,,2,25311,4.15,0.016216,2605.984,306.136,25,
1583,1,SBT2050,2,3,,2,25370,4.149882,0.015949,2606.247,306.136,25,
1583,1,SBT2050,2,3,,2,25429,4.15014,0.015837,2606.508,306.136,25.1,
1583,1,SBT2050,2,3,,2,25488,4.14982,0.016205,2606.768,306.136,25.1,
1583,1,SBT2050,2,3,,2,25547,4.1501,0.015795,2607.03,306.136,25.1,
1583,1,SBT2050,2,3,,2,25606,4.15014,0.015425,2607.286,306.136,25.1,
1583,1,SBT2050,2,3,,2,25665,4.149882,0.015729,2607.54,306.136,25.1,
1583,1,SBT2050,2,3,,2,25724,4.15007,0.015163,2607.796,306.136,25,
1583,1,SBT2050,2,3,,2,25783,4.149906,0.015491,2608.048,306.136,25.1,
1583,1,SBT2050,2,3,,2,25842,4.14994,0.015305,2608.298,306.136,25.1,
1583,1,SBT2050,2,3,,2,25901,4.15013,0.015066,2608.548,306.136,25,
1583,1,SBT2050,2,3,,2,25960,4.149918,0.015091,2608.793,306.136,25,
1583,1,SBT2050,2,3,,2,26019,4.14976,0.014929,2609.036,306.136,25,
1583,1,SBT2050,2,3,,2,26078,4.15004,0.014661,2609.279,306.136,25,
1583,1,SBT2050,2,3,,2,26137,4.14981,0.014831,2609.519,306.136,25,
1583,1,SBT2050,2,3,,2,26196,4.14982,0.014363,2609.76,306.136,25,
1583,1,SBT2050,2,3,,2,26255,4.149894,0.014131,2609.996,306.136,25,
1583,1,SBT2050,2,3,,2,26314,4.15006,0.01432,2610.232,306.136,25,
1583,1,SBT2050,2,3,,2,26373,4.14998,0.014034,2610.463,306.136,25,
1583,1,SBT2050,2,3,,2,26432,4.1501,0.014096,2610.692,306.136,25,
1583,1,SBT2050,2,3,,2,26491,4.14981,0.014349,2610.922,306.136,25,
1583,1,SBT2050,2,3,,2,26550,4.14999,0.013668,2611.151,306.136,25,
1583,1,SBT2050,2,3,,2,26609,4.14997,0.013893,2611.377,306.136,25,
1583,1,SBT2050,2,3,,2,26668,4.15006,0.013626,2611.604,306.136,25,
1583,1,SBT2050,2,3,,2,26727,4.15016,0.013438,2611.829,306.136,25,
1583,1,SBT2050,2,3,,2,26786,4.149906,0.013629,2612.053,306.136,25,
1583,1,SBT2050,2,3,,2,26845,4.15012,0.013421,2612.272,306.136,25,
1583,1,SBT2050,2,3,,2,26904,4.15005,0.012967,2612.495,306.136,25,
1583,1,SBT2050,2,3,,2,26963,4.14963,0.013205,2612.709,306.136,25,
1583,1,SBT2050,2,3,,2,27022,4.14986,0.012908,2612.921,306.136,25,
1583,1,SBT2050,2,3,,2,27081,4.14982,0.012983,2613.133,306.136,25,
1583,1,SBT2050,2,3,,2,27140,4.15003,0.012932,2613.341,306.136,25,
1583,1,SBT2050,2,3,,2,27199,4.14987,0.012968,2613.552,306.136,24.9,
1583,1,SBT2050,2,3,,2,27258,4.149882,0.012933,2613.761,306.136,25,
1583,1,SBT2050,2,3,,2,27317,4.14998,0.012833,2613.972,306.136,25,
1583,1,SBT2050,2,3,,2,27376,4.150228,0.012147,2614.18,306.136,25,
1583,1,SBT2050,2,3,,2,27435,4.15011,0.012426,2614.386,306.136,25,
1583,1,SBT2050,2,3,,2,27494,4.15011,0.012188,2614.592,306.136,25,
1583,1,SBT2050,2,3,,2,27553,4.15004,0.012467,2614.792,306.136,24.9,
1583,1,SBT2050,2,3,,2,27612,4.1501,0.011974,2614.993,306.136,25,
1583,1,SBT2050,2,3,,2,27671,4.14995,0.012624,2615.195,306.136,25,
1583,1,SBT2050,2,3,,2,27730,4.15008,0.012205,2615.396,306.136,25,
1583,1,SBT2050,2,3,,2,27789,4.14995,0.012258,2615.597,306.136,25,
1583,1,SBT2050,2,3,,2,27848,4.15,0.012103,2615.795,306.136,25,
1583,1,SBT2050,2,3,,2,27907,4.149894,0.011939,2615.994,306.136,25,
1583,1,SBT2050,2,3,,2,27966,4.15012,0.011829,2616.189,306.136,25,
1583,1,SBT2050,2,3,,2,28025,4.15024,0.011551,2616.383,306.136,25,
1583,1,SBT2050,2,3,,2,28084,4.15003,0.011374,2616.576,306.136,25,
1583,1,SBT2050,2,3,,2,28143,4.15029,0.011188,2616.767,306.136,25,
1583,1,SBT2050,2,3,,2,28202,4.15031,0.011436,2616.956,306.136,25,
1583,1,SBT2050,2,3,,2,28261,4.15008,0.011265,2617.144,306.136,25,
1583,1,SBT2050,2,3,,2,28320,4.15006,0.011324,2617.331,306.136,25,
1583,1,SBT2050,2,3,,2,28379,4.15012,0.011286,2617.517,306.136,25,
1583,1,SBT2050,2,3,,2,28438,4.15003,0.011354,2617.701,306.136,25,
1583,1,SBT2050,2,3,,2,28497,4.15001,0.010957,2617.887,306.136,25,
1583,1,SBT2050,2,3,,2,28556,4.15003,0.010983,2618.07,306.136,25,
1583,1,SBT2050,2,3,,2,28615,4.14986,0.011263,2618.252,306.136,25,
1583,1,SBT2050,2,3,,2,28674,4.14974,0.01085,2618.433,306.136,25,
1583,1,SBT2050,2,3,,2,28733,4.14999,0.010995,2618.612,306.136,25,
1583,1,SBT2050,2,3,,2,28792,4.15024,0.010621,2618.793,306.136,25,
1583,1,SBT2050,2,3,,2,28851,4.14997,0.010707,2618.97,306.136,25,
1583,1,SBT2050,2,3,,2,28910,4.150228,0.010586,2619.144,306.136,25,
1583,1,SBT2050,2,3,,2,28969,4.14985,0.010686,2619.319,306.136,25,
1583,1,SBT2050,2,3,,2,29028,4.14979,0.010848,2619.496,306.136,25,
1583,1,SBT2050,2,3,,2,29087,4.15008,0.01035,2619.669,306.136,25,
1583,1,SBT2050,2,3,,3,29145,4.148566,0,2619.753,306.136,25.1,
1583,1,SBT2050,2,3,,3,29204,4.14772,0,2619.753,306.136,25,
1583,1,SBT2050,2,3,,3,29263,4.14744,0,2619.753,306.136,25,
1583,1,SBT2050,2,3,,3,29322,4.14718,0,2619.753,306.136,25,
1583,1,SBT2050,2,3,,3,29381,4.14651,0,2619.753,306.136,25.1,
1583,1,SBT2050,2,3,,3,29440,4.14625,0,2619.753,306.136,25,
1583,1,SBT2050,2,3,,3,29499,4.14587,0,2619.753,306.136,25,
1583,1,SBT2050,2,3,,3,29558,4.146128,0,2619.753,306.136,25,
1583,1,SBT2050,2,3,,3,29617,4.14554,0,2619.753,306.136,25,
1583,1,SBT2050,2,3,,3,29676,4.14571,0,2619.753,306.136,25,
1583,1,SBT2050,2,3,,3,29735,4.145344,0,2619.753,306.136,25,
1583,1,SBT2050,2,3,,3,29794,4.14539,0,2619.753,306.136,25,
1583,1,SBT2050,2,3,,3,29853,4.14504,0,2619.753,306.136,25,
1583,1,SBT2050,2,3,,3,29912,4.14491,0,2619.753,306.136,25.1,
1583,1,SBT2050,2,3,,3,29971,4.14499,0,2619.753,306.136,25,
1583,1,SBT2050,2,3,,3,30030,4.14479,0,2619.753,306.136,25,
1583,1,SBT2050,2,3,,3,30089,4.14463,0,2619.753,306.136,25,
1583,1,SBT2050,2,3,,3,30148,4.14427,0,2619.753,306.136,25,
1583,1,SBT2050,2,3,,3,30207,4.1442,0,2619.753,306.136,25,
1583,1,SBT2050,2,3,,3,30266,4.14429,0,2619.753,306.136,25,
1583,1,SBT2050,2,3,,3,30325,4.14427,0,2619.753,306.136,25,
1583,1,SBT2050,2,3,,3,30384,4.14402,0,2619.753,306.136,25,
1583,1,SBT2050,2,3,,3,30443,4.1436,0,2619.753,306.136,25,
1583,1,SBT2050,2,3,,3,30502,4.14379,0,2619.753,306.136,25,
1583,1,SBT2050,2,3,,3,30561,4.14373,0,2619.753,306.136,25,
1583,1,SBT2050,2,3,,3,30620,4.14327,0,2619.753,306.136,25,
1583,1,SBT2050,2,3,,3,30679,4.143452,0,2619.753,306.136,25,
1583,1,SBT2050,2,3,,3,30738,4.143122,0,2619.753,306.136,25,
1583,1,SBT2050,2,3,,3,30797,4.143346,0,2619.753,306.136,25,
1583,1,SBT2050,2,3,,3,30856,4.14333,0,2619.753,306.136,25,
1583,1,SBT2050,2,3,,3,30915,4.142972,0,2619.753,306.136,25,
1583,1,SBT2050,2,3,,4,30973,3.74634,-2.9359,2619.753,352.478,25.9,
1583,1,SBT2050,2,3,,4,31032,3.72118,-2.9359,2619.753,400.595,26.8,
1583,1,SBT2050,2,3,,4,31091,3.70945,-2.9354,2619.753,448.712,27.6,
1583,1,SBT2050,2,3,,4,31150,3.70094,-2.9361,2619.753,496.829,28.3,
1583,1,SBT2050,2,3,,4,31209,3.692062,-2.9361,2619.753,544.947,28.8,
1583,1,SBT2050,2,3,,4,31268,3.682452,-2.9362,2619.753,593.064,29.1,
1583,1,SBT2050,2,3,,4,31327,3.67157,-2.9358,2619.753,641.181,29.4,
1583,1,SBT2050,2,3,,4,31386,3.65942,-2.9358,2619.753,689.298,29.6,
1583,1,SBT2050,2,3,,4,31445,3.64583,-2.9359,2619.753,737.415,29.6,
1583,1,SBT2050,2,3,,4,31504,3.63178,-2.9359,2619.753,785.532,29.7,
1583,1,SBT2050,2,3,,4,31563,3.61706,-2.9363,2619.753,833.649,29.8,
1583,1,SBT2050,2,3,,4,31622,3.60101,-2.9359,2619.753,881.766,29.9,
1583,1,SBT2050,2,3,,4,31681,3.58514,-2.9361,2619.753,929.883,29.9,
1583,1,SBT2050,2,3,,4,31740,3.56864,-2.936,2619.753,978.001,29.9,
1583,1,SBT2050,2,3,,4,31799,3.551866,-2.9361,2619.753,1026.118,29.9,
1583,1,SBT2050,2,3,,4,31858,3.53508,-2.9358,2619.753,1074.235,30,
1583,1,SBT2050,2,3,,4,31917,3.517756,-2.9356,2619.753,1122.352,29.9,
1583,1,SBT2050,2,3,,4,31976,3.50019,-2.9358,2619.753,1170.469,29.9,
1583,1,SBT2050,2,3,,4,32035,3.4827,-2.9357,2619.753,1218.586,30,
1583,1,SBT2050,2,3,,4,32094,3.465338,-2.9358,2619.753,1266.703,30,
1583,1,SBT2050,2,3,,4,32153,3.447198,-2.9359,2619.753,1314.82,30,
1583,1,SBT2050,2,3,,4,32212,3.42914,-2.9357,2619.753,1362.937,30,
1583,1,SBT2050,2,3,,4,32271,3.41152,-2.9357,2619.753,1411.054,30,
1583,1,SBT2050,2,3,,4,32330,3.393564,-2.9358,2619.753,1459.171,30.1,
1583,1,SBT2050,2,3,,4,32389,3.37553,-2.9361,2619.753,1507.288,30.1,
1583,1,SBT2050,2,3,,4,32448,3.3571,-2.9359,2619.753,1555.405,30.1,
1583,1,SBT2050,2,3,,4,32507,3.339245,-2.936,2619.753,1603.522,30.2,
1583,1,SBT2050,2,3,,4,32566,3.32047,-2.9357,2619.753,1651.639,30.2,
1583,1,SBT2050,2,3,,4,32625,3.301754,-2.9359,2619.753,1699.756,30.3,
1583,1,SBT2050,2,3,,4,32684,3.28229,-2.9362,2619.753,1747.873,30.3,
1583,1,SBT2050,2,3,,4,32743,3.26252,-2.9358,2619.753,1795.991,30.4,
1583,1,SBT2050,2,3,,4,32802,3.241834,-2.9355,2619.753,1844.108,30.5,
1583,1,SBT2050,2,3,,4,32861,3.220867,-2.936,2619.753,1892.225,30.6,
1583,1,SBT2050,2,3,,4,32920,3.1988,-2.9358,2619.753,1940.342,30.8,
1583,1,SBT2050,2,3,,4,32979,3.17452,-2.9359,2619.753,1988.459,30.9,
1583,1,SBT2050,2,3,,4,33038,3.14959,-2.936,2619.753,2036.576,31.1,
1583,1,SBT2050,2,3,,4,33097,3.122525,-2.9362,2619.753,2084.694,31.3,
1583,1,SBT2050,2,3,,4,33156,3.09378,-2.9362,2619.753,2132.811,31.5,
1583,1,SBT2050,2,3,,4,33215,3.06188,-2.936,2619.753,2180.928,31.7,
1583,1,SBT2050,2,3,,4,33274,3.02671,-2.9358,2619.753,2229.045,32,
1583,1,SBT2050,2,3,,4,33333,2.98763,-2.9365,2619.753,2277.162,32.3,
1583,1,SBT2050,2,3,,4,33392,2.943272,-2.9358,2619.753,2325.279,32.7,
1583,1,SBT2050,2,3,,4,33451,2.89142,-2.9366,2619.753,2373.396,33.1,
1583,1,SBT2050,2,3,,4,33510,2.82914,-2.9359,2619.753,2421.513,33.5,
1583,1,SBT2050,2,3,,4,33569,2.74808,-2.9357,2619.753,2469.63,34,
1583,1,SBT2050,2,3,,4,33628,2.631831,-2.9357,2619.753,2517.747,34.7,
1583,1,SBT2050,2,3,,4,33687,2.49963,-2.6276,2619.753,2565.085,35.6,
1583,1,SBT2050,2,3,,4,33746,2.49963,-2.0337,2619.753,2602.897,36.1,
1583,1,SBT2050,2,3,,4,33805,2.499609,-1.6106,2619.753,2632.611,35.9,
1583,1,SBT2050,2,3,,4,33864,2.499752,-1.2874,2619.753,2656.259,35.2,
1583,1,SBT2050,2,3,,4,33923,2.49973,-1.0438,2619.753,2675.277,34.4,
1583,1,SBT2050,2,3,,4,33982,2.4998,-0.8611,2619.753,2690.82,33.5,
1583,1,SBT2050,2,3,,4,34041,2.49966,-0.7231,2619.753,2703.746,32.6,
1583,1,SBT2050,2,3,,4,34100,2.499931,-0.6179,2619.753,2714.694,31.7,
1583,1,SBT2050,2,3,,4,34159,2.49998,-0.5376,2619.753,2724.131,31,
1583,1,SBT2050,2,3,,4,34218,2.49997,-0.47511,2619.753,2732.411,30.2,
1583,1,SBT2050,2,3,,4,34277,2.49978,-0.42877,2619.753,2739.807,29.6,
1583,1,SBT2050,2,3,,4,34336,2.49981,-0.39268,2619.753,2746.528,29.1,
1583,1,SBT2050,2,3,,4,34395,2.499931,-0.36369,2619.753,2752.719,28.6,
1583,1,SBT2050,2,3,,4,34454,2.4999,-0.33917,2619.753,2758.473,28.3,
1583,1,SBT2050,2,3,,4,34513,2.49997,-0.31856,2619.753,2763.859,27.9,
1583,1,SBT2050,2,3,,4,34572,2.50001,-0.30138,2619.753,2768.933,27.7,
1583,1,SBT2050,2,3,,4,34631,2.499919,-0.28556,2619.753,2773.737,27.4,
1583,1,SBT2050,2,3,,4,34690,2.49994,-0.27145,2619.753,2778.301,27.2,
1583,1,SBT2050,2,3,,4,34749,2.49982,-0.25958,2619.753,2782.652,27.1,
1583,1,SBT2050,2,3,,4,34808,2.49997,-0.24814,2619.753,2786.808,26.9,
1583,1,SBT2050,2,3,,4,34867,2.50001,-0.2378,2619.753,2790.787,26.8,
1583,1,SBT2050,2,3,,4,34926,2.499931,-0.22823,2619.753,2794.605,26.7,
1583,1,SBT2050,2,3,,4,34985,2.499907,-0.21974,2619.753,2798.275,26.6,
1583,1,SBT2050,2,3,,4,35044,2.500062,-0.21129,2619.753,2801.806,26.5,
1583,1,SBT2050,2,3,,4,35103,2.5001,-0.2034,2619.753,2805.203,26.4,
1583,1,SBT2050,2,3,,4,35162,2.499931,-0.19583,2619.753,2808.471,26.4,
1583,1,SBT2050,2,3,,4,35221,2.499907,-0.18872,2619.753,2811.622,26.3,
1583,1,SBT2050,2,3,,4,35280,2.49984,-0.18194,2619.753,2814.66,26.2,
1583,1,SBT2050,2,3,,4,35339,2.50004,-0.17533,2619.753,2817.587,26.2,
1583,1,SBT2050,2,3,,4,35398,2.49987,-0.16884,2619.753,2820.406,26.1,
1583,1,SBT2050,2,3,,4,35457,2.5,-0.16301,2619.753,2823.124,26.1,
1583,1,SBT2050,2,3,,4,35516,2.49994,-0.1571,2619.753,2825.746,26,
1583,1,SBT2050,2,3,,4,35575,2.499752,-0.15135,2619.753,2828.274,26,
1583,1,SBT2050,2,3,,4,35634,2.50001,-0.14627,2619.753,2830.713,26,
1583,1,SBT2050,2,3,,4,35693,2.49999,-0.14145,2619.753,2833.07,25.9,
1583,1,SBT2050,2,3,,4,35752,2.49998,-0.13703,2619.753,2835.35,25.9,
1583,1,SBT2050,2,3,,4,35811,2.500062,-0.13261,2619.753,2837.559,25.9,
1583,1,SBT2050,2,3,,4,35870,2.500074,-0.12854,2619.753,2839.699,25.8,
1583,1,SBT2050,2,3,,4,35929,2.5,-0.12464,2619.753,2841.773,25.8,
1583,1,SBT2050,2,3,,4,35988,2.499907,-0.12099,2619.753,2843.787,25.8,
1583,1,SBT2050,2,3,,4,36047,2.50012,-0.11774,2619.753,2845.744,25.7,
1583,1,SBT2050,2,3,,4,36106,2.499931,-0.11409,2619.753,2847.644,25.7,
1583,1,SBT2050,2,3,,4,36165,2.5,-0.11075,2619.753,2849.487,25.7,
1583,1,SBT2050,2,3,,4,36224,2.49995,-0.10761,2619.753,2851.276,25.6,
1583,1,SBT2050,2,3,,4,36283,2.50001,-0.10437,2619.753,2853.014,25.6,
1583,1,SBT2050,2,3,,4,36342,2.49997,-0.10151,2619.753,2854.702,25.7,
1583,1,SBT2050,2,3,,4,36401,2.49995,-0.09845,2619.753,2856.341,25.6,
1583,1,SBT2050,2,3,,4,36460,2.49998,-0.09527,2619.753,2857.929,25.6,
1583,1,SBT2050,2,3,,4,36519,2.49988,-0.09237,2619.753,2859.467,25.5,
1583,1,SBT2050,2,3,,4,36578,2.500086,-0.08987,2619.753,2860.959,25.6,
1583,1,SBT2050,2,3,,4,36637,2.500062,-0.08732,2619.753,2862.41,25.6,
1583,1,SBT2050,2,3,,4,36696,2.499919,-0.08467,2619.753,2863.819,25.5,
1583,1,SBT2050,2,3,,4,36755,2.500086,-0.08207,2619.753,2865.185,25.5,
1583,1,SBT2050,2,3,,4,36814,2.49995,-0.07974,2619.753,2866.51,25.5,
1583,1,SBT2050,2,3,,4,36873,2.49997,-0.07743,2619.753,2867.798,25.5,
1583,1,SBT2050,2,3,,4,36932,2.50003,-0.07516,2619.753,2869.047,25.5,
1583,1,SBT2050,2,3,,4,36991,2.500062,-0.07314,2619.753,2870.261,25.4,
1583,1,SBT2050,2,3,,4,37050,2.49997,-0.07112,2619.753,2871.442,25.5,
1583,1,SBT2050,2,3,,4,37109,2.49987,-0.0693,2619.753,2872.593,25.4,
1583,1,SBT2050,2,3,,4,37168,2.5001,-0.06765,2619.753,2873.714,25.4,
1583,1,SBT2050,2,3,,4,37227,2.500086,-0.06575,2619.753,2874.805,25.4,
1583,1,SBT2050,2,3,,4,37286,2.49985,-0.06407,2619.753,2875.869,25.4,
1583,1,SBT2050,2,3,,4,37345,2.49997,-0.06243,2619.753,2876.907,25.4,
1583,1,SBT2050,2,3,,4,37404,2.50004,-0.06108,2619.753,2877.92,25.4,
1583,1,SBT2050,2,3,,4,37463,2.49997,-0.05976,2619.753,2878.911,25.4,
1583,1,SBT2050,2,3,,4,37522,2.4998,-0.05841,2619.753,2879.88,25.4,
1583,1,SBT2050,2,3,,4,37581,2.50012,-0.05735,2619.753,2880.829,25.3,
1583,1,SBT2050,2,3,,4,37640,2.50005,-0.05609,2619.753,2881.758,25.3,
1583,1,SBT2050,2,3,,4,37699,2.50001,-0.05494,2619.753,2882.667,25.4,
1583,1,SBT2050,2,3,,4,37758,2.499931,-0.05382,2619.753,2883.559,25.3,
1583,1,SBT2050,2,3,,4,37817,2.499931,-0.05279,2619.753,2884.433,25.3,
1583,1,SBT2050,2,3,,4,37876,2.49998,-0.05156,2619.753,2885.289,25.3,
1583,1,SBT2050,2,3,,4,37935,2.49981,-0.05034,2619.753,2886.127,25.3,
1583,1,SBT2050,2,3,,4,37994,2.50001,-0.04963,2619.753,2886.949,25.3,
1583,1,SBT2050,2,3,,4,38053,2.50001,-0.04869,2619.753,2887.754,25.3,
1583,1,SBT2050,2,3,,4,38112,2.499919,-0.04774,2619.753,2888.544,25.3,
1583,1,SBT2050,2,3,,4,38171,2.49995,-0.046888,2619.753,2889.321,25.3,
1583,1,SBT2050,2,3,,4,38230,2.499931,-0.046043,2619.753,2890.083,25.3,
1583,1,SBT2050,2,3,,4,38289,2.499907,-0.045192,2619.753,2890.831,25.3,
1583,1,SBT2050,2,3,,4,38348,2.49985,-0.044442,2619.753,2891.566,25.3,
1583,1,SBT2050,2,3,,4,38407,2.49999,-0.043671,2619.753,2892.287,25.3,
1583,1,SBT2050,2,3,,4,38466,2.50003,-0.042877,2619.753,2892.995,25.3,
1583,1,SBT2050,2,3,,4,38525,2.50003,-0.041958,2619.753,2893.69,25.2,
1583,1,SBT2050,2,3,,4,38584,2.49987,-0.041244,2619.753,2894.373,25.2,
1583,1,SBT2050,2,3,,4,38643,2.499919,-0.040588,2619.753,2895.043,25.3,
1583,1,SBT2050,2,3,,4,38702,2.49999,-0.039703,2619.753,2895.701,25.3,
1583,1,SBT2050,2,3,,4,38761,2.50001,-0.039092,2619.753,2896.347,25.3,
1583,1,SBT2050,2,3,,4,38820,2.5001,-0.038435,2619.753,2896.981,25.3,
1583,1,SBT2050,2,3,,4,38879,2.50001,-0.037625,2619.753,2897.603,25.3,
1583,1,SBT2050,2,3,,4,38938,2.49994,-0.037084,2619.753,2898.216,25.2,
1583,1,SBT2050,2,3,,4,38997,2.49999,-0.03637,2619.753,2898.817,25.2,
1583,1,SBT2050,2,3,,4,39056,2.500062,-0.035754,2619.753,2899.408,25.3,
1583,1,SBT2050,2,3,,4,39115,2.50013,-0.035249,2619.753,2899.989,25.3,
1583,1,SBT2050,2,3,,4,39174,2.50003,-0.034518,2619.753,2900.559,25.2,
1583,1,SBT2050,2,3,,4,39233,2.49998,-0.034117,2619.753,2901.12,25.2,
1583,1,SBT2050,2,3,,4,39292,2.50004,-0.033268,2619.753,2901.67,25.2,
1583,1,SBT2050,2,3,,4,39351,2.49997,-0.032674,2619.753,2902.21,25.2,
1583,1,SBT2050,2,3,,4,39410,2.49999,-0.032104,2619.753,2902.741,25.3,
1583,1,SBT2050,2,3,,4,39469,2.5,-0.031493,2619.753,2903.261,25.2,
1583,1,SBT2050,2,3,,4,39528,2.499919,-0.03071,2619.753,2903.773,25.3,
1583,1,SBT2050,2,3,,4,39587,2.50005,-0.030401,2619.753,2904.274,25.2,
1583,1,SBT2050,2,3,,4,39646,2.50012,-0.029857,2619.753,2904.767,25.2,
1583,1,SBT2050,2,3,,4,39705,2.50017,-0.029417,2619.753,2905.25,25.2,
1583,1,SBT2050,2,3,,4,39764,2.49981,-0.028653,2619.753,2905.725,25.2,
1583,1,SBT2050,2,3,,4,39823,2.49995,-0.028238,2619.753,2906.19,25.2,
1583,1,SBT2050,2,3,,4,39882,2.49988,-0.027568,2619.753,2906.647,25.2,
1583,1,SBT2050,2,3,,4,39941,2.50001,-0.027089,2619.753,2907.095,25.2,
1583,1,SBT2050,2,3,,4,40000,2.49998,-0.026413,2619.753,2907.534,25.1,
1583,1,SBT2050,2,3,,4,40059,2.499931,-0.025931,2619.753,2907.964,25.1,
1583,1,SBT2050,2,3,,4,40118,2.50004,-0.025404,2619.753,2908.386,25.1,
1583,1,SBT2050,2,3,,4,40177,2.50004,-0.025002,2619.753,2908.8,25.2,
1583,1,SBT2050,2,3,,4,40236,2.499907,-0.024425,2619.753,2909.206,25.1,
1583,1,SBT2050,2,3,,4,40295,2.500062,-0.024029,2619.753,2909.603,25.1,
1583,1,SBT2050,2,3,,4,40354,2.50017,-0.023591,2619.753,2909.993,25.1,
1583,1,SBT2050,2,3,,4,40413,2.4999,-0.023079,2619.753,2910.376,25.1,
1583,1,SBT2050,2,3,,4,40472,2.50005,-0.022647,2619.753,2910.751,25.1,
1583,1,SBT2050,2,3,,4,40531,2.50021,-0.02232,2619.753,2911.118,25.1,
1583,1,SBT2050,2,3,,4,40590,2.499931,-0.021768,2619.753,2911.479,25.1,
1583,1,SBT2050,2,3,,4,40649,2.49998,-0.021258,2619.753,2911.833,25.1,
1583,1,SBT2050,2,3,,4,40708,2.50015,-0.020841,2619.753,2912.179,25.1,
1583,1,SBT2050,2,3,,4,40767,2.50012,-0.020524,2619.753,2912.518,25.1,
1583,1,SBT2050,2,3,,4,40826,2.50012,-0.019972,2619.753,2912.85,25.1,
1583,1,SBT2050,2,3,,4,40885,2.5001,-0.019753,2619.753,2913.175,25.1,
1583,1,SBT2050,2,3,,4,40944,2.50004,-0.019263,2619.753,2913.494,25.1,
1583,1,SBT2050,2,3,,4,41003,2.4999,-0.018921,2619.753,2913.806,25.1,
1583,1,SBT2050,2,3,,4,41062,2.49981,-0.018455,2619.753,2914.113,25.1,
1583,1,SBT2050,2,3,,4,41121,2.5,-0.018087,2619.753,2914.414,25.1,
1583,1,SBT2050,2,3,,4,41180,2.49999,-0.017939,2619.753,2914.71,25.1,
1583,1,SBT2050,2,3,,4,41239,2.49997,-0.017525,2619.753,2915,25.1,
1583,1,SBT2050,2,3,,4,41298,2.500074,-0.017116,2619.753,2915.284,25.1,
1583,1,SBT2050,2,3,,4,41357,2.50015,-0.01695,2619.753,2915.564,25.1,
1583,1,SBT2050,2,3,,4,41416,2.4999,-0.016616,2619.753,2915.838,25.1,
1583,1,SBT2050,2,3,,4,41475,2.49986,-0.016229,2619.753,2916.108,25.1,
1583,1,SBT2050,2,3,,4,41534,2.49986,-0.016159,2619.753,2916.373,25.1,
1583,1,SBT2050,2,3,,4,41593,2.500074,-0.015796,2619.753,2916.634,25.1,
1583,1,SBT2050,2,3,,4,41652,2.500074,-0.015586,2619.753,2916.891,25.1,
1583,1,SBT2050,2,3,,4,41711,2.50005,-0.015462,2619.753,2917.143,25.1,
1583,1,SBT2050,2,3,,4,41770,2.5,-0.015036,2619.753,2917.392,25.1,
1583,1,SBT2050,2,3,,4,41829,2.50005,-0.014779,2619.753,2917.637,25.1,
1583,1,SBT2050,2,3,,4,41888,2.50019,-0.014791,2619.753,2917.879,25.1,
1583,1,SBT2050,2,3,,4,41947,2.5,-0.014444,2619.753,2918.117,25.1,
1583,1,SBT2050,2,3,,4,42006,2.499919,-0.014065,2619.753,2918.352,25.1,
1583,1,SBT2050,2,3,,4,42065,2.500086,-0.014032,2619.753,2918.584,25.1,
1583,1,SBT2050,2,3,,4,42124,2.499931,-0.013865,2619.753,2918.812,25.1,
1583,1,SBT2050,2,3,,4,42183,2.49994,-0.013574,2619.753,2919.038,25.1,
1583,1,SBT2050,2,3,,4,42242,2.500062,-0.013647,2619.753,2919.26,25.1,
1583,1,SBT2050,2,3,,4,42301,2.500086,-0.013322,2619.753,2919.479,25.1,
1583,1,SBT2050,2,3,,4,42360,2.50012,-0.013187,2619.753,2919.696,25.1,
1583,1,SBT2050,2,3,,4,42419,2.49985,-0.012915,2619.753,2919.91,25.1,
1583,1,SBT2050,2,3,,4,42478,2.50011,-0.012758,2619.753,2920.12,25,
1583,1,SBT2050,2,3,,4,42537,2.49988,-0.012401,2619.753,2920.329,25.1,
1583,1,SBT2050,2,3,,4,42596,2.5001,-0.012577,2619.753,2920.534,25.1,
1583,1,SBT2050,2,3,,4,42655,2.50012,-0.012252,2619.753,2920.736,25.1,
1583,1,SBT2050,2,3,,4,42714,2.499907,-0.012048,2619.753,2920.935,25.1,
1583,1,SBT2050,2,3,,4,42773,2.500086,-0.011843,2619.753,2921.131,25,
1583,1,SBT2050,2,3,,4,42832,2.50005,-0.011664,2619.753,2921.324,25.1,
1583,1,SBT2050,2,3,,4,42891,2.49999,-0.011657,2619.753,2921.515,25.1,
1583,1,SBT2050,2,3,,4,42950,2.49994,-0.011244,2619.753,2921.702,25.1,
1583,1,SBT2050,2,3,,4,43009,2.49987,-0.011038,2619.753,2921.887,25,
1583,1,SBT2050,2,3,,4,43068,2.49999,-0.011032,2619.753,2922.069,25,
1583,1,SBT2050,2,3,,4,43127,2.49987,-0.010835,2619.753,2922.249,25,
1583,1,SBT2050,2,3,,4,43186,2.50011,-0.010769,2619.753,2922.425,25,
1583,1,SBT2050,2,3,,4,43245,2.49997,-0.010511,2619.753,2922.6,25,
1583,1,SBT2050,2,3,,4,43304,2.50004,-0.010437,2619.753,2922.772,25,
1583,1,SBT2050,2,3,,4,43363,2.5,-0.010187,2619.753,2922.941,25,
1583,1,SBT2050,2,3,,5,43421,2.53135,0,2619.753,2922.982,25,
1583,1,SBT2050,2,3,,5,43480,2.5614,0,2619.753,2922.982,25,
1583,1,SBT2050,2,3,,5,43539,2.58699,0,2619.753,2922.982,25,
1583,1,SBT2050,2,3,,5,43598,2.60975,0,2619.753,2922.982,25,
1583,1,SBT2050,2,3,,5,43657,2.62996,0,2619.753,2922.982,25,
1583,1,SBT2050,2,3,,5,43716,2.64725,0,2619.753,2922.982,25,
1583,1,SBT2050,2,3,,5,43775,2.663,0,2619.753,2922.982,25,
1583,1,SBT2050,2,3,,5,43834,2.67683,0,2619.753,2922.982,25,
1583,1,SBT2050,2,3,,5,43893,2.68875,0,2619.753,2922.982,25,
1583,1,SBT2050,2,3,,5,43952,2.69956,0,2619.753,2922.982,25,
1583,1,SBT2050,2,3,,5,44011,2.70941,0,2619.753,2922.982,25,
1583,1,SBT2050,2,3,,5,44070,2.71791,0,2619.753,2922.982,25,
1583,1,SBT2050,2,3,,5,44129,2.72599,0,2619.753,2922.982,25,
1583,1,SBT2050,2,3,,5,44188,2.73279,0,2619.753,2922.982,25,
1583,1,SBT2050,2,3,,5,44247,2.73933,0,2619.753,2922.982,25,
1583,1,SBT2050,2,3,,5,44306,2.74517,0,2619.753,2922.982,25,
1583,1,SBT2050,2,3,,5,44365,2.75008,0,2619.753,2922.982,25,
1583,1,SBT2050,2,3,,5,44424,2.75472,0,2619.753,2922.982,25,
1583,1,SBT2050,2,3,,5,44483,2.759004,0,2619.753,2922.982,25,
1583,1,SBT2050,2,3,,5,44542,2.7629,0,2619.753,2922.982,25,
1583,1,SBT2050,2,3,,5,44601,2.7666,0,2619.753,2922.982,25,
1583,1,SBT2050,2,3,,5,44660,2.769826,0,2619.753,2922.982,25,
1583,1,SBT2050,2,3,,5,44719,2.77266,0,2619.753,2922.982,25,
1583,1,SBT2050,2,3,,5,44778,2.77567,0,2619.753,2922.982,25,
1583,1,SBT2050,2,3,,5,44837,2.77835,0,2619.753,2922.982,25,
1583,1,SBT2050,2,3,,5,44896,2.78077,0,2619.753,2922.982,25,
1583,1,SBT2050,2,3,,5,44955,2.78294,0,2619.753,2922.982,25,
1583,1,SBT2050,2,3,,5,45014,2.78512,0,2619.753,2922.982,24.9,
1583,1,SBT2050,2,3,,5,45073,2.78702,0,2619.753,2922.982,25,
1583,1,SBT2050,2,3,,5,45132,2.78883,0,2619.753,2922.982,25,
1583,1,SBT2050,2,3,,5,45177.477,2.78957,-9.9E-05,2619.753,2922.982,,