File: ORRG/Test1578.csv
Request Year:,2018,,,,,,,,,,,,
Test:,1578,,,,,,,,,,,,
Test Description:,,,,,,,,,,,,,
TestRegime Name:,Aging_test caseB_1,,,,,,,,,,,,
TestRegime Suffix:,SHP_LC,,,,,,,,,,,,
TestRegime CellSize:,18650,,,,,,,,,,,,
TestRegime Version:,3,,,,,,,,,,,,
Number Of Cells:,1,,,,,,,,,,,,
LotID:,,,,,,,,,,,,,
Lot Description:,,,,,,,,,,,,,
Date Made:,1/21/2003 12:00 AM,,,,,,,,,,,,
Origin:,Other,,,,,,,,,,,,
Requestor:,Admin,,,,,,,,,,,,
Product ID:,Default product,,,,,,,,,,,,
Storage Temp:,R.T./AMB,,,,,,,,,,,,
Storage Delay:,0 days,,,,,,,,,,,,
Test Temp:,R.T./AMB,,,,,,,,,,,,
Start Time:,4/27/2018 10:53 PM,,,,,,,,,,,,
End Time:,4/28/2018 12:10 AM,,,,,,,,,,,,
Operator Instructions:,,,,,,,,,,,,,
Test,Cell,Rack,Shelf,Position,Cell ID,Step,Total Time (Seconds),Voltage (V),Current (A),Charge Capacity (mAh),Discharge Capacity (mAh),Trs (Â°C),
1578,1,SBT2050,2,3,,0,0.1,3.33528,0,0,0,,
1578,1,SBT2050,2,3,,0,5,3.33525,0,0,0,,
1578,1,SBT2050,2,3,,0,9.9,3.3352,0,0,0,,
1578,1,SBT2050,2,3,,0,14.8,3.33517,0,0,0,,
1578,1,SBT2050,2,3,,0,19.7,3.335374,0,0,0,,
1578,1,SBT2050,2,3,,0,24.6,3.335452,0,0,0,,
1578,1,SBT2050,2,3,,0,29.5,3.33535,0,0,0,,
1578,1,SBT2050,2,3,,0,34.4,3.33538,0,0,0,,
1578,1,SBT2050,2,3,,0,39.3,3.33558,0,0,0,,
1578,1,SBT2050,2,3,,0,44.2,3.33555,0,0,0,,
1578,1,SBT2050,2,3,,0,49.1,3.33551,0,0,0,,
1578,1,SBT2050,2,3,,0,54,3.33546,0,0,0,,
1578,1,SBT2050,2,3,,0,58.9,3.33554,0,0,0,,
1578,1,SBT2050,2,3,,0,63.8,3.33519,0,0,0,,
1578,1,SBT2050,2,3,,0,68.7,3.33534,0,0,0,,
1578,1,SBT2050,2,3,,0,73.6,3.33526,0,0,0,,
1578,1,SBT2050,2,3,,0,78.5,3.33523,0,0,0,,
1578,1,SBT2050,2,3,,0,83.4,3.33531,0,0,0,,
1578,1,SBT2050,2,3,,0,88.3,3.33542,0,0,0,,
1578,1,SBT2050,2,3,,0,93.2,3.3353,0,0,0,,
1578,1,SBT2050,2,3,,0,98.1,3.33548,0,0,0,,
1578,1,SBT2050,2,3,,0,103,3.335495,0,0,0,,
1578,1,SBT2050,2,3,,0,107.9,3.33556,0,0,0,,
1578,1,SBT2050,2,3,,0,112.8,3.33532,0,0,0,,
1578,1,SBT2050,2,3,,0,117.7,3.335514,0,0,0,,
1578,1,SBT2050,2,3,,0,122.6,3.33549,0,0,0,,
1578,1,SBT2050,2,3,,0,127.5,3.33546,0,0,0,,
1578,1,SBT2050,2,3,,0,132.4,3.33568,0,0,0,,
1578,1,SBT2050,2,3,,0,137.3,3.335793,0,0,0,,
1578,1,SBT2050,2,3,,0,142.2,3.335745,0,0,0,,
1578,1,SBT2050,2,3,,0,147.1,3.33546,0,0,0,,
1578,1,SBT2050,2,3,,0,152,3.33546,0,0,0,,
1578,1,SBT2050,2,3,,0,156.9,3.335548,0,0,0,,
1578,1,SBT2050,2,3,,0,161.8,3.33564,0,0,0,,
1578,1,SBT2050,2,3,,0,166.7,3.33571,0,0,0,,
1578,1,SBT2050,2,3,,0,171.6,3.335538,0,0,0,,
1578,1,SBT2050,2,3,,0,176.5,3.335743,0,0,0,,
1578,1,SBT2050,2,3,,0,181.4,3.33552,0,0,0,,
1578,1,SBT2050,2,3,,0,186.3,3.33544,0,0,0,,
1578,1,SBT2050,2,3,,0,191.2,3.33567,0,0,0,,
1578,1,SBT2050,2,3,,0,196.1,3.33588,0,0,0,,
1578,1,SBT2050,2,3,,0,201,3.3356,0,0,0,,
1578,1,SBT2050,2,3,,0,205.9,3.33569,0,0,0,,
1578,1,SBT2050,2,3,,0,210.8,3.33593,0,0,0,,
1578,1,SBT2050,2,3,,0,215.7,3.33579,0,0,0,,
1578,1,SBT2050,2,3,,0,220.6,3.33592,0,0,0,,
1578,1,SBT2050,2,3,,0,225.5,3.33558,0,0,0,,
1578,1,SBT2050,2,3,,0,230.4,3.33592,0,0,0,,
1578,1,SBT2050,2,3,,0,235.3,3.33596,0,0,0,,
1578,1,SBT2050,2,3,,0,240.2,3.33578,0,0,0,,
1578,1,SBT2050,2,3,,0,245.1,3.33569,0,0,0,,
1578,1,SBT2050,2,3,,0,250,3.3359,0,0,0,,
1578,1,SBT2050,2,3,,0,254.9,3.33589,0,0,0,,
1578,1,SBT2050,2,3,,0,259.8,3.33601,0,0,0,,
1578,1,SBT2050,2,3,,0,264.7,3.335834,0,0,0,,
1578,1,SBT2050,2,3,,0,269.6,3.33608,0,0,0,,
1578,1,SBT2050,2,3,,0,274.5,3.335829,0,0,0,,
1578,1,SBT2050,2,3,,0,279.4,3.33592,0,0,0,,
1578,1,SBT2050,2,3,,0,284.3,3.33576,0,0,0,,
1578,1,SBT2050,2,3,,0,289.2,3.33579,0,0,0,,
1578,1,SBT2050,2,3,,0,294.1,3.3358,0,0,0,,
1578,1,SBT2050,2,3,,0,299,3.33585,0,0,0,,
1578,1,SBT2050,2,3,,0,303.9,3.33572,0,0,0,,
1578,1,SBT2050,2,3,,0,308.8,3.33569,0,0,0,,
1578,1,SBT2050,2,3,,0,313.7,3.33591,0,0,0,,
1578,1,SBT2050,2,3,,0,318.6,3.33606,0,0,0,,
1578,1,SBT2050,2,3,,0,323.5,3.33608,0,0,0,,
1578,1,SBT2050,2,3,,0,328.4,3.33583,0,0,0,,
1578,1,SBT2050,2,3,,0,333.3,3.335792,0,0,0,,
1578,1,SBT2050,2,3,,0,338.2,3.336004,0,0,0,,
1578,1,SBT2050,2,3,,0,343.1,3.33589,0,0,0,,
1578,1,SBT2050,2,3,,0,348,3.33604,0,0,0,,
1578,1,SBT2050,2,3,,0,352.9,3.33621,0,0,0,,
1578,1,SBT2050,2,3,,0,357.8,3.33608,0,0,0,,
1578,1,SBT2050,2,3,,0,362.7,3.3361,0,0,0,,
1578,1,SBT2050,2,3,,0,367.6,3.33581,0,0,0,,
1578,1,SBT2050,2,3,,0,372.5,3.33616,0,0,0,,
1578,1,SBT2050,2,3,,0,377.4,3.336056,0,0,0,,
1578,1,SBT2050,2,3,,0,382.3,3.33621,0,0,0,,
1578,1,SBT2050,2,3,,0,387.2,3.335968,0,0,0,,
1578,1,SBT2050,2,3,,0,392.1,3.33612,0,0,0,,
1578,1,SBT2050,2,3,,0,397,3.33608,0,0,0,,
1578,1,SBT2050,2,3,,0,401.9,3.335978,0,0,0,,
1578,1,SBT2050,2,3,,0,406.8,3.336,0,0,0,,
1578,1,SBT2050,2,3,,0,411.7,3.33609,0,0,0,,
1578,1,SBT2050,2,3,,0,416.6,3.33592,0,0,0,,
1578,1,SBT2050,2,3,,0,421.5,3.33619,0,0,0,,
1578,1,SBT2050,2,3,,0,426.4,3.33625,0,0,0,,
1578,1,SBT2050,2,3,,0,431.3,3.33612,0,0,0,,
1578,1,SBT2050,2,3,,0,436.2,3.33616,0,0,0,,
1578,1,SBT2050,2,3,,0,441.1,3.33621,0,0,0,,
1578,1,SBT2050,2,3,,0,446,3.33615,0,0,0,,
1578,1,SBT2050,2,3,,0,450.9,3.33606,0,0,0,,
1578,1,SBT2050,2,3,,0,455.8,3.33608,0,0,0,,
1578,1,SBT2050,2,3,,0,460.7,3.33628,0,0,0,,
1578,1,SBT2050,2,3,,0,465.6,3.336253,0,0,0,,
1578,1,SBT2050,2,3,,0,470.5,3.33621,0,0,0,,
1578,1,SBT2050,2,3,,0,475.4,3.33621,0,0,0,,
1578,1,SBT2050,2,3,,0,480.3,3.33601,0,0,0,,
1578,1,SBT2050,2,3,,0,485.2,3.33616,0,0,0,,
1578,1,SBT2050,2,3,,0,490.1,3.33602,0,0,0,,
1578,1,SBT2050,2,3,,0,495,3.33615,0,0,0,,
1578,1,SBT2050,2,3,,0,499.9,3.33588,0,0,0,,
1578,1,SBT2050,2,3,,0,504.8,3.33628,0,0,0,,
1578,1,SBT2050,2,3,,0,509.7,3.33594,0,0,0,,
1578,1,SBT2050,2,3,,0,514.6,3.33606,0,0,0,,
1578,1,SBT2050,2,3,,0,519.5,3.33611,0,0,0,,
1578,1,SBT2050,2,3,,0,524.4,3.336272,0,0,0,,
1578,1,SBT2050,2,3,,0,529.3,3.336241,0,0,0,,
1578,1,SBT2050,2,3,,0,534.2,3.33618,0,0,0,,
1578,1,SBT2050,2,3,,0,539.1,3.3364,0,0,0,,
1578,1,SBT2050,2,3,,0,544,3.336583,0,0,0,,
1578,1,SBT2050,2,3,,0,548.9,3.33664,0,0,0,,
1578,1,SBT2050,2,3,,0,553.8,3.33626,0,0,0,,
1578,1,SBT2050,2,3,,0,558.7,3.33662,0,0,0,,
1578,1,SBT2050,2,3,,0,563.6,3.33663,0,0,0,,
1578,1,SBT2050,2,3,,0,568.5,3.33672,0,0,0,,
1578,1,SBT2050,2,3,,0,573.4,3.33663,0,0,0,,
1578,1,SBT2050,2,3,,0,578.3,3.3365,0,0,0,,
1578,1,SBT2050,2,3,,0,583.2,3.33657,0,0,0,,
1578,1,SBT2050,2,3,,0,588.1,3.336517,0,0,0,,
1578,1,SBT2050,2,3,,0,593,3.33679,0,0,0,,
1578,1,SBT2050,2,3,,0,597.9,3.3367,0,0,0,,
1578,1,SBT2050,2,3,,0,602.8,3.33649,0,0,0,,
1578,1,SBT2050,2,3,,0,607.7,3.33668,0,0,0,,
1578,1,SBT2050,2,3,,0,612.6,3.33654,0,0,0,,
1578,1,SBT2050,2,3,,0,617.5,3.33671,0,0,0,,
1578,1,SBT2050,2,3,,0,622.4,3.33646,0,0,0,,
1578,1,SBT2050,2,3,,0,627.3,3.33653,0,0,0,,
1578,1,SBT2050,2,3,,0,632.2,3.3365,0,0,0,,
1578,1,SBT2050,2,3,,0,637.1,3.33651,0,0,0,,
1578,1,SBT2050,2,3,,0,642,3.33648,0,0,0,,
1578,1,SBT2050,2,3,,0,646.9,3.33666,0,0,0,,
1578,1,SBT2050,2,3,,0,651.8,3.33665,0,0,0,,
1578,1,SBT2050,2,3,,0,656.7,3.3365,0,0,0,,
1578,1,SBT2050,2,3,,0,661.6,3.336595,0,0,0,,
1578,1,SBT2050,2,3,,0,666.5,3.33654,0,0,0,,
1578,1,SBT2050,2,3,,0,671.4,3.33651,0,0,0,,
1578,1,SBT2050,2,3,,0,676.3,3.33649,0,0,0,,
1578,1,SBT2050,2,3,,0,681.2,3.33657,0,0,0,,
1578,1,SBT2050,2,3,,0,686.1,3.33636,0,0,0,,
1578,1,SBT2050,2,3,,0,691,3.33651,0,0,0,,
1578,1,SBT2050,2,3,,0,695.9,3.33666,0,0,0,,
1578,1,SBT2050,2,3,,0,700.8,3.33662,0,0,0,,
1578,1,SBT2050,2,3,,0,705.7,3.33651,0,0,0,,
1578,1,SBT2050,2,3,,0,710.6,3.336591,0,0,0,,
1578,1,SBT2050,2,3,,0,715.5,3.336657,0,0,0,,
1578,1,SBT2050,2,3,,0,720.4,3.33642,0,0,0,,
1578,1,SBT2050,2,3,,0,725.3,3.33643,0,0,0,,
1578,1,SBT2050,2,3,,0,730.2,3.33647,0,0,0,,
1578,1,SBT2050,2,3,,0,735.1,3.3367,0,0,0,,
1578,1,SBT2050,2,3,,0,740,3.336632,0,0,0,,
1578,1,SBT2050,2,3,,0,744.9,3.33656,0,0,0,,
1578,1,SBT2050,2,3,,0,749.8,3.33679,0,0,0,,
1578,1,SBT2050,2,3,,0,754.7,3.33685,0,0,0,,
1578,1,SBT2050,2,3,,0,759.6,3.33688,0,0,0,,
1578,1,SBT2050,2,3,,0,764.5,3.33664,0,0,0,,
1578,1,SBT2050,2,3,,0,769.4,3.33659,0,0,0,,
1578,1,SBT2050,2,3,,0,774.3,3.33661,0,0,0,,
1578,1,SBT2050,2,3,,0,779.2,3.33675,0,0,0,,
1578,1,SBT2050,2,3,,0,784.1,3.33658,0,0,0,,
1578,1,SBT2050,2,3,,0,789,3.33659,0,0,0,,
1578,1,SBT2050,2,3,,0,793.9,3.33674,0,0,0,,
1578,1,SBT2050,2,3,,0,798.8,3.33648,0,0,0,,
1578,1,SBT2050,2,3,,0,803.7,3.33665,0,0,0,,
1578,1,SBT2050,2,3,,0,808.6,3.336572,0,0,0,,
1578,1,SBT2050,2,3,,0,813.5,3.33661,0,0,0,,
1578,1,SBT2050,2,3,,0,818.4,3.33663,0,0,0,,
1578,1,SBT2050,2,3,,0,823.3,3.33652,0,0,0,,
1578,1,SBT2050,2,3,,0,828.2,3.33652,0,0,0,,
1578,1,SBT2050,2,3,,0,833.1,3.336402,0,0,0,,
1578,1,SBT2050,2,3,,0,838,3.33676,0,0,0,24.9,
1578,1,SBT2050,2,3,,0,842.9,3.336736,0,0,0,,
1578,1,SBT2050,2,3,,0,847.8,3.33696,0,0,0,,
1578,1,SBT2050,2,3,,0,852.7,3.33682,0,0,0,,
1578,1,SBT2050,2,3,,0,857.6,3.3368,0,0,0,,
1578,1,SBT2050,2,3,,0,862.5,3.33712,0,0,0,,
1578,1,SBT2050,2,3,,0,867.4,3.3368,0,0,0,,
1578,1,SBT2050,2,3,,0,872.3,3.336616,0,0,0,,
1578,1,SBT2050,2,3,,0,877.2,3.3368,0,0,0,,
1578,1,SBT2050,2,3,,0,882.1,3.33679,0,0,0,,
1578,1,SBT2050,2,3,,0,887,3.336973,0,0,0,,
1578,1,SBT2050,2,3,,0,891.9,3.336947,0,0,0,,
1578,1,SBT2050,2,3,,0,896.8,3.3368,0,0,0,,
1578,1,SBT2050,2,3,,0,901.7,3.3369,0,0,0,,
1578,1,SBT2050,2,3,,0,906.6,3.337004,0,0,0,,
1578,1,SBT2050,2,3,,0,911.5,3.336912,0,0,0,,
1578,1,SBT2050,2,3,,0,916.4,3.33677,0,0,0,,
1578,1,SBT2050,2,3,,0,921.3,3.33672,0,0,0,,
1578,1,SBT2050,2,3,,0,926.2,3.3371,0,0,0,,
1578,1,SBT2050,2,3,,0,931.1,3.33705,0,0,0,,
1578,1,SBT2050,2,3,,0,936,3.33688,0,0,0,,
1578,1,SBT2050,2,3,,0,940.9,3.33706,0,0,0,,
1578,1,SBT2050,2,3,,0,945.8,3.33703,0,0,0,,
1578,1,SBT2050,2,3,,0,950.7,3.33691,0,0,0,,
1578,1,SBT2050,2,3,,0,955.6,3.336903,0,0,0,,
1578,1,SBT2050,2,3,,0,960.5,3.33703,0,0,0,,
1578,1,SBT2050,2,3,,0,965.4,3.33697,0,0,0,,
1578,1,SBT2050,2,3,,0,970.3,3.3371,0,0,0,,
1578,1,SBT2050,2,3,,0,975.2,3.33699,0,0,0,,
1578,1,SBT2050,2,3,,0,980.1,3.33682,0,0,0,,
1578,1,SBT2050,2,3,,0,985,3.33684,0,0,0,,
1578,1,SBT2050,2,3,,0,989.9,3.337079,0,0,0,,
1578,1,SBT2050,2,3,,0,994.8,3.33704,0,0,0,,
1578,1,SBT2050,2,3,,0,999.7,3.33694,0,0,0,,
1578,1,SBT2050,2,3,,0,1004.6,3.3372,0,0,0,,
1578,1,SBT2050,2,3,,0,1009.5,3.33704,0,0,0,,
1578,1,SBT2050,2,3,,0,1014.4,3.33704,0,0,0,,
1578,1,SBT2050,2,3,,0,1019.3,3.337138,0,0,0,,
1578,1,SBT2050,2,3,,0,1024.2,3.33711,0,0,0,,
1578,1,SBT2050,2,3,,0,1029.1,3.33729,0,0,0,,
1578,1,SBT2050,2,3,,0,1034,3.33726,0,0,0,,
1578,1,SBT2050,2,3,,0,1038.9,3.33716,0,0,0,,
1578,1,SBT2050,2,3,,0,1043.8,3.33701,0,0,0,,
1578,1,SBT2050,2,3,,0,1048.7,3.33671,0,0,0,,
1578,1,SBT2050,2,3,,0,1053.6,3.33696,0,0,0,,
1578,1,SBT2050,2,3,,0,1058.5,3.33687,0,0,0,,
1578,1,SBT2050,2,3,,0,1063.4,3.337,0,0,0,,
1578,1,SBT2050,2,3,,0,1068.3,3.33695,0,0,0,,
1578,1,SBT2050,2,3,,0,1073.2,3.33708,0,0,0,,
1578,1,SBT2050,2,3,,0,1078.1,3.33725,0,0,0,,
1578,1,SBT2050,2,3,,0,1083,3.33705,0,0,0,,
1578,1,SBT2050,2,3,,0,1087.9,3.33703,0,0,0,,
1578,1,SBT2050,2,3,,0,1092.8,3.33715,0,0,0,,
1578,1,SBT2050,2,3,,0,1097.7,3.33718,0,0,0,,
1578,1,SBT2050,2,3,,0,1102.6,3.337,0,0,0,,
1578,1,SBT2050,2,3,,0,1107.5,3.33713,0,0,0,,
1578,1,SBT2050,2,3,,0,1112.4,3.33724,0,0,0,,
1578,1,SBT2050,2,3,,0,1117.3,3.33731,0,0,0,,
1578,1,SBT2050,2,3,,0,1122.2,3.33731,0,0,0,,
1578,1,SBT2050,2,3,,0,1127.1,3.33699,0,0,0,,
1578,1,SBT2050,2,3,,0,1132,3.337238,0,0,0,,
1578,1,SBT2050,2,3,,0,1136.9,3.33723,0,0,0,,
1578,1,SBT2050,2,3,,0,1141.8,3.33706,0,0,0,,
1578,1,SBT2050,2,3,,0,1146.7,3.33724,0,0,0,,
1578,1,SBT2050,2,3,,0,1151.6,3.33724,0,0,0,,
1578,1,SBT2050,2,3,,0,1156.5,3.337477,0,0,0,,
1578,1,SBT2050,2,3,,0,1161.4,3.33735,0,0,0,,
1578,1,SBT2050,2,3,,0,1166.3,3.33727,0,0,0,,
1578,1,SBT2050,2,3,,0,1171.2,3.33729,0,0,0,,
1578,1,SBT2050,2,3,,0,1176.1,3.337094,0,0,0,,
1578,1,SBT2050,2,3,,0,1181,3.33708,0,0,0,,
1578,1,SBT2050,2,3,,0,1185.9,3.337188,0,0,0,,
1578,1,SBT2050,2,3,,0,1190.8,3.33724,0,0,0,,
1578,1,SBT2050,2,3,,0,1195.7,3.33722,0,0,0,,
1578,1,SBT2050,2,3,,0,1200.6,3.33707,0,0,0,,
1578,1,SBT2050,2,3,,0,1205.5,3.33716,0,0,0,,
1578,1,SBT2050,2,3,,0,1210.4,3.33722,0,0,0,,
1578,1,SBT2050,2,3,,0,1215.3,3.33732,0,0,0,,
1578,1,SBT2050,2,3,,0,1220.2,3.33706,0,0,0,,
1578,1,SBT2050,2,3,,0,1225.1,3.33724,0,0,0,,
1578,1,SBT2050,2,3,,0,1230,3.337031,0,0,0,,
1578,1,SBT2050,2,3,,0,1234.9,3.33713,0,0,0,,
1578,1,SBT2050,2,3,,0,1239.8,3.33715,0,0,0,,
1578,1,SBT2050,2,3,,0,1244.7,3.3372,0,0,0,,
1578,1,SBT2050,2,3,,0,1249.6,3.33726,0,0,0,,
1578,1,SBT2050,2,3,,0,1254.5,3.337072,0,0,0,,
1578,1,SBT2050,2,3,,0,1259.4,3.33714,0,0,0,,
1578,1,SBT2050,2,3,,0,1264.3,3.33717,0,0,0,,
1578,1,SBT2050,2,3,,0,1269.2,3.33712,0,0,0,,
1578,1,SBT2050,2,3,,0,1274.1,3.33714,0,0,0,,
1578,1,SBT2050,2,3,,0,1279,3.33714,0,0,0,,
1578,1,SBT2050,2,3,,0,1283.9,3.33722,0,0,0,,
1578,1,SBT2050,2,3,,0,1288.8,3.33697,0,0,0,,
1578,1,SBT2050,2,3,,0,1293.7,3.33716,0,0,0,,
1578,1,SBT2050,2,3,,0,1298.6,3.33728,0,0,0,,
1578,1,SBT2050,2,3,,0,1303.5,3.33731,0,0,0,,
1578,1,SBT2050,2,3,,0,1308.4,3.337221,0,0,0,,
1578,1,SBT2050,2,3,,0,1313.3,3.33711,0,0,0,,
1578,1,SBT2050,2,3,,0,1318.2,3.33707,0,0,0,,
1578,1,SBT2050,2,3,,0,1323.1,3.33732,0,0,0,,
1578,1,SBT2050,2,3,,0,1328,3.33712,0,0,0,,
1578,1,SBT2050,2,3,,0,1332.9,3.33708,0,0,0,,
1578,1,SBT2050,2,3,,0,1337.8,3.337379,0,0,0,,
1578,1,SBT2050,2,3,,0,1342.7,3.337242,0,0,0,,
1578,1,SBT2050,2,3,,0,1347.6,3.337437,0,0,0,,
1578,1,SBT2050,2,3,,0,1352.5,3.33723,0,0,0,,
1578,1,SBT2050,2,3,,0,1357.4,3.337339,0,0,0,,
1578,1,SBT2050,2,3,,0,1362.3,3.33749,0,0,0,,
1578,1,SBT2050,2,3,,0,1367.2,3.3376,0,0,0,,
1578,1,SBT2050,2,3,,0,1372.1,3.33744,0,0,0,,
1578,1,SBT2050,2,3,,0,1377,3.33762,0,0,0,,
1578,1,SBT2050,2,3,,0,1381.9,3.3376,0,0,0,,
1578,1,SBT2050,2,3,,0,1386.8,3.33772,0,0,0,,
1578,1,SBT2050,2,3,,0,1391.7,3.3375,0,0,0,,
1578,1,SBT2050,2,3,,0,1396.6,3.33758,0,0,0,,
1578,1,SBT2050,2,3,,0,1401.5,3.33737,0,0,0,,
1578,1,SBT2050,2,3,,0,1406.4,3.337365,0,0,0,,
1578,1,SBT2050,2,3,,0,1411.3,3.337422,0,0,0,,
1578,1,SBT2050,2,3,,0,1416.2,3.337402,0,0,0,,
1578,1,SBT2050,2,3,,0,1421.1,3.33731,0,0,0,,
1578,1,SBT2050,2,3,,0,1426,3.33739,0,0,0,,
1578,1,SBT2050,2,3,,0,1430.9,3.33731,0,0,0,,
1578,1,SBT2050,2,3,,0,1435.8,3.33757,0,0,0,,
1578,1,SBT2050,2,3,,0,1440.7,3.33743,0,0,0,,
1578,1,SBT2050,2,3,,0,1445.6,3.33756,0,0,0,,
1578,1,SBT2050,2,3,,0,1450.5,3.337321,0,0,0,,
1578,1,SBT2050,2,3,,0,1455.4,3.337379,0,0,0,,
1578,1,SBT2050,2,3,,0,1460.3,3.33756,0,0,0,,
1578,1,SBT2050,2,3,,0,1465.2,3.3375,0,0,0,,
1578,1,SBT2050,2,3,,0,1470.1,3.33754,0,0,0,,
1578,1,SBT2050,2,3,,0,1475,3.3376,0,0,0,,
1578,1,SBT2050,2,3,,0,1479.9,3.33757,0,0,0,,
1578,1,SBT2050,2,3,,0,1484.8,3.33738,0,0,0,,
1578,1,SBT2050,2,3,,0,1489.7,3.33772,0,0,0,,
1578,1,SBT2050,2,3,,0,1494.6,3.33759,0,0,0,,
1578,1,SBT2050,2,3,,0,1499.5,3.33775,0,0,0,,
1578,1,SBT2050,2,3,,0,1504.4,3.33789,0,0,0,,
1578,1,SBT2050,2,3,,0,1509.3,3.33765,0,0,0,,
1578,1,SBT2050,2,3,,0,1514.2,3.33774,0,0,0,,
1578,1,SBT2050,2,3,,0,1519.1,3.33752,0,0,0,,
1578,1,SBT2050,2,3,,0,1524,3.33765,0,0,0,,
1578,1,SBT2050,2,3,,0,1528.9,3.33751,0,0,0,,
1578,1,SBT2050,2,3,,0,1533.8,3.33769,0,0,0,,
1578,1,SBT2050,2,3,,0,1538.7,3.33772,0,0,0,,
1578,1,SBT2050,2,3,,0,1543.6,3.337672,0,0,0,,
1578,1,SBT2050,2,3,,0,1548.5,3.337634,0,0,0,,
1578,1,SBT2050,2,3,,0,1553.4,3.33752,0,0,0,,
1578,1,SBT2050,2,3,,0,1558.3,3.3374,0,0,0,,
1578,1,SBT2050,2,3,,0,1563.2,3.337559,0,0,0,,
1578,1,SBT2050,2,3,,0,1568.1,3.33756,0,0,0,,
1578,1,SBT2050,2,3,,0,1573,3.33757,0,0,0,,
1578,1,SBT2050,2,3,,0,1577.9,3.33736,0,0,0,,
1578,1,SBT2050,2,3,,0,1582.8,3.337723,0,0,0,,
1578,1,SBT2050,2,3,,0,1587.7,3.337459,0,0,0,,
1578,1,SBT2050,2,3,,0,1592.6,3.33752,0,0,0,,
1578,1,SBT2050,2,3,,0,1597.5,3.33743,0,0,0,,
1578,1,SBT2050,2,3,,0,1602.4,3.3375,0,0,0,,
1578,1,SBT2050,2,3,,0,1607.3,3.33761,0,0,0,,
1578,1,SBT2050,2,3,,0,1612.2,3.33747,0,0,0,,
1578,1,SBT2050,2,3,,0,1617.1,3.337497,0,0,0,,
1578,1,SBT2050,2,3,,0,1622,3.33777,0,0,0,,
1578,1,SBT2050,2,3,,0,1626.9,3.33753,0,0,0,,
1578,1,SBT2050,2,3,,0,1631.8,3.33758,0,0,0,,
1578,1,SBT2050,2,3,,0,1636.7,3.33768,0,0,0,,
1578,1,SBT2050,2,3,,0,1641.6,3.33744,0,0,0,,
1578,1,SBT2050,2,3,,0,1646.5,3.3377,0,0,0,,
1578,1,SBT2050,2,3,,0,1651.4,3.33793,0,0,0,,
1578,1,SBT2050,2,3,,0,1656.3,3.33738,0,0,0,,
1578,1,SBT2050,2,3,,0,1661.2,3.33769,0,0,0,,
1578,1,SBT2050,2,3,,0,1666.1,3.33753,0,0,0,,
1578,1,SBT2050,2,3,,0,1671,3.33754,0,0,0,,
1578,1,SBT2050,2,3,,0,1675.9,3.337628,0,0,0,,
1578,1,SBT2050,2,3,,0,1680.8,3.3376,0,0,0,,
1578,1,SBT2050,2,3,,0,1685.7,3.3376,0,0,0,,
1578,1,SBT2050,2,3,,0,1690.6,3.3375,0,0,0,,
1578,1,SBT2050,2,3,,0,1695.5,3.33755,0,0,0,,
1578,1,SBT2050,2,3,,0,1700.4,3.33765,0,0,0,,
1578,1,SBT2050,2,3,,0,1705.3,3.33767,0,0,0,,
1578,1,SBT2050,2,3,,0,1710.2,3.33736,0,0,0,,
1578,1,SBT2050,2,3,,0,1715.1,3.337493,0,0,0,,
1578,1,SBT2050,2,3,,0,1720,3.33765,0,0,0,,
1578,1,SBT2050,2,3,,0,1724.9,3.33765,0,0,0,,
1578,1,SBT2050,2,3,,0,1729.8,3.3377,0,0,0,,
1578,1,SBT2050,2,3,,0,1734.7,3.33797,0,0,0,,
1578,1,SBT2050,2,3,,0,1739.6,3.33773,0,0,0,,
1578,1,SBT2050,2,3,,0,1744.5,3.337746,0,0,0,,
1578,1,SBT2050,2,3,,0,1749.4,3.33779,0,0,0,,
1578,1,SBT2050,2,3,,0,1754.3,3.337543,0,0,0,,
1578,1,SBT2050,2,3,,0,1759.2,3.33773,0,0,0,,
1578,1,SBT2050,2,3,,0,1764.1,3.33772,0,0,0,,
1578,1,SBT2050,2,3,,0,1769,3.33762,0,0,0,,
1578,1,SBT2050,2,3,,0,1773.9,3.33786,0,0,0,,
1578,1,SBT2050,2,3,,0,1778.8,3.337702,0,0,0,,
1578,1,SBT2050,2,3,,0,1783.7,3.33779,0,0,0,,
1578,1,SBT2050,2,3,,0,1788.6,3.33733,0,0,0,,
1578,1,SBT2050,2,3,,0,1793.5,3.337692,0,0,0,,
1578,1,SBT2050,2,3,,0,1798.4,3.33781,0,0,0,,
1578,1,SBT2050,2,3,,7,1803.2,3.39783,0.8209,0.111,0,,
1578,1,SBT2050,2,3,,7,1808.1,3.67075,4.629,3.846,0,,
1578,1,SBT2050,2,3,,7,1812.9,3.82152,7.184,11.701,0,,
1578,1,SBT2050,2,3,,7,1817.8,3.91806,8.605,22.409,0,,
1578,1,SBT2050,2,3,,7,1822.6,3.97257,9.083,34.242,0,,
1578,1,SBT2050,2,3,,7,1827.5,3.99924,9.043,46.643,0,,
1578,1,SBT2050,2,3,,7,1832.3,3.99844,8.544,58.381,0,,
1578,1,SBT2050,2,3,,7,1837.2,4.00429,8.322,69.81,0,,
1578,1,SBT2050,2,3,,7,1842,4.01157,8.195,80.825,0,27.6,
1578,1,SBT2050,2,3,,7,1846.9,4.01634,8.063,91.901,0,,
1578,1,SBT2050,2,3,,7,1851.7,4.01978,7.959,102.583,0,,
1578,1,SBT2050,2,3,,7,1856.6,4.02116,7.847,113.329,0,,
1578,1,SBT2050,2,3,,7,1861.4,4.02076,7.738,123.709,0,,
1578,1,SBT2050,2,3,,7,1866.2,4.01929,7.63,133.951,0,,
1578,1,SBT2050,2,3,,7,1871.1,4.016856,7.527,144.269,0,,
1578,1,SBT2050,2,3,,7,1875.9,4.01356,7.432,154.244,0,,
1578,1,SBT2050,2,3,,7,1880.8,4.01009,7.34,164.306,0,,
1578,1,SBT2050,2,3,,7,1885.6,4.00664,7.268,174.046,0,,
1578,1,SBT2050,2,3,,7,1890.5,4.00267,7.186,183.879,0,,
1578,1,SBT2050,2,3,,7,1895.3,3.99921,7.11,193.407,0,,
1578,1,SBT2050,2,3,,7,1900.2,3.99497,7.036,203.031,0,,
1578,1,SBT2050,2,3,,7,1905,3.99097,6.961,212.366,0,33,
1578,1,SBT2050,2,3,,7,1909.9,3.98705,6.897,221.802,0,,
1578,1,SBT2050,2,3,,7,1914.7,3.98445,6.85,230.968,0,,
1578,1,SBT2050,2,3,,7,1919.6,3.98076,6.788,240.243,0,,
1578,1,SBT2050,2,3,,7,1924.4,3.977718,6.735,249.257,0,,
1578,1,SBT2050,2,3,,7,1929.2,3.97468,6.677,258.198,0,,
1578,1,SBT2050,2,3,,7,1934.1,3.971828,6.627,267.252,0,,
1578,1,SBT2050,2,3,,7,1938.9,3.969514,6.581,276.062,0,,
1578,1,SBT2050,2,3,,7,1943.8,3.966892,6.534,284.994,0,,
1578,1,SBT2050,2,3,,7,1948.6,3.965412,6.507,293.689,0,,
1578,1,SBT2050,2,3,,7,1953.5,3.96302,6.46,302.509,0,,
1578,1,SBT2050,2,3,,7,1958.3,3.96162,6.425,311.098,0,,
1578,1,SBT2050,2,3,,7,1963.2,3.95984,6.388,319.822,0,,
1578,1,SBT2050,2,3,,7,1968,3.95844,6.355,328.324,0,36.1,
1578,1,SBT2050,2,3,,7,1972.9,3.95752,6.321,336.955,0,,
1578,1,SBT2050,2,3,,7,1977.7,3.95645,6.297,345.37,0,,
1578,1,SBT2050,2,3,,7,1982.6,3.95515,6.261,353.92,0,,
1578,1,SBT2050,2,3,,7,1987.4,3.954368,6.23,362.245,0,,
1578,1,SBT2050,2,3,,7,1992.2,3.95367,6.206,370.536,0,,
1578,1,SBT2050,2,3,,7,1997.1,3.95327,6.175,378.964,0,,
1578,1,SBT2050,2,3,,7,2001.9,3.95216,6.143,387.18,0,,
1578,1,SBT2050,2,3,,7,2006.8,3.95197,6.124,395.526,0,,
1578,1,SBT2050,2,3,,7,2011.6,3.95156,6.093,403.666,0,,
1578,1,SBT2050,2,3,,7,2016.5,3.951552,6.07,411.945,0,,
1578,1,SBT2050,2,3,,7,2021.3,3.95104,6.039,420.015,0,,
1578,1,SBT2050,2,3,,7,2026.2,3.950774,6.014,428.216,0,,
1578,1,SBT2050,2,3,,7,2031,3.95102,5.996,436.227,0,,
1578,1,SBT2050,2,3,,7,2035.9,3.95119,5.973,444.374,0,,
1578,1,SBT2050,2,3,,7,2040.7,3.95139,5.946,452.321,0,,
1578,1,SBT2050,2,3,,7,2045.6,3.951342,5.922,460.395,0,,
1578,1,SBT2050,2,3,,7,2050.4,3.95156,5.903,468.279,0,,
1578,1,SBT2050,2,3,,7,2055.2,3.951266,5.867,476.129,0,,
1578,1,SBT2050,2,3,,7,2060.1,3.95203,5.852,484.109,0,,
1578,1,SBT2050,2,3,,7,2064.9,3.95243,5.827,491.891,0,,
1578,1,SBT2050,2,3,,7,2069.8,3.95319,5.814,499.812,0,,
1578,1,SBT2050,2,3,,7,2074.6,3.95406,5.797,507.554,0,,
1578,1,SBT2050,2,3,,7,2079.5,3.95461,5.773,515.422,0,,
1578,1,SBT2050,2,3,,7,2084.3,3.95519,5.75,523.106,0,,
1578,1,SBT2050,2,3,,7,2089.2,3.95509,5.715,530.91,0,,
1578,1,SBT2050,2,3,,7,2094,3.95587,5.697,538.519,0,,
1578,1,SBT2050,2,3,,7,2098.9,3.95696,5.673,546.262,0,,
1578,1,SBT2050,2,3,,7,2103.7,3.957374,5.648,553.812,0,,
1578,1,SBT2050,2,3,,7,2108.6,3.95776,5.618,561.478,0,,
1578,1,SBT2050,2,3,,7,2113.4,3.9588,5.609,568.965,0,,
1578,1,SBT2050,2,3,,7,2118.2,3.95942,5.583,576.427,0,,
1578,1,SBT2050,2,3,,7,2123.1,3.96012,5.554,584.008,0,,
1578,1,SBT2050,2,3,,7,2127.9,3.96043,5.525,591.397,0,,
1578,1,SBT2050,2,3,,7,2132.8,3.96138,5.505,598.903,0,,
1578,1,SBT2050,2,3,,7,2137.6,3.96227,5.484,606.223,0,,
1578,1,SBT2050,2,3,,7,2142.5,3.96359,5.47,613.68,0,,
1578,1,SBT2050,2,3,,7,2147.3,3.964178,5.444,620.958,0,,
1578,1,SBT2050,2,3,,7,2152.2,3.96521,5.42,628.354,0,,
1578,1,SBT2050,2,3,,7,2157,3.96571,5.396,635.566,0,,
1578,1,SBT2050,2,3,,7,2161.9,3.966612,5.371,642.895,0,,
1578,1,SBT2050,2,3,,7,2166.7,3.96749,5.35,650.042,0,,
1578,1,SBT2050,2,3,,7,2171.6,3.96878,5.324,657.306,0,,
1578,1,SBT2050,2,3,,7,2176.4,3.969776,5.302,664.39,0,,
1578,1,SBT2050,2,3,,7,2181.2,3.970294,5.277,671.444,0,,
1578,1,SBT2050,2,3,,7,2186.1,3.9715,5.254,678.614,0,,
1578,1,SBT2050,2,3,,7,2190.9,3.97201,5.218,685.602,0,,
1578,1,SBT2050,2,3,,7,2195.8,3.97279,5.197,692.691,0,,
1578,1,SBT2050,2,3,,7,2200.6,3.97371,5.172,699.602,0,,
1578,1,SBT2050,2,3,,7,2205.5,3.97487,5.151,706.627,0,,
1578,1,SBT2050,2,3,,7,2210.3,3.97588,5.128,713.481,0,,
1578,1,SBT2050,2,3,,7,2215.2,3.97649,5.097,720.444,0,,
1578,1,SBT2050,2,3,,7,2220,3.97786,5.083,727.23,0,38.5,
1578,1,SBT2050,2,3,,7,2224.9,3.97874,5.065,734.139,0,,
1578,1,SBT2050,2,3,,7,2229.7,3.979806,5.046,740.876,0,,
1578,1,SBT2050,2,3,,7,2234.6,3.98057,5.01,747.716,0,,
1578,1,SBT2050,2,3,,7,2239.4,3.98159,4.987,754.381,0,,
1578,1,SBT2050,2,3,,7,2244.2,3.98251,4.966,761.019,0,,
1578,1,SBT2050,2,3,,7,2249.1,3.98342,4.935,767.763,0,,
1578,1,SBT2050,2,3,,7,2253.9,3.984118,4.914,774.329,0,,
1578,1,SBT2050,2,3,,7,2258.8,3.98539,4.896,781.006,0,,
1578,1,SBT2050,2,3,,7,2263.6,3.98627,4.873,787.516,0,,
1578,1,SBT2050,2,3,,7,2268.5,3.98729,4.852,794.134,0,,
1578,1,SBT2050,2,3,,7,2273.3,3.98818,4.824,800.59,0,,
1578,1,SBT2050,2,3,,7,2278.2,3.98919,4.8,807.139,0,,
1578,1,SBT2050,2,3,,7,2283,3.990358,4.779,813.53,0,,
1578,1,SBT2050,2,3,,7,2287.9,3.991258,4.758,820.023,0,,
1578,1,SBT2050,2,3,,7,2292.7,3.99202,4.7337,826.353,0,,
1578,1,SBT2050,2,3,,7,2297.6,3.99298,4.7087,832.776,0,,
1578,1,SBT2050,2,3,,7,2302.4,3.99376,4.6882,839.039,0,,
1578,1,SBT2050,2,3,,7,2307.2,3.99499,4.6683,845.277,0,,
1578,1,SBT2050,2,3,,7,2312.1,3.99596,4.6423,851.616,0,,
1578,1,SBT2050,2,3,,7,2316.9,3.9967,4.6162,857.79,0,,
1578,1,SBT2050,2,3,,7,2321.8,3.997866,4.6003,864.062,0,,
1578,1,SBT2050,2,3,,7,2326.6,3.998442,4.5745,870.178,0,,
1578,1,SBT2050,2,3,,7,2331.5,3.99947,4.5488,876.385,0,,
1578,1,SBT2050,2,3,,7,2336.3,4.000402,4.5234,882.435,0,,
1578,1,SBT2050,2,3,,7,2341.2,4.00138,4.4978,888.574,0,,
1578,1,SBT2050,2,3,,7,2346,4.0024,4.4782,894.56,0,,
1578,1,SBT2050,2,3,,7,2350.9,4.003564,4.4568,900.645,0,,
1578,1,SBT2050,2,3,,7,2355.7,4.00414,4.4342,906.572,0,,
1578,1,SBT2050,2,3,,7,2360.6,4.00511,4.4082,912.589,0,,
1578,1,SBT2050,2,3,,7,2365.4,4.00589,4.3839,918.449,0,,
1578,1,SBT2050,2,3,,7,2370.2,4.00659,4.3646,924.281,0,,
1578,1,SBT2050,2,3,,7,2375.1,4.00722,4.3361,930.203,0,,
1578,1,SBT2050,2,3,,7,2379.9,4.00826,4.3138,935.972,0,,
1578,1,SBT2050,2,3,,7,2384.8,4.00885,4.2917,941.827,0,,
1578,1,SBT2050,2,3,,7,2389.6,4.00969,4.2721,947.534,0,,
1578,1,SBT2050,2,3,,7,2394.5,4.0106,4.2477,953.333,0,,
1578,1,SBT2050,2,3,,7,2399.3,4.01164,4.2251,958.98,0,,
1578,1,SBT2050,2,3,,7,2404.2,4.012604,4.2098,964.719,0,,
1578,1,SBT2050,2,3,,7,2409,4.01367,4.1909,970.321,0,,
1578,1,SBT2050,2,3,,7,2413.9,4.01467,4.1713,976.012,0,,
1578,1,SBT2050,2,3,,7,2418.7,4.01608,4.1625,981.568,0,,
1578,1,SBT2050,2,3,,7,2423.6,4.01753,4.1531,987.227,0,,
1578,1,SBT2050,2,3,,7,2428.4,4.01887,4.1375,992.755,0,,
1578,1,SBT2050,2,3,,7,2433.2,4.02033,4.125,998.263,0,,
1578,1,SBT2050,2,3,,7,2438.1,4.02135,4.1077,1003.865,0,,
1578,1,SBT2050,2,3,,7,2442.9,4.022798,4.0957,1009.335,0,,
1578,1,SBT2050,2,3,,7,2447.8,4.02448,4.0882,1014.905,0,,
1578,1,SBT2050,2,3,,7,2452.6,4.02598,4.0757,1020.348,0,,
1578,1,SBT2050,2,3,,7,2457.5,4.02718,4.0599,1025.882,0,,
1578,1,SBT2050,2,3,,7,2462.3,4.02821,4.0411,1031.282,0,,
1578,1,SBT2050,2,3,,7,2467.2,4.02962,4.0239,1036.773,0,,
1578,1,SBT2050,2,3,,7,2472,4.0308,4.0093,1042.128,0,,
1578,1,SBT2050,2,3,,7,2476.9,4.03251,3.9993,1047.58,0,,
1578,1,SBT2050,2,3,,7,2481.7,4.033534,3.9832,1052.902,0,,
1578,1,SBT2050,2,3,,7,2486.6,4.03516,3.9729,1058.315,0,,
1578,1,SBT2050,2,3,,7,2491.4,4.036618,3.9633,1063.604,0,,
1578,1,SBT2050,2,3,,7,2496.2,4.03783,3.9472,1068.88,0,,
1578,1,SBT2050,2,3,,7,2501.1,4.03922,3.9339,1074.244,0,,
1578,1,SBT2050,2,3,,7,2505.9,4.04064,3.9235,1079.483,0,,
1578,1,SBT2050,2,3,,7,2510.8,4.04211,3.9076,1084.811,0,,
1578,1,SBT2050,2,3,,7,2515.6,4.04314,3.8963,1090.012,0,,
1578,1,SBT2050,2,3,,7,2520.5,4.044524,3.8781,1095.302,0,,
1578,1,SBT2050,2,3,,7,2525.3,4.04583,3.8663,1100.464,0,,
1578,1,SBT2050,2,3,,7,2530.2,4.047084,3.8484,1105.715,0,,
1578,1,SBT2050,2,3,,7,2535,4.04834,3.8371,1110.839,0,,
1578,1,SBT2050,2,3,,7,2539.9,4.04974,3.8274,1116.056,0,,
1578,1,SBT2050,2,3,,7,2544.7,4.050854,3.8127,1121.148,0,,
1578,1,SBT2050,2,3,,7,2549.6,4.05225,3.8005,1126.326,0,,
1578,1,SBT2050,2,3,,7,2554.4,4.05336,3.784,1131.383,0,,
1578,1,SBT2050,2,3,,7,2559.2,4.05452,3.7712,1136.419,0,,
1578,1,SBT2050,2,3,,7,2564.1,4.05588,3.7611,1141.545,0,,
1578,1,SBT2050,2,3,,7,2568.9,4.05691,3.7434,1146.551,0,,
1578,1,SBT2050,2,3,,7,2573.8,4.058526,3.734,1151.64,0,,
1578,1,SBT2050,2,3,,7,2578.6,4.059812,3.7213,1156.61,0,,
1578,1,SBT2050,2,3,,7,2583.5,4.0611,3.7059,1161.663,0,,
1578,1,SBT2050,2,3,,7,2588.3,4.062192,3.69,1166.595,0,,
1578,1,SBT2050,2,3,,7,2593.2,4.063358,3.6759,1171.607,0,,
1578,1,SBT2050,2,3,,7,2598,4.06444,3.666,1176.501,0,,
1578,1,SBT2050,2,3,,7,2602.9,4.06605,3.6566,1181.486,0,,
1578,1,SBT2050,2,3,,7,2607.7,4.06748,3.6496,1186.357,0,,
1578,1,SBT2050,2,3,,7,2612.6,4.068518,3.6326,1191.312,0,,
1578,1,SBT2050,2,3,,7,2617.4,4.06959,3.6153,1196.145,0,,
1578,1,SBT2050,2,3,,7,2622.2,4.07076,3.6004,1200.954,0,,
1578,1,SBT2050,2,3,,7,2627.1,4.072204,3.5905,1205.848,0,,
1578,1,SBT2050,2,3,,7,2631.9,4.073238,3.5727,1210.626,0,,
1578,1,SBT2050,2,3,,7,2636.8,4.0742,3.5638,1215.482,0,,
1578,1,SBT2050,2,3,,7,2641.6,4.07517,3.5454,1220.219,0,,
1578,1,SBT2050,2,3,,7,2646.5,4.07658,3.5336,1225.035,0,,
1578,1,SBT2050,2,3,,7,2651.3,4.0777,3.5253,1229.741,0,,
1578,1,SBT2050,2,3,,7,2656.2,4.079224,3.5168,1234.533,0,,
1578,1,SBT2050,2,3,,7,2661,4.080272,3.5037,1239.215,0,,
1578,1,SBT2050,2,3,,7,2665.9,4.08151,3.4886,1243.974,0,,
1578,1,SBT2050,2,3,,7,2670.7,4.08285,3.4803,1248.62,0,,
1578,1,SBT2050,2,3,,7,2675.6,4.08369,3.4688,1253.35,0,,
1578,1,SBT2050,2,3,,7,2680.4,4.08492,3.4519,1257.962,0,,
1578,1,SBT2050,2,3,,7,2685.2,4.0858,3.4319,1262.552,0,,
1578,1,SBT2050,2,3,,7,2690.1,4.08687,3.4205,1267.216,0,,
1578,1,SBT2050,2,3,,7,2694.9,4.08795,3.4082,1271.771,0,,
1578,1,SBT2050,2,3,,7,2699.8,4.08897,3.393,1276.399,0,,
1578,1,SBT2050,2,3,,7,2704.6,4.089942,3.383,1280.915,0,,
1578,1,SBT2050,2,3,,7,2709.5,4.090668,3.3663,1285.509,0,,
1578,1,SBT2050,2,3,,7,2714.3,4.09193,3.3534,1289.987,0,,
1578,1,SBT2050,2,3,,7,2719.2,4.09301,3.3346,1294.541,0,,
1578,1,SBT2050,2,3,,7,2724,4.093794,3.3223,1298.979,0,,
1578,1,SBT2050,2,3,,7,2728.9,4.09521,3.3132,1303.495,0,,
1578,1,SBT2050,2,3,,7,2733.7,4.09642,3.3068,1307.908,0,,
1578,1,SBT2050,2,3,,7,2738.6,4.09684,3.2892,1312.396,0,,
1578,1,SBT2050,2,3,,7,2743.4,4.09848,3.2771,1316.772,0,,
1578,1,SBT2050,2,3,,7,2748.2,4.09954,3.2695,1321.137,0,,
1578,1,SBT2050,2,3,,7,2753.1,4.10038,3.2527,1325.578,0,,
1578,1,SBT2050,2,3,,7,2757.9,4.10115,3.2329,1329.906,0,,
1578,1,SBT2050,2,3,,7,2762.8,4.10195,3.2186,1334.295,0,,
1578,1,SBT2050,2,3,,7,2767.6,4.103344,3.2078,1338.577,0,,
1578,1,SBT2050,2,3,,7,2772.5,4.10418,3.2019,1342.939,0,,
1578,1,SBT2050,2,3,,7,2777.3,4.10497,3.1809,1347.192,0,,
1578,1,SBT2050,2,3,,7,2782.2,4.10562,3.1703,1351.514,0,,
1578,1,SBT2050,2,3,,7,2787,4.106552,3.1528,1355.733,0,,
1578,1,SBT2050,2,3,,7,2791.9,4.10771,3.1397,1360.016,0,,
1578,1,SBT2050,2,3,,7,2796.7,4.10852,3.1323,1364.197,0,,
1578,1,SBT2050,2,3,,7,2801.6,4.10915,3.1153,1368.451,0,,
1578,1,SBT2050,2,3,,7,2806.4,4.11036,3.102,1372.594,0,,
1578,1,SBT2050,2,3,,7,2811.2,4.11112,3.0939,1376.724,0,,
1578,1,SBT2050,2,3,,7,2816.1,4.11189,3.0766,1380.921,0,,
1578,1,SBT2050,2,3,,7,2820.9,4.11267,3.0631,1385.014,0,,
1578,1,SBT2050,2,3,,7,2825.8,4.1139,3.0564,1389.178,0,,
1578,1,SBT2050,2,3,,7,2830.6,4.1149,3.0461,1393.248,0,,
1578,1,SBT2050,2,3,,7,2835.5,4.11553,3.0277,1397.379,0,,
1578,1,SBT2050,2,3,,7,2840.3,4.11624,3.011,1401.406,0,,
1578,1,SBT2050,2,3,,7,2845.2,4.11668,2.9938,1405.491,0,,
1578,1,SBT2050,2,3,,7,2850,4.1175,2.9865,1409.478,0,,
1578,1,SBT2050,2,3,,7,2854.9,4.11875,2.9827,1413.54,0,,
1578,1,SBT2050,2,3,,7,2859.7,4.11978,2.9654,1417.505,0,,
1578,1,SBT2050,2,3,,7,2864.6,4.12078,2.9557,1421.532,0,,
1578,1,SBT2050,2,3,,7,2869.4,4.121414,2.9358,1425.46,0,,
1578,1,SBT2050,2,3,,7,2874.2,4.12223,2.9267,1429.367,0,,
1578,1,SBT2050,2,3,,7,2879.1,4.12308,2.9119,1433.344,0,,
1578,1,SBT2050,2,3,,7,2883.9,4.12374,2.9006,1437.218,0,,
1578,1,SBT2050,2,3,,7,2888.8,4.12492,2.8986,1441.165,0,,
1578,1,SBT2050,2,3,,7,2893.6,4.12546,2.8825,1445.018,0,,
1578,1,SBT2050,2,3,,7,2898.5,4.12674,2.8757,1448.935,0,,
1578,1,SBT2050,2,3,,7,2903.3,4.12836,2.8745,1452.768,0,,
1578,1,SBT2050,2,3,,7,2908.2,4.12872,2.8564,1456.667,0,,
1578,1,SBT2050,2,3,,7,2913,4.12976,2.8433,1460.47,0,,
1578,1,SBT2050,2,3,,7,2917.9,4.1304,2.8295,1464.33,0,,
1578,1,SBT2050,2,3,,7,2922.7,4.13162,2.8263,1468.1,0,,
1578,1,SBT2050,2,3,,7,2927.6,4.13226,2.8105,1471.935,0,,
1578,1,SBT2050,2,3,,7,2932.4,4.13347,2.8028,1475.675,0,,
1578,1,SBT2050,2,3,,7,2937.2,4.1347,2.7962,1479.41,0,,
1578,1,SBT2050,2,3,,7,2942.1,4.13544,2.7809,1483.204,0,,
1578,1,SBT2050,2,3,,7,2946.9,4.13619,2.7763,1486.908,0,,
1578,1,SBT2050,2,3,,7,2951.8,4.13786,2.7748,1490.686,0,,
1578,1,SBT2050,2,3,,7,2956.6,4.13889,2.7657,1494.381,0,,
1578,1,SBT2050,2,3,,7,2961.5,4.139556,2.7525,1498.134,0,,
1578,1,SBT2050,2,3,,7,2966.3,4.140532,2.7358,1501.796,0,,
1578,1,SBT2050,2,3,,7,2971.2,4.14107,2.7247,1505.511,0,,
1578,1,SBT2050,2,3,,7,2976,4.14232,2.7216,1509.141,0,,
1578,1,SBT2050,2,3,,7,2980.9,4.14264,2.7028,1512.833,0,,
1578,1,SBT2050,2,3,,7,2985.7,4.14392,2.6977,1516.433,0,,
1578,1,SBT2050,2,3,,7,2990.6,4.144958,2.6954,1520.103,0,,
1578,1,SBT2050,2,3,,7,2995.4,4.14607,2.6866,1523.693,0,,
1578,1,SBT2050,2,3,,7,3000.2,4.14687,2.6741,1527.266,0,,
1578,1,SBT2050,2,3,,7,3005.1,4.14791,2.6706,1530.903,0,,
1578,1,SBT2050,2,3,,7,3009.9,4.14902,2.6611,1534.462,0,,
1578,1,SBT2050,2,3,,7,3014.8,4.1501,2.6508,1538.076,0,,
1578,1,SBT2050,2,3,,7,3019.6,4.15116,2.6457,1541.606,0,,
1578,1,SBT2050,2,3,,7,3024.5,4.15236,2.6396,1545.205,0,,
1578,1,SBT2050,2,3,,7,3029.3,4.15281,2.6249,1548.713,0,,
1578,1,SBT2050,2,3,,7,3034.2,4.15391,2.6203,1552.282,0,,
1578,1,SBT2050,2,3,,7,3039,4.15525,2.6179,1555.774,0,,
1578,1,SBT2050,2,3,,7,3043.9,4.15686,2.6162,1559.337,0,,
1578,1,SBT2050,2,3,,7,3048.7,4.15778,2.6103,1562.823,0,,
1578,1,SBT2050,2,3,,7,3053.6,4.15829,2.5959,1566.363,0,,
1578,1,SBT2050,2,3,,7,3058.4,4.15971,2.5902,1569.82,0,,
1578,1,SBT2050,2,3,,7,3063.2,4.16025,2.5725,1573.26,0,,
1578,1,SBT2050,2,3,,7,3068.1,4.16093,2.5652,1576.756,0,,
1578,1,SBT2050,2,3,,7,3072.9,4.1624,2.5622,1580.174,0,,
1578,1,SBT2050,2,3,,7,3077.8,4.16362,2.5527,1583.657,0,,
1578,1,SBT2050,2,3,,7,3082.6,4.16387,2.5405,1587.05,0,,
1578,1,SBT2050,2,3,,7,3087.5,4.16531,2.5355,1590.504,0,,
1578,1,SBT2050,2,3,,7,3092.3,4.16573,2.5179,1593.871,0,,
1578,1,SBT2050,2,3,,7,3097.2,4.16657,2.5115,1597.293,0,,
1578,1,SBT2050,2,3,,7,3102,4.167586,2.5082,1600.639,0,,
1578,1,SBT2050,2,3,,7,3106.9,4.16927,2.5062,1604.052,0,,
1578,1,SBT2050,2,3,,7,3111.7,4.16959,2.4936,1607.386,0,,
1578,1,SBT2050,2,3,,7,3116.6,4.1704,2.4838,1610.771,0,,
1578,1,SBT2050,2,3,,7,3121.4,4.1717,2.4795,1614.079,0,,
1578,1,SBT2050,2,3,,7,3126.2,4.172686,2.4704,1617.381,0,,
1578,1,SBT2050,2,3,,7,3131.1,4.17324,2.4572,1620.733,0,,
1578,1,SBT2050,2,3,,7,3135.9,4.17446,2.4527,1624.007,0,,
1578,1,SBT2050,2,3,,7,3140.8,4.17496,2.4375,1627.334,0,,
1578,1,SBT2050,2,3,,7,3145.6,4.1757,2.4292,1630.576,0,,
1578,1,SBT2050,2,3,,7,3150.5,4.17692,2.4254,1633.88,0,,
1578,1,SBT2050,2,3,,7,3155.3,4.17798,2.4191,1637.112,0,,
1578,1,SBT2050,2,3,,7,3160.2,4.17851,2.405,1640.394,0,,
1578,1,SBT2050,2,3,,7,3165,4.17982,2.3998,1643.597,0,31.4,
1578,1,SBT2050,2,3,,7,3169.9,4.18064,2.3916,1646.857,0,,
1578,1,SBT2050,2,3,,7,3174.7,4.18158,2.3856,1650.044,0,,
1578,1,SBT2050,2,3,,7,3179.6,4.182282,2.3752,1653.282,0,,
1578,1,SBT2050,2,3,,7,3184.4,4.18311,2.3715,1656.446,0,,
1578,1,SBT2050,2,3,,7,3189.2,4.184394,2.3681,1659.606,0,,
1578,1,SBT2050,2,3,,7,3194.1,4.18472,2.352,1662.818,0,,
1578,1,SBT2050,2,3,,7,3198.9,4.18586,2.3459,1665.949,0,,
1578,1,SBT2050,2,3,,7,3203.8,4.18692,2.3424,1669.14,0,,
1578,1,SBT2050,2,3,,7,3208.6,4.18767,2.3297,1672.256,0,,
1578,1,SBT2050,2,3,,7,3213.5,4.18818,2.3203,1675.419,0,,
1578,1,SBT2050,2,3,,7,3218.3,4.189136,2.3159,1678.51,0,,
1578,1,SBT2050,2,3,,7,3223.2,4.18996,2.3035,1681.657,0,,
1578,1,SBT2050,2,3,,7,3228,4.1907,2.2944,1684.722,0,,
1578,1,SBT2050,2,3,,7,3232.9,4.19178,2.2909,1687.842,0,,
1578,1,SBT2050,2,3,,7,3237.7,4.19297,2.2872,1690.894,0,,
1578,1,SBT2050,2,3,,7,3242.6,4.19418,2.2848,1694.006,0,,
1578,1,SBT2050,2,3,,7,3247.4,4.19483,2.2731,1697.047,0,,
1578,1,SBT2050,2,3,,7,3252.2,4.19528,2.2633,1700.07,0,,
1578,1,SBT2050,2,3,,7,3257.1,4.196474,2.2589,1703.148,0,,
1578,1,SBT2050,2,3,,7,3261.9,4.197276,2.2501,1706.155,0,,
1578,1,SBT2050,2,3,,7,3266.8,4.19782,2.2387,1709.207,0,,
1578,1,SBT2050,2,3,,7,3271.6,4.19877,2.2301,1712.187,0,,
1578,1,SBT2050,2,3,,7,3276.5,4.19935,2.2178,1715.215,0,,
1578,1,SBT2050,2,3,,7,3281.3,4.200046,2.2108,1718.167,0,,
1578,1,SBT2050,2,3,,7,3286.2,4.201062,2.2074,1721.174,0,,
1578,1,SBT2050,2,3,,7,3291,4.20235,2.2045,1724.115,0,,
1578,1,SBT2050,2,3,,7,3295.9,4.20319,2.1912,1727.106,0,,
1578,1,SBT2050,2,3,,7,3300.7,4.2036,2.1836,1730.021,0,,
1578,1,SBT2050,2,3,,7,3305.6,4.20479,2.1795,1732.99,0,,
1578,1,SBT2050,2,3,,7,3310.4,4.20604,2.1766,1735.894,0,,
1578,1,SBT2050,2,3,,7,3315.2,4.206026,2.1611,1738.785,0,,
1578,1,SBT2050,2,3,,7,3320.1,4.20701,2.1548,1741.723,0,,
1578,1,SBT2050,2,3,,7,3324.9,4.20796,2.1516,1744.593,0,,
1578,1,SBT2050,2,3,,7,3329.8,4.20911,2.1482,1747.519,0,,
1578,1,SBT2050,2,3,,7,3334.6,4.21023,2.1426,1750.381,0,,
1578,1,SBT2050,2,3,,7,3339.5,4.21046,2.1304,1753.29,0,,
1578,1,SBT2050,2,3,,7,3344.3,4.21149,2.1239,1756.126,0,,
1578,1,SBT2050,2,3,,7,3349.2,4.21221,2.1198,1759.014,0,,
1578,1,SBT2050,2,3,,7,3354,4.21343,2.1164,1761.838,0,,
1578,1,SBT2050,2,3,,7,3358.9,4.21429,2.1104,1764.716,0,,
1578,1,SBT2050,2,3,,7,3363.7,4.21509,2.0975,1767.519,0,,
1578,1,SBT2050,2,3,,7,3368.6,4.21637,2.0988,1770.376,0,,
1578,1,SBT2050,2,3,,7,3373.4,4.21704,2.0896,1773.167,0,,
1578,1,SBT2050,2,3,,7,3378.2,4.217854,2.0847,1775.95,0,,
1578,1,SBT2050,2,3,,7,3383.1,4.21854,2.0773,1778.784,0,,
1578,1,SBT2050,2,3,,7,3387.9,4.2197,2.0731,1781.553,0,,
1578,1,SBT2050,2,3,,7,3392.8,4.2202,2.0614,1784.364,0,,
1578,1,SBT2050,2,3,,7,3397.6,4.22128,2.0562,1787.108,0,,
1578,1,SBT2050,2,3,,7,3402.5,4.22222,2.0518,1789.904,0,,
1578,1,SBT2050,2,3,,7,3407.3,4.22333,2.0478,1792.637,0,,
1578,1,SBT2050,2,3,,7,3412.2,4.22371,2.0386,1795.421,0,,
1578,1,SBT2050,2,3,,7,3417,4.22441,2.0283,1798.132,0,,
1578,1,SBT2050,2,3,,7,3421.9,4.22561,2.0239,1800.89,0,,
1578,1,SBT2050,2,3,,7,3426.7,4.22664,2.0198,1803.585,0,,
1578,1,SBT2050,2,3,,7,3431.6,4.22742,2.0157,1806.331,0,,
1578,1,SBT2050,2,3,,7,3436.4,4.22803,2.0061,1809.014,0,,
1578,1,SBT2050,2,3,,7,3441.2,4.22882,1.9966,1811.682,0,,
1578,1,SBT2050,2,3,,7,3446.1,4.22945,1.9906,1814.395,0,,
1578,1,SBT2050,2,3,,7,3450.9,4.23066,1.9876,1817.047,0,,
1578,1,SBT2050,2,3,,7,3455.8,4.231158,1.976,1819.745,0,,
1578,1,SBT2050,2,3,,7,3460.6,4.23195,1.9676,1822.373,0,,
1578,1,SBT2050,2,3,,7,3465.5,4.23274,1.9629,1825.048,0,,
1578,1,SBT2050,2,3,,7,3470.3,4.233444,1.9558,1827.662,0,,
1578,1,SBT2050,2,3,,7,3475.2,4.234044,1.9438,1830.315,0,,
1578,1,SBT2050,2,3,,7,3480,4.23466,1.9383,1832.904,0,29.9,
1578,1,SBT2050,2,3,,7,3484.9,4.2358,1.9353,1835.54,0,,
1578,1,SBT2050,2,3,,7,3489.7,4.23641,1.9317,1838.117,0,,
1578,1,SBT2050,2,3,,7,3494.6,4.23771,1.9277,1840.743,0,,
1578,1,SBT2050,2,3,,7,3499.4,4.238562,1.9237,1843.311,0,,
1578,1,SBT2050,2,3,,7,3504.2,4.239854,1.9199,1845.873,0,,
1578,1,SBT2050,2,3,,7,3509.1,4.24006,1.9061,1848.477,0,,
1578,1,SBT2050,2,3,,7,3513.9,4.24067,1.9008,1851.015,0,,
1578,1,SBT2050,2,3,,7,3518.8,4.24173,1.8961,1853.598,0,,
1578,1,SBT2050,2,3,,7,3523.6,4.24248,1.8921,1856.123,0,,
1578,1,SBT2050,2,3,,7,3528.5,4.24323,1.8837,1858.695,0,,
1578,1,SBT2050,2,3,,7,3533.3,4.243622,1.8732,1861.198,0,,
1578,1,SBT2050,2,3,,7,3538.2,4.24468,1.8683,1863.745,0,,
1578,1,SBT2050,2,3,,7,3543,4.24575,1.8644,1866.233,0,,
1578,1,SBT2050,2,3,,7,3547.9,4.24683,1.8612,1868.769,0,,
1578,1,SBT2050,2,3,,7,3552.7,4.24757,1.8547,1871.247,0,,
1578,1,SBT2050,2,3,,7,3557.6,4.24824,1.8431,1873.761,0,,
1578,1,SBT2050,2,3,,7,3562.4,4.24857,1.8374,1876.215,0,,
1578,1,SBT2050,2,3,,7,3567.2,4.24961,1.8334,1878.662,0,,
1578,1,SBT2050,2,3,,7,3572.1,4.250392,1.8299,1881.155,0,,
1578,1,SBT2050,2,3,,7,3576.9,4.25108,1.8195,1883.589,0,,
1578,1,SBT2050,2,3,,7,3581.8,4.25156,1.8113,1886.058,0,,
1578,1,SBT2050,2,3,,7,3586.6,4.252502,1.8064,1888.469,0,,
1578,1,SBT2050,2,3,,7,3591.5,4.25329,1.8026,1890.925,0,,
1578,1,SBT2050,2,3,,7,3596.3,4.254036,1.7991,1893.326,0,,
1578,1,SBT2050,2,3,,7,3601.2,4.25518,1.7952,1895.772,0,,
1578,1,SBT2050,2,3,,7,3606,4.25561,1.7817,1898.157,0,,
1578,1,SBT2050,2,3,,7,3610.9,4.25632,1.777,1900.579,0,,
1578,1,SBT2050,2,3,,7,3615.7,4.256988,1.7721,1902.944,0,,
1578,1,SBT2050,2,3,,7,3620.6,4.25797,1.7685,1905.354,0,,
1578,1,SBT2050,2,3,,7,3625.4,4.259144,1.765,1907.709,0,,
1578,1,SBT2050,2,3,,7,3630.2,4.25976,1.7562,1910.059,0,,
1578,1,SBT2050,2,3,,7,3635.1,4.26044,1.7461,1912.442,0,,
1578,1,SBT2050,2,3,,7,3639.9,4.26091,1.742,1914.768,0,,
1578,1,SBT2050,2,3,,7,3644.8,4.26217,1.7382,1917.135,0,,
1578,1,SBT2050,2,3,,7,3649.6,4.26299,1.7346,1919.45,0,,
1578,1,SBT2050,2,3,,7,3654.5,4.26398,1.7309,1921.809,0,,
1578,1,SBT2050,2,3,,7,3659.3,4.2649,1.7272,1924.114,0,,
1578,1,SBT2050,2,3,,7,3664.2,4.26572,1.7234,1926.462,0,,
1578,1,SBT2050,2,3,,7,3669,4.26692,1.7195,1928.758,0,29.3,
1578,1,SBT2050,2,3,,7,3673.9,4.26782,1.7123,1931.093,0,,
1578,1,SBT2050,2,3,,7,3678.7,4.26812,1.7024,1933.368,0,,
1578,1,SBT2050,2,3,,7,3683.6,4.268408,1.6968,1935.681,0,,
1578,1,SBT2050,2,3,,7,3688.4,4.26944,1.6931,1937.941,0,,
1578,1,SBT2050,2,3,,7,3693.2,4.27005,1.6844,1940.194,0,,
1578,1,SBT2050,2,3,,7,3698.1,4.27066,1.6745,1942.48,0,,
1578,1,SBT2050,2,3,,7,3702.9,4.27127,1.6704,1944.71,0,,
1578,1,SBT2050,2,3,,7,3707.8,4.27231,1.6664,1946.98,0,,
1578,1,SBT2050,2,3,,7,3712.6,4.2731,1.6629,1949.2,0,,
1578,1,SBT2050,2,3,,7,3717.5,4.27396,1.6596,1951.461,0,,
1578,1,SBT2050,2,3,,7,3722.3,4.27476,1.6559,1953.671,0,,
1578,1,SBT2050,2,3,,7,3727.2,4.2755,1.6473,1955.922,0,,
1578,1,SBT2050,2,3,,7,3732,4.27582,1.6381,1958.112,0,,
1578,1,SBT2050,2,3,,7,3736.9,4.27665,1.6335,1960.338,0,,
1578,1,SBT2050,2,3,,7,3741.7,4.2776,1.6297,1962.513,0,,
1578,1,SBT2050,2,3,,7,3746.6,4.27802,1.6264,1964.729,0,,
1578,1,SBT2050,2,3,,7,3751.4,4.27935,1.6231,1966.895,0,,
1578,1,SBT2050,2,3,,7,3756.2,4.28001,1.6168,1969.056,0,,
1578,1,SBT2050,2,3,,7,3761.1,4.2805,1.6054,1971.249,0,,
1578,1,SBT2050,2,3,,7,3765.9,4.28124,1.6007,1973.386,0,,
1578,1,SBT2050,2,3,,7,3770.8,4.28209,1.5968,1975.561,0,,
1578,1,SBT2050,2,3,,7,3775.6,4.2826,1.5931,1977.687,0,,
1578,1,SBT2050,2,3,,7,3780.5,4.283496,1.5899,1979.853,0,,
1578,1,SBT2050,2,3,,7,3785.3,4.28453,1.5867,1981.971,0,,
1578,1,SBT2050,2,3,,7,3790.2,4.28515,1.5797,1984.125,0,,
1578,1,SBT2050,2,3,,7,3795,4.28615,1.5744,1986.229,0,,
1578,1,SBT2050,2,3,,7,3799.9,4.28667,1.5667,1988.366,0,,
1578,1,SBT2050,2,3,,7,3804.7,4.28762,1.561,1990.45,0,,
1578,1,SBT2050,2,3,,7,3809.6,4.28806,1.5569,1992.571,0,,
1578,1,SBT2050,2,3,,7,3814.4,4.28885,1.554,1994.645,0,,
1578,1,SBT2050,2,3,,7,3819.2,4.28986,1.5456,1996.713,0,,
1578,1,SBT2050,2,3,,7,3824.1,4.290186,1.5368,1998.813,0,,
1578,1,SBT2050,2,3,,7,3828.9,4.290894,1.5316,2000.858,0,,
1578,1,SBT2050,2,3,,7,3833.8,4.291536,1.5277,2002.94,0,,
1578,1,SBT2050,2,3,,7,3838.6,4.292418,1.5243,2004.974,0,,
1578,1,SBT2050,2,3,,7,3843.5,4.293696,1.5211,2007.047,0,,
1578,1,SBT2050,2,3,,7,3848.3,4.29423,1.5183,2009.073,0,,
1578,1,SBT2050,2,3,,7,3853.2,4.295122,1.5149,2011.137,0,,
1578,1,SBT2050,2,3,,7,3858,4.296292,1.5119,2013.156,0,28.6,
1578,1,SBT2050,2,3,,7,3862.9,4.29676,1.5025,2015.208,0,,
1578,1,SBT2050,2,3,,7,3867.7,4.29707,1.4938,2017.204,0,,
1578,1,SBT2050,2,3,,7,3872.6,4.29773,1.4896,2019.233,0,,
1578,1,SBT2050,2,3,,7,3877.4,4.29886,1.4861,2021.217,0,,
1578,1,SBT2050,2,3,,7,3882.2,4.29922,1.4827,2023.196,0,,
1578,1,SBT2050,2,3,,7,3887.1,4.30045,1.4795,2025.212,0,,
1578,1,SBT2050,2,3,,7,3891.9,4.30091,1.4751,2027.182,0,,
1578,1,SBT2050,2,3,,7,3896.8,4.301424,1.4663,2029.185,0,,
1578,1,SBT2050,2,3,,7,3901.6,4.30194,1.4586,2031.134,0,,
1578,1,SBT2050,2,3,,7,3906.5,4.30275,1.4544,2033.116,0,,
1578,1,SBT2050,2,3,,7,3911.3,4.30361,1.4509,2035.053,0,,
1578,1,SBT2050,2,3,,7,3916.2,4.3044,1.4481,2037.026,0,,
1578,1,SBT2050,2,3,,7,3921,4.30515,1.4452,2038.955,0,,
1578,1,SBT2050,2,3,,7,3925.9,4.306318,1.4428,2040.92,0,,
1578,1,SBT2050,2,3,,7,3930.7,4.307352,1.4396,2042.841,0,,
1578,1,SBT2050,2,3,,7,3935.6,4.30762,1.4343,2044.798,0,,
1578,1,SBT2050,2,3,,7,3940.4,4.30804,1.4227,2046.702,0,,
1578,1,SBT2050,2,3,,7,3945.2,4.30928,1.42,2048.599,0,,
1578,1,SBT2050,2,3,,7,3950.1,4.309304,1.4144,2050.529,0,,
1578,1,SBT2050,2,3,,7,3954.9,4.31022,1.4115,2052.413,0,,
1578,1,SBT2050,2,3,,7,3959.8,4.31099,1.4084,2054.331,0,,
1578,1,SBT2050,2,3,,7,3964.6,4.31182,1.4056,2056.207,0,,
1578,1,SBT2050,2,3,,7,3969.5,4.31288,1.4025,2058.118,0,,
1578,1,SBT2050,2,3,,7,3974.3,4.31388,1.3999,2059.986,0,,
1578,1,SBT2050,2,3,,7,3979.2,4.31473,1.3966,2061.889,0,,
1578,1,SBT2050,2,3,,7,3984,4.3155,1.3939,2063.75,0,,
1578,1,SBT2050,2,3,,7,3988.9,4.31593,1.3866,2065.644,0,,
1578,1,SBT2050,2,3,,7,3993.7,4.31582,1.3767,2067.484,0,,
1578,1,SBT2050,2,3,,7,3998.6,4.31661,1.3718,2069.354,0,,
1578,1,SBT2050,2,3,,7,4003.4,4.31713,1.3684,2071.18,0,,
1578,1,SBT2050,2,3,,7,4008.201,4.31827,1.3658,2073.004,0,,
1578,1,SBT2050,2,3,,7,4013.1,4.31935,1.3631,2074.86,0,,
1578,1,SBT2050,2,3,,7,4017.9,4.32024,1.3607,2076.676,0,,
1578,1,SBT2050,2,3,,7,4022.8,4.32103,1.3578,2078.526,0,,
1578,1,SBT2050,2,3,,7,4027.6,4.32175,1.3551,2080.334,0,,
1578,1,SBT2050,2,3,,7,4032.5,4.32194,1.3444,2082.169,0,,
1578,1,SBT2050,2,3,,7,4037.3,4.32281,1.346,2083.962,0,,
1578,1,SBT2050,2,3,,7,4042.2,4.323314,1.3355,2085.786,0,,
1578,1,SBT2050,2,3,,7,4047,4.323724,1.33,2087.563,0,,
1578,1,SBT2050,2,3,,7,4051.9,4.32483,1.3274,2089.372,0,,
1578,1,SBT2050,2,3,,7,4056.7,4.32567,1.3247,2091.14,0,,
1578,1,SBT2050,2,3,,7,4061.6,4.32618,1.3219,2092.941,0,,
1578,1,SBT2050,2,3,,7,4066.4,4.32716,1.3192,2094.701,0,,
1578,1,SBT2050,2,3,,7,4071.215,4.32827,1.3166,2096.464,0,,
1578,1,SBT2050,2,3,,7,4076.1,4.32908,1.3139,2098.249,0,,
1578,1,SBT2050,2,3,,7,4080.9,4.3298,1.3119,2099.999,0,,
1578,1,SBT2050,2,3,,7,4085.8,4.33086,1.3066,2101.781,0,,
1578,1,SBT2050,2,3,,7,4090.6,4.33061,1.2954,2103.514,0,,
1578,1,SBT2050,2,3,,7,4095.5,4.3314,1.2923,2105.274,0,,
1578,1,SBT2050,2,3,,7,4100.3,4.33234,1.2925,2106.994,0,,
1578,1,SBT2050,2,3,,7,4105.2,4.332788,1.2872,2108.752,0,,
1578,1,SBT2050,2,3,,7,4110,4.33357,1.282,2110.465,0,,
1578,1,SBT2050,2,3,,7,4114.9,4.33422,1.2794,2112.208,0,,
1578,1,SBT2050,2,3,,7,4119.7,4.3351,1.2767,2113.911,0,,
1578,1,SBT2050,2,3,,7,4124.6,4.33589,1.2741,2115.647,0,,
1578,1,SBT2050,2,3,,7,4129.4,4.33688,1.2712,2117.344,0,,
1578,1,SBT2050,2,3,,7,4134.229,4.337558,1.2682,2119.048,0,,
1578,1,SBT2050,2,3,,7,4139.1,4.33848,1.2659,2120.762,0,,
1578,1,SBT2050,2,3,,7,4143.9,4.339254,1.2635,2122.449,0,,
1578,1,SBT2050,2,3,,7,4148.8,4.33942,1.255,2124.161,0,,
1578,1,SBT2050,2,3,,7,4153.6,4.340168,1.2507,2125.831,0,,
1578,1,SBT2050,2,3,,7,4158.5,4.34082,1.2477,2127.531,0,,
1578,1,SBT2050,2,3,,7,4163.3,4.34204,1.2483,2129.197,0,,
1578,1,SBT2050,2,3,,7,4168.2,4.34229,1.2391,2130.889,0,,
1578,1,SBT2050,2,3,,7,4173,4.34266,1.2349,2132.539,0,,
1578,1,SBT2050,2,3,,7,4177.9,4.343416,1.2323,2134.218,0,,
1578,1,SBT2050,2,3,,7,4182.7,4.34407,1.2297,2135.859,0,,
1578,1,SBT2050,2,3,,7,4187.6,4.345054,1.2271,2137.531,0,,
1578,1,SBT2050,2,3,,7,4192.4,4.34575,1.2246,2139.165,0,,
1578,1,SBT2050,2,3,,7,4197.243,4.34648,1.2221,2140.811,0,,
1578,1,SBT2050,2,3,,7,4202.1,4.34714,1.2193,2142.457,0,,
1578,1,SBT2050,2,3,,7,4206.9,4.347846,1.2171,2144.082,0,,
1578,1,SBT2050,2,3,,7,4211.8,4.348398,1.2117,2145.735,0,,
1578,1,SBT2050,2,3,,7,4216.6,4.34933,1.2109,2147.35,0,,
1578,1,SBT2050,2,3,,7,4221.5,4.35007,1.2062,2148.997,0,,
1578,1,SBT2050,2,3,,7,4226.3,4.34976,1.196,2150.597,0,,
1578,1,SBT2050,2,3,,7,4231.2,4.35129,1.2004,2152.227,0,,
1578,1,SBT2050,2,3,,7,4236,4.35229,1.2006,2153.828,0,,
1578,1,SBT2050,2,3,,7,4240.9,4.35313,1.1992,2155.461,0,,
1578,1,SBT2050,2,3,,7,4245.7,4.3539,1.1939,2157.057,0,,
1578,1,SBT2050,2,3,,7,4250.6,4.353394,1.1835,2158.673,0,,
1578,1,SBT2050,2,3,,7,4255.4,4.3541,1.1792,2160.248,0,,
1578,1,SBT2050,2,3,,7,4260.257,4.35457,1.176,2161.837,0,,
1578,1,SBT2050,2,3,,7,4265.1,4.35567,1.1781,2163.42,0,,
1578,1,SBT2050,2,3,,7,4269.9,4.35718,1.1815,2164.994,0,,
1578,1,SBT2050,2,3,,7,4274.8,4.357772,1.1775,2166.6,0,,
1578,1,SBT2050,2,3,,7,4279.6,4.35762,1.1684,2168.163,0,,
1578,1,SBT2050,2,3,,7,4284.5,4.35791,1.1643,2169.75,0,,
1578,1,SBT2050,2,3,,7,4289.3,4.3588,1.1616,2171.3,0,,
1578,1,SBT2050,2,3,,7,4294.2,4.35962,1.159,2172.88,0,,
1578,1,SBT2050,2,3,,7,4299,4.36019,1.1565,2174.424,0,,
1578,1,SBT2050,2,3,,7,4303.9,4.3606,1.1543,2175.996,0,,
1578,1,SBT2050,2,3,,7,4308.7,4.36139,1.1518,2177.533,0,,
1578,1,SBT2050,2,3,,7,4313.6,4.36266,1.1556,2179.102,0,,
1578,1,SBT2050,2,3,,7,4318.4,4.36249,1.1476,2180.637,0,,
1578,1,SBT2050,2,3,,7,4323.271,4.36342,1.1466,2182.188,0,,
1578,1,SBT2050,2,3,,7,4328.1,4.36506,1.1494,2183.729,0,,
1578,1,SBT2050,2,3,,7,4332.9,4.36573,1.1479,2185.26,0,,
1578,1,SBT2050,2,3,,7,4337.8,4.3662,1.145,2186.82,0,,
1578,1,SBT2050,2,3,,7,4342.6,4.36663,1.1406,2188.343,0,,
1578,1,SBT2050,2,3,,7,4347.5,4.36712,1.1365,2189.889,0,,
1578,1,SBT2050,2,3,,7,4352.3,4.36797,1.1363,2191.405,0,,
1578,1,SBT2050,2,3,,7,4357.2,4.368362,1.1335,2192.95,0,,
1578,1,SBT2050,2,3,,7,4362,4.369,1.1295,2194.456,0,,
1578,1,SBT2050,2,3,,7,4366.9,4.36962,1.1263,2195.989,0,,
1578,1,SBT2050,2,3,,7,4371.7,4.370364,1.1255,2197.491,0,,
1578,1,SBT2050,2,3,,7,4376.6,4.37077,1.1224,2199.02,0,,
1578,1,SBT2050,2,3,,7,4381.4,4.371432,1.1197,2200.515,0,,
1578,1,SBT2050,2,3,,7,4386.285,4.37185,1.1168,2202.033,0,,
1578,1,SBT2050,2,3,,7,4391.1,4.37225,1.1136,2203.524,0,,
1578,1,SBT2050,2,3,,7,4395.9,4.37262,1.1115,2205.007,0,,
1578,1,SBT2050,2,3,,7,4400.8,4.37363,1.1088,2206.518,0,,
1578,1,SBT2050,2,3,,7,4405.6,4.37395,1.1057,2207.994,0,,
1578,1,SBT2050,2,3,,7,4410.5,4.37419,1.1031,2209.498,0,,
1578,1,SBT2050,2,3,,7,4415.3,4.374656,1.1004,2210.967,0,,
1578,1,SBT2050,2,3,,7,4420.2,4.37566,1.1007,2212.463,0,,
1578,1,SBT2050,2,3,,7,4425,4.37614,1.0983,2213.928,0,,
1578,1,SBT2050,2,3,,7,4429.9,4.37667,1.0927,2215.417,0,,
1578,1,SBT2050,2,3,,7,4434.7,4.37692,1.0898,2216.872,0,,
1578,1,SBT2050,2,3,,7,4439.6,4.37751,1.0872,2218.354,0,,
1578,1,SBT2050,2,3,,7,4444.4,4.377574,1.084,2219.801,0,,
1578,1,SBT2050,2,3,,7,4449.299,4.378278,1.0843,2221.275,0,,
1578,1,SBT2050,2,3,,7,4454.1,4.3788,1.0811,2222.719,0,,
1578,1,SBT2050,2,3,,7,4458.9,4.379288,1.079,2224.159,0,,
1578,1,SBT2050,2,3,,7,4463.8,4.37995,1.0763,2225.626,0,,
1578,1,SBT2050,2,3,,7,4468.6,4.3801,1.0735,2227.059,0,,
1578,1,SBT2050,2,3,,7,4473.5,4.38063,1.0709,2228.518,0,,
1578,1,SBT2050,2,3,,7,4478.3,4.381202,1.0683,2229.944,0,,
1578,1,SBT2050,2,3,,7,4483.2,4.38153,1.0655,2231.396,0,,
1578,1,SBT2050,2,3,,7,4488,4.381644,1.0635,2232.816,0,,
1578,1,SBT2050,2,3,,7,4492.9,4.3823,1.0612,2234.261,0,,
1578,1,SBT2050,2,3,,7,4497.7,4.38245,1.0583,2235.673,0,,
1578,1,SBT2050,2,3,,7,4502.6,4.38346,1.0585,2237.114,0,,
1578,1,SBT2050,2,3,,7,4507.4,4.383204,1.053,2238.522,0,,
1578,1,SBT2050,2,3,,7,4512.3,4.38405,1.0532,2239.957,0,,
1578,1,SBT2050,2,3,,7,4517.1,4.3843,1.0508,2241.36,0,,
1578,1,SBT2050,2,3,,7,4521.9,4.38469,1.0487,2242.76,0,,
1578,1,SBT2050,2,3,,7,4526.8,4.38515,1.0463,2244.185,0,,
1578,1,SBT2050,2,3,,7,4531.6,4.38516,1.0442,2245.579,0,,
1578,1,SBT2050,2,3,,7,4536.5,4.38539,1.0416,2246.998,0,,
1578,1,SBT2050,2,3,,7,4541.3,4.38586,1.0392,2248.385,0,,
1578,1,SBT2050,2,3,,7,4546.2,4.386,1.0368,2249.799,0,,
1578,1,SBT2050,2,3,,7,4551,4.3864,1.0349,2251.18,0,,
1578,1,SBT2050,2,3,,7,4555.9,4.38689,1.0349,2252.59,0,,
1578,1,SBT2050,2,3,,7,4560.7,4.38747,1.0328,2253.968,0,,
1578,1,SBT2050,2,3,,7,4565.6,4.38741,1.0305,2255.372,0,,
1578,1,SBT2050,2,3,,7,4570.4,4.38766,1.0281,2256.744,0,,
1578,1,SBT2050,2,3,,7,4575.3,4.3875,1.0258,2258.142,0,,
1578,1,SBT2050,2,3,,7,4580.1,4.38808,1.0237,2259.509,0,,
1578,1,SBT2050,2,3,,7,4584.9,4.3885,1.0217,2260.872,0,,
1578,1,SBT2050,2,3,,7,4589.8,4.388862,1.0222,2262.265,0,,
1578,1,SBT2050,2,3,,7,4594.6,4.388752,1.0201,2263.626,0,,
1578,1,SBT2050,2,3,,7,4599.5,4.38911,1.018,2265.013,0,,
1578,1,SBT2050,2,3,,7,4604.3,4.38946,1.0184,2266.371,0,,
1578,1,SBT2050,2,3,,7,4609.2,4.38957,1.016,2267.755,0,,
1578,1,SBT2050,2,3,,7,4614,4.38953,1.0146,2269.108,0,,
1578,1,SBT2050,2,3,,7,4618.9,4.389744,1.0125,2270.487,0,,
1578,1,SBT2050,2,3,,7,4623.7,4.39026,1.0105,2271.836,0,,
1578,1,SBT2050,2,3,,7,4626.688,4.389964,1.0094,2272.674,0,,