File: ORRG/Test1572.csv
Request Year:,2018,,,,,,,,,,,,,,
Test:,1572,,,,,,,,,,,,,,
Test Description:,,,,,,,,,,,,,,,
TestRegime Name:,Aging_test caseB_1,,,,,,,,,,,,,,
TestRegime Suffix:,SHP_LC,,,,,,,,,,,,,,
TestRegime CellSize:,18650,,,,,,,,,,,,,,
TestRegime Version:,3,,,,,,,,,,,,,,
Number Of Cells:,1,,,,,,,,,,,,,,
LotID:,,,,,,,,,,,,,,,
Lot Description:,,,,,,,,,,,,,,,
Date Made:,1/21/2003 12:00 AM,,,,,,,,,,,,,,
Origin:,Other,,,,,,,,,,,,,,
Requestor:,Admin,,,,,,,,,,,,,,
Product ID:,Default product,,,,,,,,,,,,,,
Storage Temp:,R.T./AMB,,,,,,,,,,,,,,
Storage Delay:,0 days,,,,,,,,,,,,,,
Test Temp:,R.T./AMB,,,,,,,,,,,,,,
Start Time:,4/27/2018 9:03 AM,,,,,,,,,,,,,,
End Time:,4/27/2018 10:21 AM,,,,,,,,,,,,,,
Operator Instructions:,,,,,,,,,,,,,,,
Test,Cell,Rack,Shelf,Position,Cell ID,Step,Total Time (Seconds),Voltage (V),Current (A),Charge Capacity (mAh),Discharge Capacity (mAh),DisableTrigger (None),Iw (mA),Trs (Â°C),
1572,1,SBT2050,2,3,,0,0.1,3.315678,0,0,0,0,0,,
1572,1,SBT2050,2,3,,0,5.8,3.31585,0,0,0,0,0,,
1572,1,SBT2050,2,3,,0,11.5,3.31574,0,0,0,0,0,,
1572,1,SBT2050,2,3,,0,17.2,3.31581,0,0,0,0,0,,
1572,1,SBT2050,2,3,,0,22.9,3.31568,0,0,0,0,0,,
1572,1,SBT2050,2,3,,0,28.6,3.31579,0,0,0,0,0,,
1572,1,SBT2050,2,3,,0,34.3,3.31562,0,0,0,0,0,,
1572,1,SBT2050,2,3,,0,40,3.31573,0,0,0,0,0,,
1572,1,SBT2050,2,3,,0,45.7,3.3158,0,0,0,0,0,,
1572,1,SBT2050,2,3,,0,51.4,3.31566,0,0,0,0,0,,
1572,1,SBT2050,2,3,,0,57.1,3.31554,0,0,0,0,0,,
1572,1,SBT2050,2,3,,0,62.8,3.31552,0,0,0,0,0,,
1572,1,SBT2050,2,3,,0,68.5,3.31574,0,0,0,0,0,,
1572,1,SBT2050,2,3,,0,74.2,3.31541,0,0,0,0,0,,
1572,1,SBT2050,2,3,,0,79.9,3.31578,0,0,0,0,0,,
1572,1,SBT2050,2,3,,0,85.6,3.31582,0,0,0,0,0,,
1572,1,SBT2050,2,3,,0,91.3,3.3158,0,0,0,0,0,,
1572,1,SBT2050,2,3,,0,97,3.315852,0,0,0,0,0,,
1572,1,SBT2050,2,3,,0,102.7,3.31565,0,0,0,0,0,,
1572,1,SBT2050,2,3,,0,108.4,3.315673,0,0,0,0,0,,
1572,1,SBT2050,2,3,,0,114.1,3.31568,0,0,0,0,0,,
1572,1,SBT2050,2,3,,0,119.8,3.315779,0,0,0,0,0,,
1572,1,SBT2050,2,3,,0,125.5,3.31553,0,0,0,0,0,,
1572,1,SBT2050,2,3,,0,131.2,3.31547,0,0,0,0,0,,
1572,1,SBT2050,2,3,,0,136.9,3.31567,0,0,0,0,0,,
1572,1,SBT2050,2,3,,0,142.6,3.31568,0,0,0,0,0,,
1572,1,SBT2050,2,3,,0,148.3,3.315616,0,0,0,0,0,,
1572,1,SBT2050,2,3,,0,154,3.31582,0,0,0,0,0,,
1572,1,SBT2050,2,3,,0,159.7,3.315637,0,0,0,0,0,,
1572,1,SBT2050,2,3,,0,165.4,3.31582,0,0,0,0,0,,
1572,1,SBT2050,2,3,,0,171.1,3.31575,0,0,0,0,0,,
1572,1,SBT2050,2,3,,0,176.8,3.31564,0,0,0,0,0,,
1572,1,SBT2050,2,3,,0,182.5,3.3156,0,0,0,0,0,,
1572,1,SBT2050,2,3,,0,188.2,3.31562,0,0,0,0,0,,
1572,1,SBT2050,2,3,,0,193.9,3.31581,0,0,0,0,0,,
1572,1,SBT2050,2,3,,0,199.6,3.31568,0,0,0,0,0,,
1572,1,SBT2050,2,3,,0,205.3,3.31553,0,0,0,0,0,,
1572,1,SBT2050,2,3,,0,211,3.31554,0,0,0,0,0,,
1572,1,SBT2050,2,3,,0,216.7,3.31548,0,0,0,0,0,,
1572,1,SBT2050,2,3,,0,222.4,3.31562,0,0,0,0,0,,
1572,1,SBT2050,2,3,,0,228.1,3.31579,0,0,0,0,0,,
1572,1,SBT2050,2,3,,0,233.8,3.31595,0,0,0,0,0,,
1572,1,SBT2050,2,3,,0,239.5,3.31575,0,0,0,0,0,,
1572,1,SBT2050,2,3,,0,245.2,3.31565,0,0,0,0,0,,
1572,1,SBT2050,2,3,,0,250.9,3.31569,0,0,0,0,0,,
1572,1,SBT2050,2,3,,0,256.6,3.31583,0,0,0,0,0,,
1572,1,SBT2050,2,3,,0,262.3,3.315834,0,0,0,0,0,,
1572,1,SBT2050,2,3,,0,268,3.31571,0,0,0,0,0,,
1572,1,SBT2050,2,3,,0,273.7,3.31565,0,0,0,0,0,,
1572,1,SBT2050,2,3,,0,279.4,3.31589,0,0,0,0,0,,
1572,1,SBT2050,2,3,,0,285.1,3.3158,0,0,0,0,0,,
1572,1,SBT2050,2,3,,0,290.8,3.315786,0,0,0,0,0,,
1572,1,SBT2050,2,3,,0,296.5,3.31593,0,0,0,0,0,,
1572,1,SBT2050,2,3,,0,302.2,3.31589,0,0,0,0,0,,
1572,1,SBT2050,2,3,,0,307.9,3.31573,0,0,0,0,0,,
1572,1,SBT2050,2,3,,0,313.6,3.315704,0,0,0,0,0,,
1572,1,SBT2050,2,3,,0,319.3,3.315584,0,0,0,0,0,,
1572,1,SBT2050,2,3,,0,325,3.31544,0,0,0,0,0,,
1572,1,SBT2050,2,3,,0,330.7,3.315787,0,0,0,0,0,,
1572,1,SBT2050,2,3,,0,336.4,3.315558,0,0,0,0,0,,
1572,1,SBT2050,2,3,,0,342.1,3.31554,0,0,0,0,0,,
1572,1,SBT2050,2,3,,0,347.8,3.31558,0,0,0,0,0,,
1572,1,SBT2050,2,3,,0,353.5,3.31565,0,0,0,0,0,,
1572,1,SBT2050,2,3,,0,359.2,3.31561,0,0,0,0,0,,
1572,1,SBT2050,2,3,,0,364.9,3.31553,0,0,0,0,0,,
1572,1,SBT2050,2,3,,0,370.6,3.31555,0,0,0,0,0,,
1572,1,SBT2050,2,3,,0,376.3,3.315592,0,0,0,0,0,,
1572,1,SBT2050,2,3,,0,382,3.31595,0,0,0,0,0,,
1572,1,SBT2050,2,3,,0,387.7,3.315724,0,0,0,0,0,,
1572,1,SBT2050,2,3,,0,393.4,3.31555,0,0,0,0,0,,
1572,1,SBT2050,2,3,,0,399.1,3.31554,0,0,0,0,0,,
1572,1,SBT2050,2,3,,0,404.8,3.31576,0,0,0,0,0,,
1572,1,SBT2050,2,3,,0,410.5,3.3158,0,0,0,0,0,,
1572,1,SBT2050,2,3,,0,416.2,3.31539,0,0,0,0,0,,
1572,1,SBT2050,2,3,,0,421.9,3.315614,0,0,0,0,0,,
1572,1,SBT2050,2,3,,0,427.6,3.31548,0,0,0,0,0,,
1572,1,SBT2050,2,3,,0,433.3,3.31569,0,0,0,0,0,,
1572,1,SBT2050,2,3,,0,439,3.31558,0,0,0,0,0,,
1572,1,SBT2050,2,3,,0,444.7,3.31567,0,0,0,0,0,,
1572,1,SBT2050,2,3,,0,450.4,3.31546,0,0,0,0,0,,
1572,1,SBT2050,2,3,,0,456.1,3.3156,0,0,0,0,0,,
1572,1,SBT2050,2,3,,0,461.8,3.31588,0,0,0,0,0,,
1572,1,SBT2050,2,3,,0,467.5,3.31562,0,0,0,0,0,,
1572,1,SBT2050,2,3,,0,473.2,3.31595,0,0,0,0,0,,
1572,1,SBT2050,2,3,,0,478.9,3.31589,0,0,0,0,0,,
1572,1,SBT2050,2,3,,0,484.6,3.3156,0,0,0,0,0,,
1572,1,SBT2050,2,3,,0,490.3,3.31559,0,0,0,0,0,,
1572,1,SBT2050,2,3,,0,496,3.315569,0,0,0,0,0,,
1572,1,SBT2050,2,3,,0,501.7,3.31566,0,0,0,0,0,,
1572,1,SBT2050,2,3,,0,507.4,3.31563,0,0,0,0,0,,
1572,1,SBT2050,2,3,,0,513.1,3.31554,0,0,0,0,0,,
1572,1,SBT2050,2,3,,0,518.8,3.31548,0,0,0,0,0,,
1572,1,SBT2050,2,3,,0,524.5,3.315375,0,0,0,0,0,,
1572,1,SBT2050,2,3,,0,530.2,3.31562,0,0,0,0,0,,
1572,1,SBT2050,2,3,,0,535.9,3.31569,0,0,0,0,0,,
1572,1,SBT2050,2,3,,0,541.6,3.31538,0,0,0,0,0,,
1572,1,SBT2050,2,3,,0,547.3,3.3154,0,0,0,0,0,,
1572,1,SBT2050,2,3,,0,553,3.31552,0,0,0,0,0,24.9,
1572,1,SBT2050,2,3,,0,558.7,3.315768,0,0,0,0,0,,
1572,1,SBT2050,2,3,,0,564.4,3.31559,0,0,0,0,0,,
1572,1,SBT2050,2,3,,0,570.1,3.31586,0,0,0,0,0,,
1572,1,SBT2050,2,3,,0,575.8,3.3159,0,0,0,0,0,,
1572,1,SBT2050,2,3,,0,581.5,3.31588,0,0,0,0,0,,
1572,1,SBT2050,2,3,,0,587.2,3.31607,0,0,0,0,0,,
1572,1,SBT2050,2,3,,0,592.9,3.3159,0,0,0,0,0,,
1572,1,SBT2050,2,3,,0,598.6,3.31585,0,0,0,0,0,,
1572,1,SBT2050,2,3,,0,604.3,3.31597,0,0,0,0,0,,
1572,1,SBT2050,2,3,,0,610,3.31597,0,0,0,0,0,,
1572,1,SBT2050,2,3,,0,615.7,3.31579,0,0,0,0,0,,
1572,1,SBT2050,2,3,,0,621.4,3.315875,0,0,0,0,0,,
1572,1,SBT2050,2,3,,0,627.1,3.31562,0,0,0,0,0,,
1572,1,SBT2050,2,3,,0,632.8,3.31588,0,0,0,0,0,,
1572,1,SBT2050,2,3,,0,638.5,3.31571,0,0,0,0,0,,
1572,1,SBT2050,2,3,,0,644.2,3.31585,0,0,0,0,0,,
1572,1,SBT2050,2,3,,0,649.9,3.31553,0,0,0,0,0,,
1572,1,SBT2050,2,3,,0,655.6,3.3157,0,0,0,0,0,,
1572,1,SBT2050,2,3,,0,661.3,3.3158,0,0,0,0,0,,
1572,1,SBT2050,2,3,,0,667,3.31574,0,0,0,0,0,,
1572,1,SBT2050,2,3,,0,672.7,3.31596,0,0,0,0,0,,
1572,1,SBT2050,2,3,,0,678.4,3.31571,0,0,0,0,0,,
1572,1,SBT2050,2,3,,0,684.1,3.31578,0,0,0,0,0,,
1572,1,SBT2050,2,3,,0,689.8,3.31581,0,0,0,0,0,,
1572,1,SBT2050,2,3,,0,695.5,3.31576,0,0,0,0,0,,
1572,1,SBT2050,2,3,,0,701.2,3.315603,0,0,0,0,0,,
1572,1,SBT2050,2,3,,0,706.9,3.31554,0,0,0,0,0,,
1572,1,SBT2050,2,3,,0,712.6,3.31555,0,0,0,0,0,,
1572,1,SBT2050,2,3,,0,718.3,3.31563,0,0,0,0,0,,
1572,1,SBT2050,2,3,,0,724,3.31564,0,0,0,0,0,,
1572,1,SBT2050,2,3,,0,729.7,3.31581,0,0,0,0,0,,
1572,1,SBT2050,2,3,,0,735.4,3.31572,0,0,0,0,0,,
1572,1,SBT2050,2,3,,0,741.1,3.31579,0,0,0,0,0,,
1572,1,SBT2050,2,3,,0,746.8,3.315699,0,0,0,0,0,,
1572,1,SBT2050,2,3,,0,752.5,3.31555,0,0,0,0,0,,
1572,1,SBT2050,2,3,,0,758.2,3.315719,0,0,0,0,0,,
1572,1,SBT2050,2,3,,0,763.9,3.31585,0,0,0,0,0,,
1572,1,SBT2050,2,3,,0,769.6,3.315909,0,0,0,0,0,,
1572,1,SBT2050,2,3,,0,775.3,3.31574,0,0,0,0,0,,
1572,1,SBT2050,2,3,,0,781,3.31566,0,0,0,0,0,,
1572,1,SBT2050,2,3,,0,786.7,3.31569,0,0,0,0,0,,
1572,1,SBT2050,2,3,,0,792.4,3.31562,0,0,0,0,0,,
1572,1,SBT2050,2,3,,0,798.1,3.31587,0,0,0,0,0,,
1572,1,SBT2050,2,3,,0,803.8,3.31577,0,0,0,0,0,,
1572,1,SBT2050,2,3,,0,809.5,3.31593,0,0,0,0,0,,
1572,1,SBT2050,2,3,,0,815.2,3.31604,0,0,0,0,0,,
1572,1,SBT2050,2,3,,0,820.9,3.31574,0,0,0,0,0,,
1572,1,SBT2050,2,3,,0,826.6,3.31575,0,0,0,0,0,,
1572,1,SBT2050,2,3,,0,832.3,3.315556,0,0,0,0,0,,
1572,1,SBT2050,2,3,,0,838,3.31582,0,0,0,0,0,,
1572,1,SBT2050,2,3,,0,843.7,3.31594,0,0,0,0,0,,
1572,1,SBT2050,2,3,,0,849.4,3.315788,0,0,0,0,0,,
1572,1,SBT2050,2,3,,0,855.1,3.315855,0,0,0,0,0,,
1572,1,SBT2050,2,3,,0,860.8,3.31579,0,0,0,0,0,,
1572,1,SBT2050,2,3,,0,866.5,3.31595,0,0,0,0,0,,
1572,1,SBT2050,2,3,,0,872.2,3.31575,0,0,0,0,0,,
1572,1,SBT2050,2,3,,0,877.9,3.31584,0,0,0,0,0,,
1572,1,SBT2050,2,3,,0,883.6,3.315898,0,0,0,0,0,,
1572,1,SBT2050,2,3,,0,889.3,3.315987,0,0,0,0,0,,
1572,1,SBT2050,2,3,,0,895,3.31587,0,0,0,0,0,,
1572,1,SBT2050,2,3,,0,900.7,3.31584,0,0,0,0,0,,
1572,1,SBT2050,2,3,,0,906.4,3.31579,0,0,0,0,0,,
1572,1,SBT2050,2,3,,0,912.1,3.31594,0,0,0,0,0,,
1572,1,SBT2050,2,3,,0,917.8,3.315812,0,0,0,0,0,,
1572,1,SBT2050,2,3,,0,923.5,3.31571,0,0,0,0,0,,
1572,1,SBT2050,2,3,,0,929.2,3.31592,0,0,0,0,0,,
1572,1,SBT2050,2,3,,0,934.9,3.31578,0,0,0,0,0,,
1572,1,SBT2050,2,3,,0,940.6,3.31585,0,0,0,0,0,,
1572,1,SBT2050,2,3,,0,946.3,3.315859,0,0,0,0,0,,
1572,1,SBT2050,2,3,,0,952,3.31577,0,0,0,0,0,,
1572,1,SBT2050,2,3,,0,957.7,3.31603,0,0,0,0,0,,
1572,1,SBT2050,2,3,,0,963.4,3.31585,0,0,0,0,0,,
1572,1,SBT2050,2,3,,0,969.1,3.31585,0,0,0,0,0,,
1572,1,SBT2050,2,3,,0,974.8,3.316,0,0,0,0,0,,
1572,1,SBT2050,2,3,,0,980.5,3.31572,0,0,0,0,0,,
1572,1,SBT2050,2,3,,0,986.2,3.31587,0,0,0,0,0,,
1572,1,SBT2050,2,3,,0,991.9,3.3158,0,0,0,0,0,,
1572,1,SBT2050,2,3,,0,997.6,3.31592,0,0,0,0,0,,
1572,1,SBT2050,2,3,,0,1003.3,3.31589,0,0,0,0,0,,
1572,1,SBT2050,2,3,,0,1009,3.31589,0,0,0,0,0,,
1572,1,SBT2050,2,3,,0,1014.7,3.31573,0,0,0,0,0,,
1572,1,SBT2050,2,3,,0,1020.4,3.315821,0,0,0,0,0,,
1572,1,SBT2050,2,3,,0,1026.1,3.3159,0,0,0,0,0,,
1572,1,SBT2050,2,3,,0,1031.8,3.31571,0,0,0,0,0,,
1572,1,SBT2050,2,3,,0,1037.5,3.31587,0,0,0,0,0,,
1572,1,SBT2050,2,3,,0,1043.2,3.31565,0,0,0,0,0,,
1572,1,SBT2050,2,3,,0,1048.9,3.3159,0,0,0,0,0,,
1572,1,SBT2050,2,3,,0,1054.6,3.315831,0,0,0,0,0,,
1572,1,SBT2050,2,3,,0,1060.3,3.31582,0,0,0,0,0,,
1572,1,SBT2050,2,3,,0,1066,3.315876,0,0,0,0,0,,
1572,1,SBT2050,2,3,,0,1071.7,3.31587,0,0,0,0,0,,
1572,1,SBT2050,2,3,,0,1077.4,3.315894,0,0,0,0,0,,
1572,1,SBT2050,2,3,,0,1083.1,3.315776,0,0,0,0,0,,
1572,1,SBT2050,2,3,,0,1088.8,3.31573,0,0,0,0,0,,
1572,1,SBT2050,2,3,,0,1094.5,3.315848,0,0,0,0,0,,
1572,1,SBT2050,2,3,,0,1100.2,3.31584,0,0,0,0,0,,
1572,1,SBT2050,2,3,,0,1105.9,3.3156,0,0,0,0,0,,
1572,1,SBT2050,2,3,,0,1111.6,3.31573,0,0,0,0,0,,
1572,1,SBT2050,2,3,,0,1117.3,3.31594,0,0,0,0,0,,
1572,1,SBT2050,2,3,,0,1123,3.315998,0,0,0,0,0,24.9,
1572,1,SBT2050,2,3,,0,1128.7,3.315883,0,0,0,0,0,,
1572,1,SBT2050,2,3,,0,1134.4,3.31597,0,0,0,0,0,,
1572,1,SBT2050,2,3,,0,1140.1,3.31592,0,0,0,0,0,,
1572,1,SBT2050,2,3,,0,1145.8,3.31612,0,0,0,0,0,,
1572,1,SBT2050,2,3,,0,1151.5,3.31591,0,0,0,0,0,,
1572,1,SBT2050,2,3,,0,1157.2,3.315892,0,0,0,0,0,,
1572,1,SBT2050,2,3,,0,1162.9,3.31592,0,0,0,0,0,,
1572,1,SBT2050,2,3,,0,1168.6,3.3161,0,0,0,0,0,,
1572,1,SBT2050,2,3,,0,1174.3,3.31605,0,0,0,0,0,,
1572,1,SBT2050,2,3,,0,1180,3.3158,0,0,0,0,0,,
1572,1,SBT2050,2,3,,0,1185.7,3.3159,0,0,0,0,0,,
1572,1,SBT2050,2,3,,0,1191.4,3.31578,0,0,0,0,0,,
1572,1,SBT2050,2,3,,0,1197.1,3.3161,0,0,0,0,0,,
1572,1,SBT2050,2,3,,0,1202.8,3.315853,0,0,0,0,0,,
1572,1,SBT2050,2,3,,0,1208.5,3.31583,0,0,0,0,0,,
1572,1,SBT2050,2,3,,0,1214.2,3.31579,0,0,0,0,0,,
1572,1,SBT2050,2,3,,0,1219.9,3.31585,0,0,0,0,0,,
1572,1,SBT2050,2,3,,0,1225.6,3.31584,0,0,0,0,0,,
1572,1,SBT2050,2,3,,0,1231.3,3.3159,0,0,0,0,0,,
1572,1,SBT2050,2,3,,0,1237,3.31566,0,0,0,0,0,,
1572,1,SBT2050,2,3,,0,1242.7,3.31603,0,0,0,0,0,,
1572,1,SBT2050,2,3,,0,1248.4,3.31588,0,0,0,0,0,,
1572,1,SBT2050,2,3,,0,1254.1,3.3158,0,0,0,0,0,,
1572,1,SBT2050,2,3,,0,1259.8,3.31604,0,0,0,0,0,,
1572,1,SBT2050,2,3,,0,1265.5,3.3159,0,0,0,0,0,,
1572,1,SBT2050,2,3,,0,1271.2,3.31571,0,0,0,0,0,,
1572,1,SBT2050,2,3,,0,1276.9,3.315576,0,0,0,0,0,,
1572,1,SBT2050,2,3,,0,1282.6,3.3158,0,0,0,0,0,,
1572,1,SBT2050,2,3,,0,1288.3,3.31577,0,0,0,0,0,,
1572,1,SBT2050,2,3,,0,1294,3.31576,0,0,0,0,0,,
1572,1,SBT2050,2,3,,0,1299.7,3.31583,0,0,0,0,0,,
1572,1,SBT2050,2,3,,0,1305.4,3.31601,0,0,0,0,0,,
1572,1,SBT2050,2,3,,0,1311.1,3.31567,0,0,0,0,0,,
1572,1,SBT2050,2,3,,0,1316.8,3.31565,0,0,0,0,0,,
1572,1,SBT2050,2,3,,0,1322.5,3.31579,0,0,0,0,0,,
1572,1,SBT2050,2,3,,0,1328.2,3.31571,0,0,0,0,0,,
1572,1,SBT2050,2,3,,0,1333.9,3.31585,0,0,0,0,0,,
1572,1,SBT2050,2,3,,0,1339.6,3.31592,0,0,0,0,0,,
1572,1,SBT2050,2,3,,0,1345.3,3.31589,0,0,0,0,0,,
1572,1,SBT2050,2,3,,0,1351,3.31589,0,0,0,0,0,,
1572,1,SBT2050,2,3,,0,1356.7,3.31579,0,0,0,0,0,,
1572,1,SBT2050,2,3,,0,1362.4,3.31577,0,0,0,0,0,,
1572,1,SBT2050,2,3,,0,1368.1,3.31586,0,0,0,0,0,,
1572,1,SBT2050,2,3,,0,1373.8,3.31576,0,0,0,0,0,,
1572,1,SBT2050,2,3,,0,1379.5,3.315852,0,0,0,0,0,,
1572,1,SBT2050,2,3,,0,1385.2,3.315904,0,0,0,0,0,,
1572,1,SBT2050,2,3,,0,1390.9,3.31591,0,0,0,0,0,,
1572,1,SBT2050,2,3,,0,1396.6,3.315985,0,0,0,0,0,,
1572,1,SBT2050,2,3,,0,1402.3,3.31577,0,0,0,0,0,,
1572,1,SBT2050,2,3,,0,1408,3.31581,0,0,0,0,0,,
1572,1,SBT2050,2,3,,0,1413.7,3.31568,0,0,0,0,0,,
1572,1,SBT2050,2,3,,0,1419.4,3.315826,0,0,0,0,0,,
1572,1,SBT2050,2,3,,0,1425.1,3.31559,0,0,0,0,0,,
1572,1,SBT2050,2,3,,0,1430.8,3.31575,0,0,0,0,0,,
1572,1,SBT2050,2,3,,0,1436.5,3.3157,0,0,0,0,0,,
1572,1,SBT2050,2,3,,0,1442.2,3.31576,0,0,0,0,0,,
1572,1,SBT2050,2,3,,0,1447.9,3.31584,0,0,0,0,0,,
1572,1,SBT2050,2,3,,0,1453.6,3.315812,0,0,0,0,0,,
1572,1,SBT2050,2,3,,0,1459.3,3.31572,0,0,0,0,0,,
1572,1,SBT2050,2,3,,0,1465,3.31592,0,0,0,0,0,25,
1572,1,SBT2050,2,3,,0,1470.7,3.315851,0,0,0,0,0,,
1572,1,SBT2050,2,3,,0,1476.4,3.316019,0,0,0,0,0,,
1572,1,SBT2050,2,3,,0,1482.1,3.31575,0,0,0,0,0,,
1572,1,SBT2050,2,3,,0,1487.8,3.3158,0,0,0,0,0,,
1572,1,SBT2050,2,3,,0,1493.5,3.315714,0,0,0,0,0,,
1572,1,SBT2050,2,3,,0,1499.2,3.315549,0,0,0,0,0,,
1572,1,SBT2050,2,3,,0,1504.9,3.31603,0,0,0,0,0,,
1572,1,SBT2050,2,3,,0,1510.6,3.31579,0,0,0,0,0,,
1572,1,SBT2050,2,3,,0,1516.3,3.31571,0,0,0,0,0,,
1572,1,SBT2050,2,3,,0,1522,3.31575,0,0,0,0,0,,
1572,1,SBT2050,2,3,,0,1527.7,3.31584,0,0,0,0,0,,
1572,1,SBT2050,2,3,,0,1533.4,3.31593,0,0,0,0,0,,
1572,1,SBT2050,2,3,,0,1539.1,3.31588,0,0,0,0,0,,
1572,1,SBT2050,2,3,,0,1544.8,3.31599,0,0,0,0,0,,
1572,1,SBT2050,2,3,,0,1550.5,3.31595,0,0,0,0,0,,
1572,1,SBT2050,2,3,,0,1556.2,3.31599,0,0,0,0,0,,
1572,1,SBT2050,2,3,,0,1561.9,3.31586,0,0,0,0,0,,
1572,1,SBT2050,2,3,,0,1567.6,3.31614,0,0,0,0,0,,
1572,1,SBT2050,2,3,,0,1573.3,3.31589,0,0,0,0,0,,
1572,1,SBT2050,2,3,,0,1579,3.31587,0,0,0,0,0,,
1572,1,SBT2050,2,3,,0,1584.7,3.31578,0,0,0,0,0,,
1572,1,SBT2050,2,3,,0,1590.4,3.31597,0,0,0,0,0,,
1572,1,SBT2050,2,3,,0,1596.1,3.31594,0,0,0,0,0,,
1572,1,SBT2050,2,3,,0,1601.8,3.3158,0,0,0,0,0,,
1572,1,SBT2050,2,3,,0,1607.5,3.315765,0,0,0,0,0,,
1572,1,SBT2050,2,3,,0,1613.2,3.31598,0,0,0,0,0,,
1572,1,SBT2050,2,3,,0,1618.9,3.3157,0,0,0,0,0,,
1572,1,SBT2050,2,3,,0,1624.6,3.31575,0,0,0,0,0,,
1572,1,SBT2050,2,3,,0,1630.3,3.315795,0,0,0,0,0,,
1572,1,SBT2050,2,3,,0,1636,3.315987,0,0,0,0,0,,
1572,1,SBT2050,2,3,,0,1641.7,3.31599,0,0,0,0,0,,
1572,1,SBT2050,2,3,,0,1647.4,3.31581,0,0,0,0,0,,
1572,1,SBT2050,2,3,,0,1653.1,3.31578,0,0,0,0,0,,
1572,1,SBT2050,2,3,,0,1658.8,3.315919,0,0,0,0,0,,
1572,1,SBT2050,2,3,,0,1664.5,3.31587,0,0,0,0,0,,
1572,1,SBT2050,2,3,,0,1670.2,3.31597,0,0,0,0,0,,
1572,1,SBT2050,2,3,,0,1675.9,3.31593,0,0,0,0,0,,
1572,1,SBT2050,2,3,,0,1681.6,3.316069,0,0,0,0,0,,
1572,1,SBT2050,2,3,,0,1687.3,3.316112,0,0,0,0,0,,
1572,1,SBT2050,2,3,,0,1693,3.315903,0,0,0,0,0,24.9,
1572,1,SBT2050,2,3,,0,1698.7,3.31601,0,0,0,0,0,,
1572,1,SBT2050,2,3,,0,1704.4,3.316112,0,0,0,0,0,,
1572,1,SBT2050,2,3,,0,1710.1,3.31605,0,0,0,0,0,,
1572,1,SBT2050,2,3,,0,1715.8,3.31609,0,0,0,0,0,,
1572,1,SBT2050,2,3,,0,1721.5,3.315964,0,0,0,0,0,,
1572,1,SBT2050,2,3,,0,1727.2,3.316062,0,0,0,0,0,,
1572,1,SBT2050,2,3,,0,1732.9,3.31606,0,0,0,0,0,,
1572,1,SBT2050,2,3,,0,1738.6,3.31589,0,0,0,0,0,,
1572,1,SBT2050,2,3,,0,1744.3,3.31585,0,0,0,0,0,,
1572,1,SBT2050,2,3,,0,1750,3.315749,0,0,0,0,0,,
1572,1,SBT2050,2,3,,0,1755.7,3.31607,0,0,0,0,0,,
1572,1,SBT2050,2,3,,0,1761.4,3.31585,0,0,0,0,0,,
1572,1,SBT2050,2,3,,0,1767.1,3.31593,0,0,0,0,0,,
1572,1,SBT2050,2,3,,0,1772.8,3.31582,0,0,0,0,0,,
1572,1,SBT2050,2,3,,0,1778.5,3.315902,0,0,0,0,0,,
1572,1,SBT2050,2,3,,0,1784.2,3.31581,0,0,0,0,0,,
1572,1,SBT2050,2,3,,0,1789.9,3.31583,0,0,0,0,0,,
1572,1,SBT2050,2,3,,0,1795.6,3.31586,0,0,0,0,0,,
1572,1,SBT2050,2,3,,5,1801.3,3.31573,0,0,0,0,0,,
1572,1,SBT2050,2,3,,7,1806.9,3.63195,3.9879,2.921,0,0,3988.223,,
1572,1,SBT2050,2,3,,7,1812.5,3.81964,7.209,11.765,0,0,7209.757,,
1572,1,SBT2050,2,3,,7,1818.2,3.92112,8.63,24.424,0,0,8631.623,,
1572,1,SBT2050,2,3,,7,1823.8,3.97882,9.174,38.445,0,0,9176.879,,
1572,1,SBT2050,2,3,,7,1829.4,3.99345,8.857,52.584,0,0,8857.171,,
1572,1,SBT2050,2,3,,7,1835.1,3.99109,8.375,66.173,0,0,8374.437,,
1572,1,SBT2050,2,3,,7,1840.7,3.99941,8.226,79.085,0,0,8226.117,,
1572,1,SBT2050,2,3,,7,1846.4,4.00521,8.074,91.997,0,0,8074.18,,
1572,1,SBT2050,2,3,,7,1852,4.00888,7.952,104.466,0,0,7953.089,28.8,
1572,1,SBT2050,2,3,,7,1857.6,4.00957,7.809,116.727,0,0,7809.288,,
1572,1,SBT2050,2,3,,7,1863.3,4.0098,7.704,129.004,0,0,7704.594,,
1572,1,SBT2050,2,3,,7,1868.9,4.00742,7.575,140.875,0,0,7575.016,,
1572,1,SBT2050,2,3,,7,1874.5,4.0048,7.457,152.575,0,0,7458.939,,
1572,1,SBT2050,2,3,,7,1880.2,4.00139,7.364,164.308,0,0,7364.788,,
1572,1,SBT2050,2,3,,7,1885.8,3.99733,7.262,175.68,0,0,7261.481,,
1572,1,SBT2050,2,3,,7,1891.5,3.99278,7.163,187.102,0,0,7163.407,,
1572,1,SBT2050,2,3,,7,1897.1,3.98886,7.09,198.19,0,0,7090.479,,
1572,1,SBT2050,2,3,,7,1902.7,3.98458,7.004,209.152,0,0,7005.089,,
1572,1,SBT2050,2,3,,7,1908.4,3.980108,6.922,220.186,0,0,6923.999,,
1572,1,SBT2050,2,3,,7,1914,3.97606,6.86,230.909,0,0,6860.361,33.7,
1572,1,SBT2050,2,3,,7,1919.6,3.97187,6.788,241.524,0,0,6788.439,,
1572,1,SBT2050,2,3,,7,1925.3,3.96871,6.732,252.226,0,0,6732.289,,
1572,1,SBT2050,2,3,,7,1930.9,3.96512,6.672,262.646,0,0,6672.104,,
1572,1,SBT2050,2,3,,7,1936.6,3.96163,6.615,273.167,0,0,6614.927,,
1572,1,SBT2050,2,3,,7,1942.2,3.95908,6.577,283.428,0,0,6576.616,,
1572,1,SBT2050,2,3,,7,1947.8,3.95617,6.519,293.617,0,0,6520.572,,
1572,1,SBT2050,2,3,,7,1953.5,3.953746,6.476,303.908,0,0,6476.186,,
1572,1,SBT2050,2,3,,7,1959.1,3.95182,6.44,313.957,0,0,6440.832,,
1572,1,SBT2050,2,3,,7,1964.7,3.94973,6.402,323.946,0,0,6402.203,,
1572,1,SBT2050,2,3,,7,1970.4,3.9481,6.361,334.051,0,0,6360.52,,
1572,1,SBT2050,2,3,,7,1976,3.94667,6.326,343.92,0,0,6325.749,36.5,
1572,1,SBT2050,2,3,,7,1981.7,3.94507,6.288,353.904,0,0,6288.61,,
1572,1,SBT2050,2,3,,7,1987.3,3.944118,6.26,363.659,0,0,6261.233,,
1572,1,SBT2050,2,3,,7,1992.9,3.94308,6.225,373.376,0,0,6226.292,,
1572,1,SBT2050,2,3,,7,1998.6,3.94219,6.192,383.21,0,0,6191.172,,
1572,1,SBT2050,2,3,,7,2004.2,3.94123,6.158,392.815,0,0,6159.281,,
1572,1,SBT2050,2,3,,7,2009.8,3.9407,6.128,402.37,0,0,6128.623,,
1572,1,SBT2050,2,3,,7,2015.5,3.94016,6.104,412.058,0,0,6102.827,,
1572,1,SBT2050,2,3,,7,2021.1,3.939844,6.084,421.535,0,0,6082.255,,
1572,1,SBT2050,2,3,,7,2026.8,3.9398,6.057,431.149,0,0,6056.549,,
1572,1,SBT2050,2,3,,7,2032.4,3.93963,6.025,440.55,0,0,6025.378,,
1572,1,SBT2050,2,3,,7,2038,3.93992,6.003,449.912,0,0,6003.938,,
1572,1,SBT2050,2,3,,7,2043.7,3.939456,5.969,459.385,0,0,5969.591,,
1572,1,SBT2050,2,3,,7,2049.3,3.93917,5.938,468.648,0,0,5938.655,,
1572,1,SBT2050,2,3,,7,2054.9,3.93951,5.912,477.872,0,0,5913.843,,
1572,1,SBT2050,2,3,,7,2060.6,3.93981,5.891,487.219,0,0,5890.349,,
1572,1,SBT2050,2,3,,7,2066.2,3.93985,5.873,496.365,0,0,5871.692,,
1572,1,SBT2050,2,3,,7,2071.9,3.94032,5.852,505.641,0,0,5850.61,,
1572,1,SBT2050,2,3,,7,2077.5,3.94088,5.829,514.724,0,0,5829.942,,
1572,1,SBT2050,2,3,,7,2083.1,3.94125,5.802,523.773,0,0,5801.553,,
1572,1,SBT2050,2,3,,7,2088.8,3.941832,5.78,532.939,0,0,5780.314,,
1572,1,SBT2050,2,3,,7,2094.4,3.941998,5.745,541.907,0,0,5745.201,,
1572,1,SBT2050,2,3,,7,2100,3.94239,5.715,550.823,0,0,5715.269,38.6,
1572,1,SBT2050,2,3,,7,2105.7,3.94259,5.691,559.848,0,0,5691.241,,
1572,1,SBT2050,2,3,,7,2111.3,3.94362,5.669,568.686,0,0,5669.623,,
1572,1,SBT2050,2,3,,7,2117,3.94396,5.637,577.634,0,0,5636.114,,
1572,1,SBT2050,2,3,,7,2122.6,3.94424,5.604,586.377,0,0,5603.414,,
1572,1,SBT2050,2,3,,7,2128.2,3.94564,5.592,595.085,0,0,5591.715,,
1572,1,SBT2050,2,3,,7,2133.9,3.946336,5.563,603.915,0,0,5561.829,,
1572,1,SBT2050,2,3,,7,2139.5,3.94665,5.531,612.544,0,0,5530.442,,
1572,1,SBT2050,2,3,,7,2145.1,3.94803,5.517,621.135,0,0,5517.462,,
1572,1,SBT2050,2,3,,7,2150.8,3.94841,5.484,629.845,0,0,5485.51,,
1572,1,SBT2050,2,3,,7,2156.4,3.94937,5.46,638.362,0,0,5459.509,,
1572,1,SBT2050,2,3,,7,2162.1,3.94991,5.426,646.984,0,0,5425.49,,
1572,1,SBT2050,2,3,,7,2167.7,3.950308,5.388,655.394,0,0,5389.218,,
1572,1,SBT2050,2,3,,7,2173.3,3.9514,5.365,663.759,0,0,5365.073,,
1572,1,SBT2050,2,3,,7,2179,3.95191,5.338,672.23,0,0,5336.876,,
1572,1,SBT2050,2,3,,7,2184.6,3.95309,5.309,680.512,0,0,5309.153,,
1572,1,SBT2050,2,3,,7,2190.2,3.9539,5.285,688.753,0,0,5286.053,,
1572,1,SBT2050,2,3,,7,2195.9,3.95495,5.259,697.101,0,0,5258.435,,
1572,1,SBT2050,2,3,,7,2201.5,3.95542,5.219,705.257,0,0,5219.955,,
1572,1,SBT2050,2,3,,7,2207.2,3.956706,5.202,713.507,0,0,5203.843,,
1572,1,SBT2050,2,3,,7,2212.8,3.95805,5.181,721.587,0,0,5181.564,,
1572,1,SBT2050,2,3,,7,2218.4,3.95857,5.145,729.626,0,0,5144.411,,
1572,1,SBT2050,2,3,,7,2224.1,3.95925,5.117,737.751,0,0,5117.959,,
1572,1,SBT2050,2,3,,7,2229.7,3.960278,5.092,745.693,0,0,5091.841,,
1572,1,SBT2050,2,3,,7,2235.3,3.961502,5.067,753.596,0,0,5067.101,,
1572,1,SBT2050,2,3,,7,2241,3.96204,5.032,761.589,0,0,5031.298,,
1572,1,SBT2050,2,3,,7,2246.6,3.9629,5,769.396,0,0,5000.356,,
1572,1,SBT2050,2,3,,7,2252.3,3.96418,4.984,777.3,0,0,4982.833,,
1572,1,SBT2050,2,3,,7,2257.9,3.96458,4.946,785.018,0,0,4945.473,,
1572,1,SBT2050,2,3,,7,2263.5,3.96546,4.92,792.694,0,0,4919.887,,
1572,1,SBT2050,2,3,,7,2269.2,3.966934,4.899,800.469,0,0,4899.295,,
1572,1,SBT2050,2,3,,7,2274.8,3.967632,4.867,808.071,0,0,4867.861,,
1572,1,SBT2050,2,3,,7,2280.4,3.968538,4.836,815.621,0,0,4836.87,,
1572,1,SBT2050,2,3,,7,2286.1,3.96958,4.812,823.264,0,0,4812.901,,
1572,1,SBT2050,2,3,,7,2291.7,3.97023,4.78,830.724,0,0,4779.641,,
1572,1,SBT2050,2,3,,7,2297.4,3.971662,4.756,838.276,0,0,4755.346,,
1572,1,SBT2050,2,3,,7,2303,3.97234,4.7249,845.649,0,0,4724.749,,
1572,1,SBT2050,2,3,,7,2308.6,3.973136,4.7003,852.979,0,0,4700.447,,
1572,1,SBT2050,2,3,,7,2314.3,3.97472,4.6809,860.405,0,0,4680.947,,
1572,1,SBT2050,2,3,,7,2319.9,3.97528,4.6466,867.657,0,0,4647.009,,
1572,1,SBT2050,2,3,,7,2325.5,3.97626,4.6215,874.866,0,0,4622.175,,
1572,1,SBT2050,2,3,,7,2331.2,3.97723,4.603,882.169,0,0,4602.778,,
1572,1,SBT2050,2,3,,7,2336.8,3.97829,4.5695,889.301,0,0,4569.109,,
1572,1,SBT2050,2,3,,7,2342.431,3.97912,4.5429,896.43,0,,4544.68,,
1572,1,SBT2050,2,3,,7,2348.1,3.97993,4.5157,903.561,0,0,4515.181,,
1572,1,SBT2050,2,3,,7,2353.7,3.98106,4.4907,910.564,0,0,4490.893,,
1572,1,SBT2050,2,3,,7,2359.4,3.98199,4.4603,917.655,0,0,4460.488,,
1572,1,SBT2050,2,3,,7,2365,3.98284,4.4383,924.576,0,0,4438.272,,
1572,1,SBT2050,2,3,,7,2370.6,3.984178,4.4094,931.46,0,0,4409.925,,
1572,1,SBT2050,2,3,,7,2376.3,3.98506,4.386,938.421,0,0,4386.169,,
1572,1,SBT2050,2,3,,7,2381.9,3.98595,4.3601,945.224,0,0,4360.391,,
1572,1,SBT2050,2,3,,7,2387.5,3.98635,4.3265,951.981,0,0,4327.499,,
1572,1,SBT2050,2,3,,7,2393.2,3.98719,4.3015,958.813,0,0,4302.532,,
1572,1,SBT2050,2,3,,7,2398.8,3.9884,4.2755,965.485,0,0,4275.834,,
1572,1,SBT2050,2,3,,7,2404.5,3.989424,4.2464,972.231,0,0,4246.926,,
1572,1,SBT2050,2,3,,7,2410.1,3.99032,4.2304,978.823,0,0,4230.196,,
1572,1,SBT2050,2,3,,7,2415.7,3.991294,4.2078,985.384,0,0,4208.449,,
1572,1,SBT2050,2,3,,7,2421.4,3.99273,4.1931,992.032,0,0,4193.63,,
1572,1,SBT2050,2,3,,7,2427,3.99434,4.179,998.545,0,0,4179.262,,
1572,1,SBT2050,2,3,,7,2432.6,3.99557,4.1597,1005.033,0,0,4160.053,,
1572,1,SBT2050,2,3,,7,2438.3,3.9974,4.1487,1011.609,0,0,4148.533,,
1572,1,SBT2050,2,3,,7,2443.9,3.99914,4.1354,1018.051,0,0,4136.548,,
1572,1,SBT2050,2,3,,7,2449.6,4.00056,4.1173,1024.586,0,0,4117.196,,
1572,1,SBT2050,2,3,,7,2455.2,4.00187,4.0998,1030.977,0,0,4099.674,,
1572,1,SBT2050,2,3,,7,2460.8,4.003504,4.0859,1037.342,0,0,4085.802,,
1572,1,SBT2050,2,3,,7,2466.5,4.00495,4.0672,1043.797,0,0,4067.074,,
1572,1,SBT2050,2,3,,7,2472.1,4.0066,4.0546,1050.114,0,0,4055.013,,
1572,1,SBT2050,2,3,,7,2477.7,4.007888,4.0367,1056.409,0,0,4036.331,,
1572,1,SBT2050,2,3,,7,2483.4,4.00918,4.0224,1062.789,0,0,4022.277,,
1572,1,SBT2050,2,3,,7,2489,4.01113,4.0097,1069.038,0,0,4009.354,,
1572,1,SBT2050,2,3,,7,2494.7,4.01256,3.9917,1075.37,0,0,3991.506,,
1572,1,SBT2050,2,3,,7,2500.3,4.01444,3.9788,1081.57,0,0,3978.728,,
1572,1,SBT2050,2,3,,7,2505.9,4.01526,3.955,1087.74,0,0,3955.31,,
1572,1,SBT2050,2,3,,7,2511.6,4.01682,3.9398,1093.991,0,0,3939.609,,
1572,1,SBT2050,2,3,,7,2517.2,4.01864,3.9287,1100.111,0,0,3929.328,,
1572,1,SBT2050,2,3,,7,2522.8,4.02005,3.909,1106.206,0,0,3909.106,,
1572,1,SBT2050,2,3,,7,2528.5,4.02174,3.8968,1112.386,0,0,3896.749,,
1572,1,SBT2050,2,3,,7,2534.1,4.02295,3.8791,1118.435,0,0,3879.204,,
1572,1,SBT2050,2,3,,7,2539.8,4.02446,3.8661,1124.565,0,0,3866.003,,
1572,1,SBT2050,2,3,,7,2545.4,4.02586,3.8456,1130.562,0,0,3845.273,,
1572,1,SBT2050,2,3,,7,2551,4.02747,3.8349,1136.536,0,0,3835.397,,
1572,1,SBT2050,2,3,,7,2556.7,4.0288,3.819,1142.598,0,0,3819.167,,
1572,1,SBT2050,2,3,,7,2562.3,4.03048,3.8048,1148.526,0,0,3805.222,,
1572,1,SBT2050,2,3,,7,2567.9,4.03196,3.7935,1154.435,0,0,3793.696,,
1572,1,SBT2050,2,3,,7,2573.6,4.03331,3.7728,1160.424,0,0,3773.097,,
1572,1,SBT2050,2,3,,7,2579.2,4.03474,3.7578,1166.283,0,0,3757.944,,
1572,1,SBT2050,2,3,,7,2584.9,4.03603,3.742,1172.218,0,0,3741.971,,
1572,1,SBT2050,2,3,,7,2590.5,4.03717,3.7215,1178.023,0,0,3721.646,,
1572,1,SBT2050,2,3,,7,2596.1,4.03879,3.7115,1183.804,0,0,3711.26,,
1572,1,SBT2050,2,3,,7,2601.8,4.04015,3.6919,1189.666,0,0,3692.083,,
1572,1,SBT2050,2,3,,7,2607.4,4.04122,3.6793,1195.399,0,0,3679.346,,
1572,1,SBT2050,2,3,,7,2613,4.0426,3.6607,1201.108,0,0,3661.119,,
1572,1,SBT2050,2,3,,7,2618.7,4.043984,3.6492,1206.894,0,0,3649.159,,
1572,1,SBT2050,2,3,,7,2624.3,4.04517,3.6336,1212.559,0,0,3633.123,,
1572,1,SBT2050,2,3,,7,2630,4.04668,3.6191,1218.298,0,0,3619.076,,
1572,1,SBT2050,2,3,,7,2635.6,4.04815,3.6056,1223.919,0,0,3605.507,,
1572,1,SBT2050,2,3,,7,2641.2,4.04947,3.59,1229.514,0,0,3589.849,,
1572,1,SBT2050,2,3,,7,2646.9,4.05088,3.5784,1235.188,0,0,3578.544,,
1572,1,SBT2050,2,3,,7,2652.5,4.0524,3.5646,1240.744,0,0,3564.556,,
1572,1,SBT2050,2,3,,7,2658.1,4.05366,3.5499,1246.276,0,0,3549.564,,
1572,1,SBT2050,2,3,,7,2663.8,4.05513,3.5312,1251.883,0,0,3530.886,,
1572,1,SBT2050,2,3,,7,2669.4,4.05608,3.5171,1257.364,0,0,3516.964,,
1572,1,SBT2050,2,3,,7,2675.1,4.05745,3.5028,1262.924,0,0,3502.788,,
1572,1,SBT2050,2,3,,7,2680.7,4.05869,3.487,1268.359,0,0,3487.164,,
1572,1,SBT2050,2,3,,7,2686.3,4.06034,3.4782,1273.776,0,0,3478.335,,
1572,1,SBT2050,2,3,,7,2692,4.0612,3.4594,1279.267,0,0,3459.03,,
1572,1,SBT2050,2,3,,7,2697.6,4.06272,3.4465,1284.638,0,0,3446.498,,
1572,1,SBT2050,2,3,,7,2703.2,4.06409,3.4344,1289.991,0,0,3434.594,,
1572,1,SBT2050,2,3,,7,2708.9,4.0654,3.4167,1295.412,0,0,3416.527,,
1572,1,SBT2050,2,3,,7,2714.5,4.066334,3.4,1300.717,0,0,3399.818,,
1572,1,SBT2050,2,3,,7,2720.2,4.06755,3.3853,1306.087,0,0,3385.156,,
1572,1,SBT2050,2,3,,7,2725.8,4.06893,3.3663,1311.34,0,0,3366.184,,
1572,1,SBT2050,2,3,,7,2731.4,4.06996,3.3512,1316.564,0,0,3351.434,,
1572,1,SBT2050,2,3,,7,2737.1,4.07074,3.337,1321.862,0,0,3337.019,,
1572,1,SBT2050,2,3,,7,2742.7,4.07234,3.3205,1327.037,0,0,3320.474,,
1572,1,SBT2050,2,3,,7,2748.3,4.07328,3.3086,1332.195,0,0,3308.902,,
1572,1,SBT2050,2,3,,7,2754,4.074132,3.2906,1337.418,0,0,3290.872,,
1572,1,SBT2050,2,3,,7,2759.6,4.07538,3.276,1342.528,0,0,3276.678,,
1572,1,SBT2050,2,3,,7,2765.3,4.07618,3.2596,1347.701,0,0,3259.833,,
1572,1,SBT2050,2,3,,7,2770.9,4.07768,3.2491,1352.762,0,0,3249.651,,
1572,1,SBT2050,2,3,,7,2776.5,4.07872,3.2298,1357.805,0,0,3230.128,,
1572,1,SBT2050,2,3,,7,2782.2,4.079982,3.2189,1362.91,0,0,3219.407,,
1572,1,SBT2050,2,3,,7,2787.8,4.08146,3.2069,1367.91,0,0,3207.025,,
1572,1,SBT2050,2,3,,7,2793.4,4.08203,3.1882,1372.882,0,0,3187.901,,
1572,1,SBT2050,2,3,,7,2799.1,4.08375,3.18,1377.923,0,0,3179.894,,
1572,1,SBT2050,2,3,,7,2804.7,4.08456,3.1615,1382.859,0,0,3161.873,,
1572,1,SBT2050,2,3,,7,2810.4,4.08536,3.1402,1387.852,0,0,3140.258,,
1572,1,SBT2050,2,3,,7,2816,4.08629,3.1237,1392.723,0,0,3123.87,,
1572,1,SBT2050,2,3,,7,2821.6,4.08735,3.1143,1397.574,0,0,3114.301,,
1572,1,SBT2050,2,3,,7,2827.3,4.08877,3.1085,1402.5,0,0,3108.549,,
1572,1,SBT2050,2,3,,7,2832.9,4.08937,3.0865,1407.317,0,0,3086.656,,
1572,1,SBT2050,2,3,,7,2838.5,4.09058,3.0751,1412.109,0,0,3075.494,,
1572,1,SBT2050,2,3,,7,2844.2,4.0916,3.0581,1416.968,0,0,3058.192,,
1572,1,SBT2050,2,3,,7,2849.8,4.09245,3.0435,1421.711,0,0,3043.573,,
1572,1,SBT2050,2,3,,7,2855.5,4.09348,3.0302,1426.52,0,0,3030.274,,
1572,1,SBT2050,2,3,,7,2861.1,4.09431,3.0138,1431.219,0,0,3014.104,,
1572,1,SBT2050,2,3,,7,2866.7,4.095032,2.9939,1435.896,0,0,2994.288,,
1572,1,SBT2050,2,3,,7,2872.4,4.09619,2.9806,1440.624,0,0,2980.817,,
1572,1,SBT2050,2,3,,7,2878,4.097394,2.9765,1445.258,0,0,2976.876,,
1572,1,SBT2050,2,3,,7,2883.6,4.09876,2.975,1449.886,0,0,2974.363,,
1572,1,SBT2050,2,3,,7,2889.3,4.0995,2.9554,1454.578,0,0,2955.413,,
1572,1,SBT2050,2,3,,7,2894.9,4.10065,2.9432,1459.167,0,0,2943.487,,
1572,1,SBT2050,2,3,,7,2900.555,4.10169,2.9259,1463.774,0,,2925.802,,
1572,1,SBT2050,2,3,,7,2906.2,4.1029,2.9218,1468.357,0,0,2921.927,,
1572,1,SBT2050,2,3,,7,2911.8,4.10394,2.9039,1472.887,0,0,2903.887,,
1572,1,SBT2050,2,3,,7,2917.5,4.1051,2.8972,1477.478,0,0,2897.33,,
1572,1,SBT2050,2,3,,7,2923.1,4.10644,2.8912,1481.983,0,0,2891.268,,
1572,1,SBT2050,2,3,,7,2928.7,4.10746,2.8747,1486.464,0,0,2875.042,,
1572,1,SBT2050,2,3,,7,2934.4,4.10878,2.8711,1491.012,0,0,2870.888,,
1572,1,SBT2050,2,3,,7,2940,4.11016,2.8642,1495.476,0,0,2864.807,33,
1572,1,SBT2050,2,3,,7,2945.6,4.11121,2.8485,1499.917,0,0,2848.183,,
1572,1,SBT2050,2,3,,7,2951.3,4.11224,2.8292,1504.412,0,0,2829.384,,
1572,1,SBT2050,2,3,,7,2956.9,4.113072,2.8198,1508.803,0,0,2819.826,,
1572,1,SBT2050,2,3,,7,2962.6,4.11388,2.8022,1513.25,0,0,2802.483,,
1572,1,SBT2050,2,3,,7,2968.2,4.11492,2.794,1517.602,0,0,2794.382,,
1572,1,SBT2050,2,3,,7,2973.8,4.11632,2.7908,1521.945,0,0,2790.656,,
1572,1,SBT2050,2,3,,7,2979.5,4.1171,2.7703,1526.346,0,0,2770.379,,
1572,1,SBT2050,2,3,,7,2985.1,4.11819,2.7647,1530.651,0,0,2765.088,,
1572,1,SBT2050,2,3,,7,2990.7,4.11937,2.7497,1534.939,0,0,2749.817,,
1572,1,SBT2050,2,3,,7,2996.4,4.12071,2.7406,1539.284,0,0,2740.62,,
1572,1,SBT2050,2,3,,7,3002,4.12196,2.7361,1543.543,0,0,2736.794,32.5,
1572,1,SBT2050,2,3,,7,3007.7,4.12265,2.7181,1547.863,0,0,2718.429,,
1572,1,SBT2050,2,3,,7,3013.3,4.12388,2.7124,1552.085,0,0,2712.132,,
1572,1,SBT2050,2,3,,7,3018.9,4.12441,2.6933,1556.288,0,0,2693.172,,
1572,1,SBT2050,2,3,,7,3024.6,4.12585,2.686,1560.546,0,0,2686.302,,
1572,1,SBT2050,2,3,,7,3030.2,4.127224,2.6839,1564.723,0,0,2684.341,,
1572,1,SBT2050,2,3,,7,3035.8,4.12802,2.6709,1568.892,0,0,2671.359,,
1572,1,SBT2050,2,3,,7,3041.5,4.1293,2.6606,1573.113,0,0,2660.861,,
1572,1,SBT2050,2,3,,7,3047.1,4.13064,2.6575,1577.249,0,0,2657.921,,
1572,1,SBT2050,2,3,,7,3052.8,4.1316,2.6436,1581.45,0,0,2643.934,,
1572,1,SBT2050,2,3,,7,3058.4,4.132858,2.6343,1585.554,0,0,2634.622,,
1572,1,SBT2050,2,3,,7,3064,4.13402,2.6296,1589.648,0,0,2630.064,,
1572,1,SBT2050,2,3,,7,3069.7,4.13512,2.6155,1593.805,0,0,2615.809,,
1572,1,SBT2050,2,3,,7,3075.3,4.13601,2.6064,1597.865,0,0,2606.441,,
1572,1,SBT2050,2,3,,7,3080.9,4.13721,2.6014,1601.915,0,0,2601.664,,
1572,1,SBT2050,2,3,,7,3086.6,4.13784,2.5823,1606.017,0,0,2582.481,,
1572,1,SBT2050,2,3,,7,3092.2,4.13942,2.5767,1610.029,0,0,2577.157,,
1572,1,SBT2050,2,3,,7,3097.9,4.14039,2.5728,1614.106,0,0,2573.13,,
1572,1,SBT2050,2,3,,7,3103.5,4.14119,2.5552,1618.095,0,0,2555.225,,
1572,1,SBT2050,2,3,,7,3109.1,4.14223,2.5487,1622.064,0,0,2548.84,,
1572,1,SBT2050,2,3,,7,3114.8,4.14305,2.5288,1626.081,0,0,2529.35,,
1572,1,SBT2050,2,3,,7,3120.4,4.143814,2.524,1630.011,0,0,2524.109,,
1572,1,SBT2050,2,3,,7,3126,4.1454,2.5201,1633.933,0,0,2520.155,,
1572,1,SBT2050,2,3,,7,3131.7,4.14699,2.5163,1637.92,0,0,2516.391,,
1572,1,SBT2050,2,3,,7,3137.3,4.14818,2.5124,1641.832,0,0,2513.195,,
1572,1,SBT2050,2,3,,7,3143,4.14903,2.4946,1645.792,0,0,2494.356,,
1572,1,SBT2050,2,3,,7,3148.6,4.150022,2.4878,1649.666,0,0,2487.872,,
1572,1,SBT2050,2,3,,7,3154.2,4.150584,2.4744,1653.528,0,0,2474.359,,
1572,1,SBT2050,2,3,,7,3159.9,4.151296,2.4641,1657.435,0,0,2463.93,,
1572,1,SBT2050,2,3,,7,3165.5,4.15269,2.4588,1661.264,0,0,2459.171,,
1572,1,SBT2050,2,3,,7,3171.1,4.15422,2.4553,1665.086,0,0,2455.868,,
1572,1,SBT2050,2,3,,7,3176.8,4.15503,2.4373,1668.957,0,0,2437.438,,
1572,1,SBT2050,2,3,,7,3182.4,4.15567,2.4317,1672.743,0,0,2431.874,,
1572,1,SBT2050,2,3,,7,3188.1,4.15692,2.4245,1676.587,0,0,2424.753,,
1572,1,SBT2050,2,3,,7,3193.7,4.15734,2.4089,1680.344,0,0,2408.842,,
1572,1,SBT2050,2,3,,7,3199.3,4.15834,2.4034,1684.086,0,0,2403.67,,
1572,1,SBT2050,2,3,,7,3205,4.1599,2.3994,1687.887,0,0,2399.344,,
1572,1,SBT2050,2,3,,7,3210.6,4.16097,2.3912,1691.616,0,0,2391.411,,
1572,1,SBT2050,2,3,,7,3216.2,4.1617,2.377,1695.323,0,0,2377.709,,
1572,1,SBT2050,2,3,,7,3221.9,4.16285,2.3712,1699.082,0,0,2371.305,,
1572,1,SBT2050,2,3,,7,3227.5,4.16391,2.3598,1702.766,0,0,2360.144,,
1572,1,SBT2050,2,3,,7,3233.2,4.1645,2.3489,1706.492,0,0,2348.91,,
1572,1,SBT2050,2,3,,7,3238.8,4.16556,2.3429,1710.141,0,0,2343.217,,
1572,1,SBT2050,2,3,,7,3244.4,4.16703,2.3393,1713.782,0,0,2339.552,,
1572,1,SBT2050,2,3,,7,3250.1,4.167616,2.3227,1717.472,0,0,2322.902,,
1572,1,SBT2050,2,3,,7,3255.7,4.168698,2.3157,1721.078,0,0,2315.52,,
1572,1,SBT2050,2,3,,7,3261.3,4.16945,2.3078,1724.676,0,0,2308.187,,
1572,1,SBT2050,2,3,,7,3267,4.17055,2.2949,1728.318,0,0,2294.908,,
1572,1,SBT2050,2,3,,7,3272.6,4.17121,2.2879,1731.882,0,0,2287.979,,
1572,1,SBT2050,2,3,,7,3278.3,4.172286,2.2837,1735.501,0,0,2284.154,,
1572,1,SBT2050,2,3,,7,3283.9,4.17339,2.276,1739.05,0,0,2276.145,,
1572,1,SBT2050,2,3,,7,3289.5,4.17424,2.2617,1742.578,0,0,2261.85,,
1572,1,SBT2050,2,3,,7,3295.2,4.17498,2.257,1746.154,0,0,2256.94,,
1572,1,SBT2050,2,3,,7,3300.8,4.17594,2.2444,1749.657,0,0,2244.344,,
1572,1,SBT2050,2,3,,7,3306.4,4.1767,2.2346,1753.139,0,0,2235.077,,
1572,1,SBT2050,2,3,,7,3312.1,4.1779,2.2296,1756.672,0,0,2229.577,,
1572,1,SBT2050,2,3,,7,3317.7,4.17897,2.2245,1760.136,0,0,2225.147,,
1572,1,SBT2050,2,3,,7,3323.4,4.17975,2.211,1763.648,0,0,2211.246,,
1572,1,SBT2050,2,3,,7,3329,4.18065,2.2026,1767.079,0,0,2202.979,,
1572,1,SBT2050,2,3,,7,3334.6,4.18188,2.198,1770.502,0,0,2198.133,,
1572,1,SBT2050,2,3,,7,3340.3,4.1827,2.189,1773.975,0,0,2189.355,,
1572,1,SBT2050,2,3,,7,3345.9,4.18313,2.177,1777.368,0,0,2176.971,,
1572,1,SBT2050,2,3,,7,3351.5,4.18417,2.1714,1780.75,0,0,2171.331,,
1572,1,SBT2050,2,3,,7,3357.2,4.18544,2.1675,1784.184,0,0,2167.538,,
1572,1,SBT2050,2,3,,7,3362.8,4.18615,2.1545,1787.548,0,0,2154.676,,
1572,1,SBT2050,2,3,,7,3368.5,4.18712,2.1448,1790.951,0,0,2145.097,,
1572,1,SBT2050,2,3,,7,3374.1,4.18809,2.1407,1794.284,0,0,2140.746,,
1572,1,SBT2050,2,3,,7,3379.7,4.18888,2.1329,1797.61,0,0,2132.845,,
1572,1,SBT2050,2,3,,7,3385.4,4.18967,2.1204,1800.975,0,0,2120.651,,
1572,1,SBT2050,2,3,,7,3391,4.19069,2.1142,1804.268,0,0,2114.277,,
1572,1,SBT2050,2,3,,7,3396.6,4.19177,2.1095,1807.553,0,0,2109.542,,
1572,1,SBT2050,2,3,,7,3402.3,4.19276,2.1055,1810.89,0,0,2105.461,,
1572,1,SBT2050,2,3,,7,3407.9,4.19415,2.1,1814.16,0,0,2100.211,,
1572,1,SBT2050,2,3,,7,3413.6,4.19442,2.0843,1817.471,0,0,2084.634,,
1572,1,SBT2050,2,3,,7,3419.2,4.19522,2.0792,1820.709,0,0,2079.293,,
1572,1,SBT2050,2,3,,7,3424.8,4.19612,2.0739,1823.939,0,0,2074.068,,
1572,1,SBT2050,2,3,,7,3430.5,4.19728,2.0638,1827.218,0,0,2063.413,,
1572,1,SBT2050,2,3,,7,3436.1,4.19797,2.0537,1830.42,0,0,2053.844,,
1572,1,SBT2050,2,3,,7,3441.7,4.19862,2.048,1833.61,0,0,2048.094,,
1572,1,SBT2050,2,3,,7,3447.4,4.1998,2.0434,1836.849,0,0,2043.776,,
1572,1,SBT2050,2,3,,7,3453,4.200924,2.0384,1840.023,0,0,2038.574,30.1,
1572,1,SBT2050,2,3,,7,3458.679,4.20136,2.0239,1843.228,0,,2023.992,,
1572,1,SBT2050,2,3,,7,3464.3,4.20206,2.0181,1846.383,0,0,2018.206,,
1572,1,SBT2050,2,3,,7,3469.9,4.20305,2.0128,1849.517,0,0,2012.943,,
1572,1,SBT2050,2,3,,7,3475.6,4.20422,2.0075,1852.7,0,0,2007.726,,
1572,1,SBT2050,2,3,,7,3481.2,4.20476,1.9964,1855.816,0,0,1996.338,,
1572,1,SBT2050,2,3,,7,3486.8,4.20558,1.9878,1858.913,0,0,1987.723,,
1572,1,SBT2050,2,3,,7,3492.5,4.20682,1.9824,1862.056,0,0,1982.243,,
1572,1,SBT2050,2,3,,7,3498.1,4.20761,1.9778,1865.136,0,0,1977.973,,
1572,1,SBT2050,2,3,,7,3503.7,4.20918,1.9721,1868.209,0,0,1972.769,,
1572,1,SBT2050,2,3,,7,3509.4,4.209348,1.9595,1871.32,0,0,1959.482,,
1572,1,SBT2050,2,3,,7,3515,4.21047,1.9527,1874.362,0,0,1952.833,,
1572,1,SBT2050,2,3,,7,3520.7,4.21116,1.9474,1877.449,0,0,1947.595,,
1572,1,SBT2050,2,3,,7,3526.3,4.212338,1.9431,1880.475,0,0,1943.348,,
1572,1,SBT2050,2,3,,7,3531.9,4.21317,1.9302,1883.485,0,0,1930.44,,
1572,1,SBT2050,2,3,,7,3537.6,4.21387,1.9226,1886.535,0,0,1922.837,,
1572,1,SBT2050,2,3,,7,3543.2,4.21486,1.9183,1889.522,0,0,1918.412,,
1572,1,SBT2050,2,3,,7,3548.8,4.21601,1.913,1892.502,0,0,1913.27,,
1572,1,SBT2050,2,3,,7,3554.5,4.21606,1.899,1895.519,0,0,1898.801,,
1572,1,SBT2050,2,3,,7,3560.1,4.21699,1.8935,1898.468,0,0,1893.564,,
1572,1,SBT2050,2,3,,7,3565.8,4.21793,1.8883,1901.462,0,0,1888.669,,
1572,1,SBT2050,2,3,,7,3571.4,4.21915,1.8845,1904.396,0,0,1884.524,,
1572,1,SBT2050,2,3,,7,3577,4.21975,1.8719,1907.317,0,0,1871.881,,
1572,1,SBT2050,2,3,,7,3582.7,4.22116,1.872,1910.279,0,0,1872.148,,
1572,1,SBT2050,2,3,,7,3588.3,4.221582,1.8631,1913.185,0,0,1863.291,,
1572,1,SBT2050,2,3,,7,3593.9,4.222294,1.8553,1916.076,0,0,1855.176,,
1572,1,SBT2050,2,3,,7,3599.6,4.22334,1.8499,1919.009,0,0,1849.939,,
1572,1,SBT2050,2,3,,7,3605.2,4.22439,1.8455,1921.883,0,0,1845.764,,
1572,1,SBT2050,2,3,,7,3610.9,4.22463,1.8339,1924.798,0,0,1834.143,,
1572,1,SBT2050,2,3,,7,3616.5,4.22539,1.8257,1927.644,0,0,1825.883,,
1572,1,SBT2050,2,3,,7,3622.1,4.226544,1.8216,1930.481,0,0,1821.56,,
1572,1,SBT2050,2,3,,7,3627.8,4.227424,1.8164,1933.36,0,0,1816.603,,
1572,1,SBT2050,2,3,,7,3633.4,4.22856,1.8126,1936.182,0,0,1812.516,,
1572,1,SBT2050,2,3,,7,3639,4.22925,1.8015,1938.994,0,0,1801.422,,
1572,1,SBT2050,2,3,,7,3644.7,4.230074,1.7927,1941.838,0,0,1792.847,,
1572,1,SBT2050,2,3,,7,3650.3,4.23084,1.7883,1944.623,0,0,1788.55,,
1572,1,SBT2050,2,3,,7,3656,4.23186,1.7833,1947.45,0,0,1783.568,,
1572,1,SBT2050,2,3,,7,3661.6,4.23252,1.7785,1950.221,0,0,1778.668,,
1572,1,SBT2050,2,3,,7,3667.2,4.23316,1.768,1952.98,0,0,1768.127,,
1572,1,SBT2050,2,3,,7,3672.9,4.234108,1.7597,1955.772,0,0,1759.842,,
1572,1,SBT2050,2,3,,7,3678.5,4.23485,1.7548,1958.505,0,0,1754.92,,
1572,1,SBT2050,2,3,,7,3684.1,4.23587,1.751,1961.232,0,0,1750.923,,
1572,1,SBT2050,2,3,,7,3689.8,4.23682,1.7462,1964,0,0,1746.131,,
1572,1,SBT2050,2,3,,7,3695.4,4.2375,1.7391,1966.712,0,0,1739.4,,
1572,1,SBT2050,2,3,,7,3701.1,4.23811,1.7277,1969.454,0,0,1727.82,,
1572,1,SBT2050,2,3,,7,3706.7,4.23883,1.7224,1972.137,0,0,1722.461,,
1572,1,SBT2050,2,3,,7,3712.3,4.23963,1.7183,1974.813,0,0,1718.635,,
1572,1,SBT2050,2,3,,7,3718,4.240472,1.7138,1977.53,0,0,1713.925,,
1572,1,SBT2050,2,3,,7,3723.6,4.24134,1.709,1980.192,0,0,1709.16,,
1572,1,SBT2050,2,3,,7,3729.2,4.24254,1.705,1982.847,0,0,1705.209,,
1572,1,SBT2050,2,3,,7,3734.9,4.243,1.6956,1985.541,0,0,1695.652,,
1572,1,SBT2050,2,3,,7,3740.5,4.24362,1.686,1988.171,0,0,1686.243,,
1572,1,SBT2050,2,3,,7,3746.2,4.24466,1.6819,1990.837,0,0,1681.945,,
1572,1,SBT2050,2,3,,7,3751.8,4.24541,1.6771,1993.449,0,0,1677.261,,
1572,1,SBT2050,2,3,,7,3757.4,4.24655,1.6728,1996.054,0,0,1673.385,,
1572,1,SBT2050,2,3,,7,3763.1,4.24721,1.6661,1998.699,0,0,1666.055,,
1572,1,SBT2050,2,3,,7,3768.7,4.24778,1.6546,2001.28,0,0,1654.647,,
1572,1,SBT2050,2,3,,7,3774.3,4.248584,1.6502,2003.85,0,0,1650.153,,
1572,1,SBT2050,2,3,,7,3780,4.249238,1.6455,2006.458,0,0,1645.711,29,
1572,1,SBT2050,2,3,,7,3785.6,4.25018,1.641,2009.014,0,0,1641.203,,
1572,1,SBT2050,2,3,,7,3791.3,4.251218,1.6352,2011.608,0,0,1635.306,,
1572,1,SBT2050,2,3,,7,3796.9,4.2518,1.6306,2014.148,0,0,1630.951,,
1572,1,SBT2050,2,3,,7,3802.5,4.25265,1.625,2016.684,0,0,1625.467,,
1572,1,SBT2050,2,3,,7,3808.2,4.25288,1.6155,2019.248,0,0,1615.544,,
1572,1,SBT2050,2,3,,7,3813.8,4.25391,1.61,2021.756,0,0,1610.119,,
1572,1,SBT2050,2,3,,7,3819.4,4.2548,1.6061,2024.257,0,0,1606.386,,
1572,1,SBT2050,2,3,,7,3825.1,4.25589,1.602,2026.796,0,0,1601.946,,
1572,1,SBT2050,2,3,,7,3830.7,4.2562,1.5935,2029.282,0,0,1593.683,,
1572,1,SBT2050,2,3,,7,3836.4,4.257436,1.5929,2031.805,0,0,1593.168,,
1572,1,SBT2050,2,3,,7,3842,4.25785,1.587,2034.279,0,0,1587.164,28.8,
1572,1,SBT2050,2,3,,7,3847.6,4.258572,1.5762,2036.739,0,0,1576.203,,
1572,1,SBT2050,2,3,,7,3853.3,4.25926,1.571,2039.23,0,0,1571.399,,
1572,1,SBT2050,2,3,,7,3858.9,4.25996,1.5668,2041.671,0,0,1566.924,,
1572,1,SBT2050,2,3,,7,3864.5,4.260926,1.5622,2044.104,0,0,1562.561,,
1572,1,SBT2050,2,3,,7,3870.2,4.26141,1.5588,2046.575,0,0,1558.956,,
1572,1,SBT2050,2,3,,7,3875.8,4.262298,1.5544,2048.996,0,0,1554.577,,
1572,1,SBT2050,2,3,,7,3881.5,4.26255,1.546,2051.452,0,0,1546.474,,
1572,1,SBT2050,2,3,,7,3887.1,4.26321,1.5374,2053.85,0,0,1537.631,,
1572,1,SBT2050,2,3,,7,3892.7,4.2638,1.5324,2056.237,0,0,1532.532,,
1572,1,SBT2050,2,3,,7,3898.4,4.26461,1.5286,2058.66,0,0,1528.965,,
1572,1,SBT2050,2,3,,7,3904,4.26556,1.5243,2061.035,0,0,1524.7,,
1572,1,SBT2050,2,3,,7,3909.6,4.26659,1.5204,2063.403,0,0,1520.501,,
1572,1,SBT2050,2,3,,7,3915.3,4.26724,1.5172,2065.807,0,0,1517.02,,
1572,1,SBT2050,2,3,,7,3920.9,4.267808,1.5127,2068.163,0,0,1512.772,,
1572,1,SBT2050,2,3,,7,3926.6,4.269,1.5084,2070.555,0,0,1508.607,,
1572,1,SBT2050,2,3,,7,3932.2,4.26971,1.5051,2072.898,0,0,1505.103,,
1572,1,SBT2050,2,3,,7,3937.8,4.27041,1.5008,2075.236,0,0,1500.902,,
1572,1,SBT2050,2,3,,7,3943.5,4.27146,1.4967,2077.609,0,0,1496.717,,
1572,1,SBT2050,2,3,,7,3949.1,4.27191,1.4931,2079.934,0,0,1493.255,,
1572,1,SBT2050,2,3,,7,3954.7,4.27287,1.4887,2082.253,0,0,1488.808,,
1572,1,SBT2050,2,3,,7,3960.4,4.273586,1.4849,2084.607,0,0,1485.163,,
1572,1,SBT2050,2,3,,7,3966,4.274256,1.4803,2086.913,0,0,1480.699,28.7,
1572,1,SBT2050,2,3,,7,3971.7,4.27439,1.4735,2089.248,0,0,1473.724,,
1572,1,SBT2050,2,3,,7,3977.3,4.275604,1.4723,2091.54,0,0,1472.588,,
1572,1,SBT2050,2,3,,7,3982.9,4.27608,1.4635,2093.825,0,0,1463.659,,
1572,1,SBT2050,2,3,,7,3988.6,4.27633,1.4557,2096.136,0,0,1455.996,,
1572,1,SBT2050,2,3,,7,3994.2,4.277474,1.4548,2098.398,0,0,1455.127,,
1572,1,SBT2050,2,3,,7,3999.8,4.278422,1.4559,2100.664,0,0,1455.995,,
1572,1,SBT2050,2,3,,7,4005.5,4.27866,1.4445,2102.961,0,0,1444.465,,
1572,1,SBT2050,2,3,,7,4011.1,4.27915,1.4417,2105.206,0,0,1441.837,,
1572,1,SBT2050,2,3,,7,4016.8,4.27943,1.4363,2107.484,0,0,1436.286,,
1572,1,SBT2050,2,3,,7,4022.4,4.28053,1.4328,2109.715,0,0,1432.792,,
1572,1,SBT2050,2,3,,7,4028,4.28096,1.4285,2111.94,0,0,1428.637,,
1572,1,SBT2050,2,3,,7,4033.7,4.28183,1.4246,2114.199,0,0,1424.527,,
1572,1,SBT2050,2,3,,7,4039.3,4.28236,1.4212,2116.414,0,0,1421.532,,
1572,1,SBT2050,2,3,,7,4044.9,4.28281,1.4168,2118.621,0,0,1416.976,,
1572,1,SBT2050,2,3,,7,4050.6,4.28334,1.4127,2120.861,0,0,1412.903,,
1572,1,SBT2050,2,3,,7,4056.2,4.28424,1.4094,2123.056,0,0,1409.397,,
1572,1,SBT2050,2,3,,7,4061.813,4.28458,1.4054,2125.251,0,,1405.103,,
1572,1,SBT2050,2,3,,7,4067.5,4.28521,1.4008,2127.467,0,0,1400.804,,
1572,1,SBT2050,2,3,,7,4073.1,4.2854,1.3971,2129.643,0,0,1397.218,,
1572,1,SBT2050,2,3,,7,4078.8,4.28605,1.3928,2131.852,0,0,1393.019,,
1572,1,SBT2050,2,3,,7,4084.4,4.28663,1.3894,2134.016,0,0,1389.527,,
1572,1,SBT2050,2,3,,7,4090,4.28688,1.3854,2136.174,0,0,1385.37,,
1572,1,SBT2050,2,3,,7,4095.7,4.28772,1.3812,2138.364,0,0,1381.207,,
1572,1,SBT2050,2,3,,7,4101.3,4.28829,1.3775,2140.51,0,0,1377.795,,
1572,1,SBT2050,2,3,,7,4106.9,4.28876,1.3737,2142.649,0,0,1373.702,,
1572,1,SBT2050,2,3,,7,4112.6,4.28901,1.369,2144.821,0,0,1369.309,,
1572,1,SBT2050,2,3,,7,4118.2,4.28959,1.3684,2146.949,0,0,1368.516,,
1572,1,SBT2050,2,3,,7,4123.9,4.29008,1.364,2149.112,0,0,1364.374,,
1572,1,SBT2050,2,3,,7,4129.5,4.290542,1.3602,2151.231,0,0,1360.22,,
1572,1,SBT2050,2,3,,7,4135.1,4.29084,1.3567,2153.344,0,0,1356.797,,
1572,1,SBT2050,2,3,,7,4140.8,4.29114,1.3526,2155.489,0,0,1352.729,,
1572,1,SBT2050,2,3,,7,4146.4,4.29166,1.3494,2157.591,0,0,1349.333,,
1572,1,SBT2050,2,3,,7,4152,4.291814,1.3455,2159.686,0,0,1345.335,,
1572,1,SBT2050,2,3,,7,4157.7,4.292252,1.3412,2161.813,0,0,1341.344,,
1572,1,SBT2050,2,3,,7,4163.3,4.2924,1.3379,2163.898,0,0,1337.883,,
1572,1,SBT2050,2,3,,7,4169,4.29303,1.3368,2166.015,0,0,1336.959,28.7,
1572,1,SBT2050,2,3,,7,4174.6,4.2933,1.3331,2168.091,0,0,1333.222,,
1572,1,SBT2050,2,3,,7,4180.2,4.29401,1.3302,2170.163,0,0,1330.078,,
1572,1,SBT2050,2,3,,7,4185.9,4.29402,1.3263,2172.265,0,0,1326.342,,
1572,1,SBT2050,2,3,,7,4191.5,4.29439,1.3232,2174.326,0,0,1323.272,,
1572,1,SBT2050,2,3,,7,4197.1,4.29452,1.3194,2176.381,0,0,1319.597,,
1572,1,SBT2050,2,3,,7,4202.8,4.29508,1.3187,2178.471,0,0,1318.842,,
1572,1,SBT2050,2,3,,7,4208.4,4.29489,1.3159,2180.52,0,0,1315.935,,
1572,1,SBT2050,2,3,,7,4214.1,4.295426,1.3122,2182.601,0,0,1312.456,,
1572,1,SBT2050,2,3,,7,4219.7,4.295556,1.309,2184.64,0,0,1309.011,,
1572,1,SBT2050,2,3,,7,4225.3,4.29571,1.309,2186.674,0,0,1308.987,,
1572,1,SBT2050,2,3,,7,4231,4.2961,1.3057,2188.743,0,0,1305.662,,
1572,1,SBT2050,2,3,,7,4236.6,4.29626,1.3022,2190.772,0,0,1302.399,,
1572,1,SBT2050,2,3,,7,4242.2,4.29632,1.2993,2192.796,0,0,1299.69,,
1572,1,SBT2050,2,3,,7,4247.9,4.29677,1.2993,2194.854,0,0,1299.396,,
1572,1,SBT2050,2,3,,7,4253.5,4.29677,1.2967,2196.873,0,0,1296.795,,
1572,1,SBT2050,2,3,,7,4259.2,4.29688,1.2937,2198.923,0,0,1293.729,,
1572,1,SBT2050,2,3,,7,4264.8,4.29734,1.2905,2200.933,0,0,1290.689,,
1572,1,SBT2050,2,3,,7,4270.4,4.29752,1.2918,2202.94,0,0,1291.967,,
1572,1,SBT2050,2,3,,7,4276.1,4.29723,1.2879,2204.982,0,0,1288.094,,
1572,1,SBT2050,2,3,,7,4281.7,4.297548,1.2853,2206.983,0,0,1285.22,,
1572,1,SBT2050,2,3,,7,4287.3,4.297568,1.2829,2208.981,0,0,1282.84,,
1572,1,SBT2050,2,3,,7,4293,4.297904,1.2835,2211.012,0,0,1283.331,,
1572,1,SBT2050,2,3,,7,4298.6,4.29746,1.2802,2213.005,0,0,1280.183,,
1572,1,SBT2050,2,3,,7,4304.3,4.29774,1.2779,2215.03,0,0,1277.948,,
1572,1,SBT2050,2,3,,7,4309.9,4.29797,1.2778,2217.019,0,0,1278.186,,
1572,1,SBT2050,2,3,,7,4315.5,4.29815,1.276,2219.005,0,0,1276.006,,
1572,1,SBT2050,2,3,,7,4321.2,4.29796,1.2734,2221.024,0,0,1273.483,,
1572,1,SBT2050,2,3,,7,4326.8,4.29811,1.271,2223.002,0,0,1270.962,,
1572,1,SBT2050,2,3,,7,4332.4,4.2983,1.2717,2224.982,0,0,1271.713,,
1572,1,SBT2050,2,3,,7,4338.1,4.29814,1.2694,2226.994,0,0,1269.405,,
1572,1,SBT2050,2,3,,7,4343.7,4.29816,1.2701,2228.97,0,0,1270.015,,
1572,1,SBT2050,2,3,,7,4349.4,4.29824,1.2679,2230.979,0,0,1268.065,,
1572,1,SBT2050,2,3,,7,4355,4.29834,1.2656,2232.949,0,0,1265.834,,
1572,1,SBT2050,2,3,,7,4360.6,4.29856,1.2662,2234.922,0,0,1266.447,,
1572,1,SBT2050,2,3,,7,4366.3,4.298126,1.2646,2236.926,0,0,1264.787,,
1572,1,SBT2050,2,3,,7,4371.9,4.2984,1.267,2238.892,0,0,1267.069,,
1572,1,SBT2050,2,3,,7,4377.5,4.29803,1.2633,2240.86,0,0,1263.879,,
1572,1,SBT2050,2,3,,7,4383.2,4.2984,1.2661,2242.864,0,0,1266.052,,
1572,1,SBT2050,2,3,,7,4388.8,4.29823,1.263,2244.83,0,0,1263.023,,
1572,1,SBT2050,2,3,,7,4394.5,4.29815,1.2614,2246.828,0,0,1261.538,,
1572,1,SBT2050,2,3,,7,4400.1,4.298478,1.2623,2248.795,0,0,1262.451,,
1572,1,SBT2050,2,3,,7,4405.7,4.29813,1.2609,2250.758,0,0,1260.921,,
1572,1,SBT2050,2,3,,7,4411.4,4.29837,1.2627,2252.759,0,0,1262.974,,
1572,1,SBT2050,2,3,,7,4417,4.29811,1.2609,2254.721,0,0,1260.819,,
1572,1,SBT2050,2,3,,7,4422.6,4.29837,1.2619,2256.687,0,0,1262.036,,
1572,1,SBT2050,2,3,,7,4428.3,4.29814,1.2643,2258.688,0,0,1264.308,,
1572,1,SBT2050,2,3,,7,4433.9,4.29822,1.262,2260.652,0,0,1262.473,,
1572,1,SBT2050,2,3,,7,4439.6,4.29811,1.2658,2262.651,0,0,1265.967,,
1572,1,SBT2050,2,3,,7,4445.2,4.29821,1.2626,2264.62,0,0,1262.797,,
1572,1,SBT2050,2,3,,7,4450.8,4.29828,1.2676,2266.591,0,0,1267.551,,
1572,1,SBT2050,2,3,,7,4456.5,4.2978,1.2635,2268.594,0,0,1263.707,,
1572,1,SBT2050,2,3,,7,4462.1,4.298424,1.2689,2270.562,0,0,1269.182,,
1572,1,SBT2050,2,3,,7,4467.7,4.29801,1.2674,2272.535,0,0,1267.485,,
1572,1,SBT2050,2,3,,7,4473.4,4.29786,1.2665,2274.541,0,0,1266.575,,
1572,1,SBT2050,2,3,,7,4479,4.29813,1.2708,2276.513,0,0,1270.834,,
1572,1,SBT2050,2,3,,7,4484.7,4.29814,1.2702,2278.524,0,0,1270.377,,
1572,1,SBT2050,2,3,,7,4490.3,4.29833,1.2772,2280.507,0,0,1277.109,,
1572,1,SBT2050,2,3,,7,4495.9,4.29927,1.2854,2282.502,0,0,1285.301,,
1572,1,SBT2050,2,3,,7,4501.6,4.29925,1.2836,2284.535,0,0,1283.508,,
1572,1,SBT2050,2,3,,7,4507.2,4.29904,1.2828,2286.531,0,0,1282.819,,
1572,1,SBT2050,2,3,,7,4512.8,4.29879,1.2841,2288.526,0,0,1283.942,,
1572,1,SBT2050,2,3,,7,4518.5,4.29891,1.2852,2290.559,0,0,1285.354,,
1572,1,SBT2050,2,3,,7,4524.1,4.299432,1.2931,2292.566,0,0,1293.044,,
1572,1,SBT2050,2,3,,7,4529.8,4.29959,1.2946,2294.613,0,0,1294.549,,
1572,1,SBT2050,2,3,,7,4535.4,4.30049,1.3055,2296.635,0,0,1305.564,,
1572,1,SBT2050,2,3,,7,4541,4.30221,1.3242,2298.682,0,0,1324.349,,
1572,1,SBT2050,2,3,,7,4546.7,4.30431,1.3443,2300.792,0,0,1344.338,,
1572,1,SBT2050,2,3,,7,4552.3,4.30565,1.3576,2302.894,0,0,1357.756,,
1572,1,SBT2050,2,3,,7,4557.9,4.30829,1.3792,2305.023,0,0,1379.447,,
1572,1,SBT2050,2,3,,7,4563.6,4.311,1.4074,2307.226,0,0,1407.728,,
1572,1,SBT2050,2,3,,7,4569.2,4.3138,1.4299,2309.431,0,0,1429.973,,
1572,1,SBT2050,2,3,,7,4574.9,4.31671,1.456,2311.718,0,0,1456.153,,
1572,1,SBT2050,2,3,,7,4580.5,4.31996,1.4829,2314.006,0,0,1482.911,,
1572,1,SBT2050,2,3,,7,4586.1,4.323474,1.5148,2316.338,0,0,1514.618,,
1572,1,SBT2050,2,3,,7,4591.8,4.3277,1.5527,2318.765,0,0,1552.925,,
1572,1,SBT2050,2,3,,7,4597.4,4.33142,1.5782,2321.2,0,0,1578.128,,
1572,1,SBT2050,2,3,,7,4603,4.33546,1.6154,2323.685,0,0,1615.575,,
1572,1,SBT2050,2,3,,7,4608.7,4.33975,1.6549,2326.271,0,0,1654.999,,
1572,1,SBT2050,2,3,,7,4614.3,4.34455,1.6909,2328.872,0,0,1691.06,,
1572,1,SBT2050,2,3,,7,4619.937,4.34983,1.7372,2331.556,0,,1737.566,,
1572,1,SBT2050,2,3,,7,4625.6,4.35449,1.7769,2334.318,0,0,1776.692,,
1572,1,SBT2050,2,3,,7,4631.2,4.359868,1.8143,2337.108,0,0,1814.391,,
1572,1,SBT2050,2,3,,7,4636.9,4.36557,1.862,2340.018,0,0,1862.088,,
1572,1,SBT2050,2,3,,7,4642.5,4.37041,1.8997,2342.944,0,0,1899.761,,
1572,1,SBT2050,2,3,,7,4648.1,4.37627,1.9465,2345.938,0,0,1946.508,,
1572,1,SBT2050,2,3,,7,4653.8,4.38162,1.9905,2349.053,0,0,1990.228,,
1572,1,SBT2050,2,3,,7,4659.4,4.38695,2.0336,2352.185,0,0,2033.786,,
1572,1,SBT2050,2,3,,7,4665,4.39291,2.0857,2355.393,0,0,2085.871,,
1572,1,SBT2050,2,3,,7,4670.7,4.398914,2.1362,2358.733,0,0,2136.141,,
1572,1,SBT2050,2,3,,7,4671.59,4.40003,2.1447,2359.262,0,,,,