File: ORRG/Test1536.csv
Request Year:,2018,,,,,,,,,,,,
Test:,1536,,,,,,,,,,,,
Test Description:,,,,,,,,,,,,,
TestRegime Name:,Aging_Performance,,,,,,,,,,,,
TestRegime Suffix:,SHP_LC,,,,,,,,,,,,
TestRegime CellSize:,18650,,,,,,,,,,,,
TestRegime Version:,1,,,,,,,,,,,,
Number Of Cells:,1,,,,,,,,,,,,
LotID:,,,,,,,,,,,,,
Lot Description:,,,,,,,,,,,,,
Date Made:,1/21/2003 12:00 AM,,,,,,,,,,,,
Origin:,Other,,,,,,,,,,,,
Requestor:,Admin,,,,,,,,,,,,
Product ID:,Default product,,,,,,,,,,,,
Storage Temp:,R.T./AMB,,,,,,,,,,,,
Storage Delay:,0 days,,,,,,,,,,,,
Test Temp:,R.T./AMB,,,,,,,,,,,,
Start Time:,4/22/2018 9:10 AM,,,,,,,,,,,,
End Time:,4/22/2018 7:24 PM,,,,,,,,,,,,
Operator Instructions:,,,,,,,,,,,,,
Test,Cell,Rack,Shelf,Position,Cell ID,Step,Total Time (Seconds),Voltage (V),Current (A),Charge Capacity (mAh),Discharge Capacity (mAh),TC1 (Â°C),
1536,1,SBT2050,2,3,,0,1,3.8733,0,0,0,27.1,
1536,1,SBT2050,2,3,,0,50,3.86927,0,0,0,26.7,
1536,1,SBT2050,2,3,,0,99,3.86642,0,0,0,26.5,
1536,1,SBT2050,2,3,,0,148,3.864488,0,0,0,26.3,
1536,1,SBT2050,2,3,,0,197,3.862656,0,0,0,26.1,
1536,1,SBT2050,2,3,,0,246,3.86088,0,0,0,25.9,
1536,1,SBT2050,2,3,,0,295,3.86011,0,0,0,25.9,
1536,1,SBT2050,2,3,,1,344,3.639978,-2.9359,0,35.882,26.1,
1536,1,SBT2050,2,3,,1,393,3.60922,-2.9361,0,75.844,26.6,
1536,1,SBT2050,2,3,,1,442,3.587734,-2.9359,0,115.806,26.9,
1536,1,SBT2050,2,3,,1,491,3.569368,-2.9359,0,155.767,27.3,
1536,1,SBT2050,2,3,,1,540,3.55216,-2.9356,0,195.729,27.6,
1536,1,SBT2050,2,3,,1,589,3.53586,-2.9364,0,235.69,27.9,
1536,1,SBT2050,2,3,,1,638,3.51987,-2.9361,0,275.651,28,
1536,1,SBT2050,2,3,,1,687,3.5046,-2.9361,0,315.613,28.2,
1536,1,SBT2050,2,3,,1,736,3.48952,-2.9359,0,355.574,28.3,
1536,1,SBT2050,2,3,,1,785,3.47491,-2.9359,0,395.536,28.4,
1536,1,SBT2050,2,3,,1,834,3.46042,-2.9363,0,435.497,28.4,
1536,1,SBT2050,2,3,,1,883,3.44588,-2.9354,0,475.459,28.4,
1536,1,SBT2050,2,3,,1,932,3.4314,-2.9358,0,515.42,28.4,
1536,1,SBT2050,2,3,,1,981,3.4168,-2.9364,0,555.382,28.5,
1536,1,SBT2050,2,3,,1,1030,3.40254,-2.9362,0,595.343,28.5,
1536,1,SBT2050,2,3,,1,1079,3.38793,-2.936,0,635.305,28.5,
1536,1,SBT2050,2,3,,1,1128,3.373462,-2.9361,0,675.266,28.6,
1536,1,SBT2050,2,3,,1,1177,3.35841,-2.9357,0,715.228,28.6,
1536,1,SBT2050,2,3,,1,1226,3.34365,-2.936,0,755.19,28.7,
1536,1,SBT2050,2,3,,1,1275,3.32828,-2.9359,0,795.151,28.7,
1536,1,SBT2050,2,3,,1,1324,3.31296,-2.9359,0,835.113,28.8,
1536,1,SBT2050,2,3,,1,1373,3.296607,-2.936,0,875.074,28.9,
1536,1,SBT2050,2,3,,1,1422,3.279325,-2.936,0,915.035,29,
1536,1,SBT2050,2,3,,1,1471,3.26164,-2.9356,0,954.997,29.1,
1536,1,SBT2050,2,3,,1,1520,3.24295,-2.9359,0,994.958,29.3,
1536,1,SBT2050,2,3,,1,1569,3.222479,-2.9359,0,1034.92,29.4,
1536,1,SBT2050,2,3,,1,1618,3.201213,-2.9358,0,1074.881,29.6,
1536,1,SBT2050,2,3,,1,1667,3.17829,-2.9357,0,1114.843,29.7,
1536,1,SBT2050,2,3,,1,1716,3.1529,-2.9362,0,1154.804,29.9,
1536,1,SBT2050,2,3,,1,1765,3.12603,-2.936,0,1194.766,30.2,
1536,1,SBT2050,2,3,,1,1814,3.09616,-2.936,0,1234.727,30.4,
1536,1,SBT2050,2,3,,1,1863,3.06347,-2.9358,0,1274.689,30.6,
1536,1,SBT2050,2,3,,1,1912,3.02703,-2.9357,0,1314.65,30.9,
1536,1,SBT2050,2,3,,1,1961,2.985705,-2.9355,0,1354.612,31.2,
1536,1,SBT2050,2,3,,1,2010,2.93727,-2.9357,0,1394.573,31.6,
1536,1,SBT2050,2,3,,1,2059,2.878965,-2.936,0,1434.535,32,
1536,1,SBT2050,2,3,,1,2108,2.80251,-2.9358,0,1474.497,32.5,
1536,1,SBT2050,2,3,,1,2157,2.69534,-2.9363,0,1514.459,33.1,
1536,1,SBT2050,2,3,,1,2206,2.53676,-2.9363,0,1554.42,34,
1536,1,SBT2050,2,3,,1,2255,2.49986,-2.351,0,1590.449,34.8,
1536,1,SBT2050,2,3,,1,2304,2.49989,-1.9452,0,1619.568,35.1,
1536,1,SBT2050,2,3,,1,2353,2.499817,-1.613,0,1643.708,35,
1536,1,SBT2050,2,3,,1,2402,2.499817,-1.3396,0,1663.751,34.6,
1536,1,SBT2050,2,3,,1,2451,2.499805,-1.1131,0,1680.396,34,
1536,1,SBT2050,2,3,,1,2500,2.49975,-0.9299,0,1694.251,33.3,
1536,1,SBT2050,2,3,,1,2549,2.4999,-0.7841,0,1705.878,32.6,
1536,1,SBT2050,2,3,,1,2598,2.49995,-0.6691,0,1715.733,31.9,
1536,1,SBT2050,2,3,,1,2647,2.49975,-0.5781,0,1724.194,31.2,
1536,1,SBT2050,2,3,,1,2696,2.499805,-0.5065,0,1731.558,30.6,
1536,1,SBT2050,2,3,,1,2745,2.49975,-0.44877,0,1738.048,30,
1536,1,SBT2050,2,3,,1,2794,2.49994,-0.40321,0,1743.838,29.5,
1536,1,SBT2050,2,3,,1,2843,2.50003,-0.36554,0,1749.06,29,
1536,1,SBT2050,2,3,,1,2892,2.499984,-0.3344,0,1753.816,28.6,
1536,1,SBT2050,2,3,,1,2941,2.499817,-0.30743,0,1758.176,28.2,
1536,1,SBT2050,2,3,,1,2990,2.49979,-0.28467,0,1762.201,27.9,
1536,1,SBT2050,2,3,,1,3039,2.50001,-0.26504,0,1765.938,27.6,
1536,1,SBT2050,2,3,,1,3088,2.49985,-0.24797,0,1769.428,27.3,
1536,1,SBT2050,2,3,,1,3137,2.49978,-0.23288,0,1772.701,27,
1536,1,SBT2050,2,3,,1,3186,2.4999,-0.21941,0,1775.78,26.8,
1536,1,SBT2050,2,3,,1,3235,2.4999,-0.20739,0,1778.684,26.6,
1536,1,SBT2050,2,3,,1,3284,2.4999,-0.19684,0,1781.433,26.5,
1536,1,SBT2050,2,3,,1,3333,2.499984,-0.18703,0,1784.043,26.3,
1536,1,SBT2050,2,3,,1,3382,2.49994,-0.17823,0,1786.527,26.2,
1536,1,SBT2050,2,3,,1,3431,2.49992,-0.16995,0,1788.896,26.1,
1536,1,SBT2050,2,3,,1,3480,2.499984,-0.16244,0,1791.157,26,
1536,1,SBT2050,2,3,,1,3529,2.49986,-0.15528,0,1793.318,26,
1536,1,SBT2050,2,3,,1,3578,2.499805,-0.14905,0,1795.39,25.9,
1536,1,SBT2050,2,3,,1,3627,2.49994,-0.14321,0,1797.379,25.9,
1536,1,SBT2050,2,3,,1,3676,2.50007,-0.13766,0,1799.29,25.9,
1536,1,SBT2050,2,3,,1,3725,2.49967,-0.13223,0,1801.127,25.8,
1536,1,SBT2050,2,3,,1,3774,2.499817,-0.12734,0,1802.894,25.8,
1536,1,SBT2050,2,3,,1,3823,2.49994,-0.12254,0,1804.594,25.7,
1536,1,SBT2050,2,3,,1,3872,2.49991,-0.11829,0,1806.233,25.7,
1536,1,SBT2050,2,3,,1,3921,2.49991,-0.11441,0,1807.814,25.7,
1536,1,SBT2050,2,3,,1,3970,2.499984,-0.11045,0,1809.343,25.7,
1536,1,SBT2050,2,3,,1,4019,2.50004,-0.10684,0,1810.823,25.7,
1536,1,SBT2050,2,3,,1,4068,2.49992,-0.10338,0,1812.253,25.7,
1536,1,SBT2050,2,3,,1,4117,2.50007,-0.10009,0,1813.638,25.6,
1536,1,SBT2050,2,3,,1,4166,2.50009,-0.09712,0,1814.978,25.6,
1536,1,SBT2050,2,3,,1,4215,2.49992,-0.0941,0,1816.279,25.6,
1536,1,SBT2050,2,3,,1,4264,2.4999,-0.0914,0,1817.542,25.6,
1536,1,SBT2050,2,3,,1,4313,2.49978,-0.08861,0,1818.768,25.6,
1536,1,SBT2050,2,3,,1,4362,2.499829,-0.08591,0,1819.958,25.6,
1536,1,SBT2050,2,3,,1,4411,2.49988,-0.08356,0,1821.112,25.6,
1536,1,SBT2050,2,3,,1,4460,2.49991,-0.08137,0,1822.235,25.5,
1536,1,SBT2050,2,3,,1,4509,2.49994,-0.07919,0,1823.328,25.6,
1536,1,SBT2050,2,3,,1,4558,2.50001,-0.07693,0,1824.391,25.6,
1536,1,SBT2050,2,3,,1,4607,2.49989,-0.07488,0,1825.424,25.5,
1536,1,SBT2050,2,3,,1,4656,2.499829,-0.07267,0,1826.428,25.5,
1536,1,SBT2050,2,3,,1,4705,2.49985,-0.07086,0,1827.404,25.5,
1536,1,SBT2050,2,3,,1,4754,2.499984,-0.06904,0,1828.355,25.5,
1536,1,SBT2050,2,3,,1,4803,2.500139,-0.06725,0,1829.282,25.5,
1536,1,SBT2050,2,3,,1,4852,2.499972,-0.06536,0,1830.183,25.5,
1536,1,SBT2050,2,3,,1,4901,2.49996,-0.06349,0,1831.06,25.5,
1536,1,SBT2050,2,3,,1,4950,2.50002,-0.06181,0,1831.914,25.5,
1536,1,SBT2050,2,3,,1,4999,2.499972,-0.06041,0,1832.746,25.5,
1536,1,SBT2050,2,3,,1,5048,2.4997,-0.05872,0,1833.557,25.5,
1536,1,SBT2050,2,3,,1,5097,2.50007,-0.05752,0,1834.346,25.5,
1536,1,SBT2050,2,3,,1,5146,2.50016,-0.05574,0,1835.114,25.4,
1536,1,SBT2050,2,3,,1,5195,2.5002,-0.05433,0,1835.862,25.5,
1536,1,SBT2050,2,3,,1,5244,2.4999,-0.05289,0,1836.591,25.5,
1536,1,SBT2050,2,3,,1,5293,2.49975,-0.05139,0,1837.302,25.5,
1536,1,SBT2050,2,3,,1,5342,2.49995,-0.05027,0,1837.995,25.5,
1536,1,SBT2050,2,3,,1,5391,2.50012,-0.0489,0,1838.67,25.5,
1536,1,SBT2050,2,3,,1,5440,2.50015,-0.04778,0,1839.329,25.5,
1536,1,SBT2050,2,3,,1,5489,2.5,-0.046717,0,1839.971,25.5,
1536,1,SBT2050,2,3,,1,5538,2.50003,-0.04555,0,1840.598,25.5,
1536,1,SBT2050,2,3,,1,5587,2.50001,-0.044389,0,1841.21,25.5,
1536,1,SBT2050,2,3,,1,5636,2.499984,-0.04327,0,1841.806,25.4,
1536,1,SBT2050,2,3,,1,5685,2.499817,-0.042149,0,1842.387,25.5,
1536,1,SBT2050,2,3,,1,5734,2.49986,-0.040971,0,1842.953,25.5,
1536,1,SBT2050,2,3,,1,5783,2.49995,-0.039959,0,1843.505,25.5,
1536,1,SBT2050,2,3,,1,5832,2.49992,-0.039078,0,1844.043,25.5,
1536,1,SBT2050,2,3,,1,5881,2.499984,-0.038075,0,1844.567,25.5,
1536,1,SBT2050,2,3,,1,5930,2.49976,-0.037007,0,1845.078,25.5,
1536,1,SBT2050,2,3,,1,5979,2.49995,-0.036025,0,1845.574,25.5,
1536,1,SBT2050,2,3,,1,6028,2.499984,-0.035029,0,1846.058,25.5,
1536,1,SBT2050,2,3,,1,6077,2.4999,-0.034145,0,1846.528,25.5,
1536,1,SBT2050,2,3,,1,6126,2.49991,-0.033309,0,1846.985,25.5,
1536,1,SBT2050,2,3,,1,6175,2.50003,-0.032187,0,1847.431,25.5,
1536,1,SBT2050,2,3,,1,6224,2.50002,-0.031325,0,1847.863,25.5,
1536,1,SBT2050,2,3,,1,6273,2.49992,-0.030396,0,1848.283,25.4,
1536,1,SBT2050,2,3,,1,6322,2.499984,-0.029629,0,1848.692,25.5,
1536,1,SBT2050,2,3,,1,6371,2.50001,-0.028627,0,1849.089,25.5,
1536,1,SBT2050,2,3,,1,6420,2.5,-0.027986,0,1849.475,25.5,
1536,1,SBT2050,2,3,,1,6469,2.5,-0.02733,0,1849.851,25.5,
1536,1,SBT2050,2,3,,1,6518,2.50006,-0.026371,0,1850.216,25.5,
1536,1,SBT2050,2,3,,1,6567,2.50001,-0.025746,0,1850.571,25.4,
1536,1,SBT2050,2,3,,1,6616,2.499972,-0.025043,0,1850.917,25.5,
1536,1,SBT2050,2,3,,1,6665,2.50003,-0.024441,0,1851.254,25.5,
1536,1,SBT2050,2,3,,1,6714,2.5001,-0.023814,0,1851.581,25.5,
1536,1,SBT2050,2,3,,1,6763,2.49978,-0.023005,0,1851.899,25.4,
1536,1,SBT2050,2,3,,1,6812,2.49992,-0.022291,0,1852.209,25.5,
1536,1,SBT2050,2,3,,1,6861,2.50016,-0.021907,0,1852.51,25.5,
1536,1,SBT2050,2,3,,1,6910,2.50004,-0.021379,0,1852.804,25.5,
1536,1,SBT2050,2,3,,1,6959,2.50003,-0.020742,0,1853.089,25.5,
1536,1,SBT2050,2,3,,1,7008,2.50004,-0.020231,0,1853.366,25.5,
1536,1,SBT2050,2,3,,1,7057,2.49991,-0.019548,0,1853.636,25.5,
1536,1,SBT2050,2,3,,1,7106,2.499984,-0.019105,0,1853.898,25.5,
1536,1,SBT2050,2,3,,1,7155,2.50006,-0.018596,0,1854.153,25.5,
1536,1,SBT2050,2,3,,1,7204,2.49992,-0.01789,0,1854.401,25.5,
1536,1,SBT2050,2,3,,1,7253,2.49996,-0.017343,0,1854.641,25.5,
1536,1,SBT2050,2,3,,1,7302,2.50006,-0.016741,0,1854.874,25.4,
1536,1,SBT2050,2,3,,1,7351,2.49984,-0.016273,0,1855.101,25.5,
1536,1,SBT2050,2,3,,1,7400,2.499984,-0.015983,0,1855.321,25.5,
1536,1,SBT2050,2,3,,1,7449,2.50002,-0.015726,0,1855.535,25.4,
1536,1,SBT2050,2,3,,1,7498,2.49988,-0.014868,0,1855.742,25.4,
1536,1,SBT2050,2,3,,1,7547,2.5001,-0.014668,0,1855.943,25.5,
1536,1,SBT2050,2,3,,1,7596,2.50006,-0.014131,0,1856.139,25.4,
1536,1,SBT2050,2,3,,1,7645,2.49996,-0.013548,0,1856.328,25.5,
1536,1,SBT2050,2,3,,1,7694,2.49988,-0.013354,0,1856.512,25.5,
1536,1,SBT2050,2,3,,1,7743,2.50007,-0.012937,0,1856.691,25.5,
1536,1,SBT2050,2,3,,1,7792,2.49995,-0.012443,0,1856.864,25.5,
1536,1,SBT2050,2,3,,1,7841,2.49978,-0.01214,0,1857.032,25.4,
1536,1,SBT2050,2,3,,1,7890,2.50002,-0.011947,0,1857.194,25.4,
1536,1,SBT2050,2,3,,1,7939,2.49985,-0.011447,0,1857.353,25.4,
1536,1,SBT2050,2,3,,1,7988,2.50009,-0.011235,0,1857.506,25.5,
1536,1,SBT2050,2,3,,1,8037,2.500127,-0.010835,0,1857.656,25.5,
1536,1,SBT2050,2,3,,1,8086,2.49991,-0.010339,0,1857.8,25.5,
1536,1,SBT2050,2,3,,1,8134.276,2.49976,-0.009982,0,1857.939,,
1536,1,SBT2050,2,3,,2,8183,3.42792,2.9358,39.735,1857.939,25.8,
1536,1,SBT2050,2,3,,2,8232,3.571544,2.9357,79.697,1857.939,26.3,
1536,1,SBT2050,2,3,,2,8281,3.63013,2.9364,119.658,1857.939,26.9,
1536,1,SBT2050,2,3,,2,8330,3.64481,2.9359,159.62,1857.939,27.6,
1536,1,SBT2050,2,3,,2,8379,3.65849,2.9359,199.581,1857.939,28.2,
1536,1,SBT2050,2,3,,2,8428,3.672214,2.9361,239.543,1857.939,28.7,
1536,1,SBT2050,2,3,,2,8477,3.6855,2.9359,279.504,1857.939,29.2,
1536,1,SBT2050,2,3,,2,8526,3.69771,2.9357,319.466,1857.939,29.5,
1536,1,SBT2050,2,3,,2,8575,3.708456,2.9361,359.427,1857.939,29.8,
1536,1,SBT2050,2,3,,2,8624,3.71755,2.9357,399.389,1857.939,30.1,
1536,1,SBT2050,2,3,,2,8673,3.72531,2.9361,439.35,1857.939,30.2,
1536,1,SBT2050,2,3,,2,8722,3.73195,2.9358,479.311,1857.939,30.4,
1536,1,SBT2050,2,3,,2,8771,3.7384,2.936,519.273,1857.939,30.5,
1536,1,SBT2050,2,3,,2,8820,3.745724,2.9362,559.234,1857.939,30.6,
1536,1,SBT2050,2,3,,2,8869,3.752924,2.936,599.196,1857.939,30.6,
1536,1,SBT2050,2,3,,2,8918,3.76112,2.9364,639.157,1857.939,30.6,
1536,1,SBT2050,2,3,,2,8967,3.76962,2.9361,679.119,1857.939,30.6,
1536,1,SBT2050,2,3,,2,9016,3.77814,2.936,719.08,1857.939,30.6,
1536,1,SBT2050,2,3,,2,9065,3.78653,2.9358,759.042,1857.939,30.7,
1536,1,SBT2050,2,3,,2,9114,3.79528,2.936,799.003,1857.939,30.7,
1536,1,SBT2050,2,3,,2,9163,3.80379,2.9361,838.965,1857.939,30.7,
1536,1,SBT2050,2,3,,2,9212,3.81287,2.9355,878.927,1857.939,30.7,
1536,1,SBT2050,2,3,,2,9261,3.82228,2.9358,918.888,1857.939,30.7,
1536,1,SBT2050,2,3,,2,9310,3.8317,2.9357,958.85,1857.939,30.6,
1536,1,SBT2050,2,3,,2,9359,3.84178,2.9358,998.811,1857.939,30.7,
1536,1,SBT2050,2,3,,2,9408,3.85227,2.9361,1038.773,1857.939,30.7,
1536,1,SBT2050,2,3,,2,9457,3.86327,2.9362,1078.734,1857.939,30.7,
1536,1,SBT2050,2,3,,2,9506,3.87462,2.9362,1118.695,1857.939,30.7,
1536,1,SBT2050,2,3,,2,9555,3.887208,2.936,1158.657,1857.939,30.7,
1536,1,SBT2050,2,3,,2,9604,3.89941,2.9359,1198.619,1857.939,30.8,
1536,1,SBT2050,2,3,,2,9653,3.912452,2.9356,1238.58,1857.939,30.8,
1536,1,SBT2050,2,3,,2,9702,3.92643,2.9358,1278.541,1857.939,30.9,
1536,1,SBT2050,2,3,,2,9751,3.93961,2.9359,1318.503,1857.939,30.9,
1536,1,SBT2050,2,3,,2,9800,3.9536,2.9363,1358.464,1857.939,30.9,
1536,1,SBT2050,2,3,,2,9849,3.96814,2.9359,1398.426,1857.939,31,
1536,1,SBT2050,2,3,,2,9898,3.98199,2.9361,1438.387,1857.939,31.1,
1536,1,SBT2050,2,3,,2,9947,3.99628,2.9361,1478.349,1857.939,31.2,
1536,1,SBT2050,2,3,,2,9996,4.01054,2.9361,1518.311,1857.939,31.1,
1536,1,SBT2050,2,3,,2,10045,4.0256,2.936,1558.272,1857.939,31.2,
1536,1,SBT2050,2,3,,2,10094,4.04031,2.9365,1598.234,1857.939,31.3,
1536,1,SBT2050,2,3,,2,10143,4.054604,2.936,1638.196,1857.939,31.3,
1536,1,SBT2050,2,3,,2,10192,4.06939,2.9362,1678.157,1857.939,31.4,
1536,1,SBT2050,2,3,,2,10241,4.08421,2.9359,1718.119,1857.939,31.4,
1536,1,SBT2050,2,3,,2,10290,4.09924,2.9361,1758.081,1857.939,31.5,
1536,1,SBT2050,2,3,,2,10339,4.11419,2.9358,1798.043,1857.939,31.5,
1536,1,SBT2050,2,3,,2,10388,4.12949,2.936,1838.004,1857.939,31.5,
1536,1,SBT2050,2,3,,2,10437,4.14475,2.9362,1877.966,1857.939,31.6,
1536,1,SBT2050,2,3,,2,10486,4.15016,2.7779,1917.188,1857.939,31.6,
1536,1,SBT2050,2,3,,2,10535,4.15011,2.593,1953.705,1857.939,31.6,
1536,1,SBT2050,2,3,,2,10584,4.15007,2.4211,1987.81,1857.939,31.4,
1536,1,SBT2050,2,3,,2,10633,4.15007,2.2555,2019.628,1857.939,31.2,
1536,1,SBT2050,2,3,,2,10682,4.14979,2.1039,2049.288,1857.939,31,
1536,1,SBT2050,2,3,,2,10731,4.149948,1.9595,2076.929,1857.939,30.8,
1536,1,SBT2050,2,3,,2,10780,4.15015,1.8277,2102.702,1857.939,30.5,
1536,1,SBT2050,2,3,,2,10829,4.1502,1.7035,2126.728,1857.939,30.2,
1536,1,SBT2050,2,3,,2,10878,4.15003,1.5916,2149.147,1857.939,29.9,
1536,1,SBT2050,2,3,,2,10927,4.1499,1.4881,2170.084,1857.939,29.7,
1536,1,SBT2050,2,3,,2,10976,4.14998,1.3938,2189.686,1857.939,29.4,
1536,1,SBT2050,2,3,,2,11025,4.15004,1.3068,2208.064,1857.939,29.2,
1536,1,SBT2050,2,3,,2,11074,4.1501,1.2286,2225.32,1857.939,28.9,
1536,1,SBT2050,2,3,,2,11123,4.15,1.1565,2241.549,1857.939,28.7,
1536,1,SBT2050,2,3,,2,11172,4.149936,1.0907,2256.833,1857.939,28.5,
1536,1,SBT2050,2,3,,2,11221,4.15013,1.0289,2271.248,1857.939,28.3,
1536,1,SBT2050,2,3,,2,11270,4.15021,0.9728,2284.865,1857.939,28.1,
1536,1,SBT2050,2,3,,2,11319,4.14998,0.9228,2297.761,1857.939,28,
1536,1,SBT2050,2,3,,2,11368,4.15007,0.8756,2310.001,1857.939,27.8,
1536,1,SBT2050,2,3,,2,11417,4.15016,0.8317,2321.609,1857.939,27.6,
1536,1,SBT2050,2,3,,2,11466,4.150222,0.7915,2332.641,1857.939,27.5,
1536,1,SBT2050,2,3,,2,11515,4.15007,0.7537,2343.14,1857.939,27.4,
1536,1,SBT2050,2,3,,2,11564,4.150234,0.7178,2353.146,1857.939,27.3,
1536,1,SBT2050,2,3,,2,11613,4.14997,0.6855,2362.703,1857.939,27.2,
1536,1,SBT2050,2,3,,2,11662,4.15006,0.6559,2371.821,1857.939,27.1,
1536,1,SBT2050,2,3,,2,11711,4.149924,0.627,2380.542,1857.939,27,
1536,1,SBT2050,2,3,,2,11760,4.15002,0.6006,2388.897,1857.939,26.9,
1536,1,SBT2050,2,3,,2,11809,4.15021,0.5766,2396.905,1857.939,26.9,
1536,1,SBT2050,2,3,,2,11858,4.14997,0.554,2404.595,1857.939,26.8,
1536,1,SBT2050,2,3,,2,11907,4.15009,0.5328,2411.989,1857.939,26.7,
1536,1,SBT2050,2,3,,2,11956,4.14998,0.5123,2419.096,1857.939,26.7,
1536,1,SBT2050,2,3,,2,12005,4.15,0.4925,2425.93,1857.939,26.6,
1536,1,SBT2050,2,3,,2,12054,4.15008,0.47473,2432.514,1857.939,26.6,
1536,1,SBT2050,2,3,,2,12103,4.14986,0.45827,2438.873,1857.939,26.5,
1536,1,SBT2050,2,3,,2,12152,4.1501,0.44258,2445.008,1857.939,26.5,
1536,1,SBT2050,2,3,,2,12201,4.15006,0.429,2450.933,1857.939,26.5,
1536,1,SBT2050,2,3,,2,12250,4.15016,0.41342,2456.668,1857.939,26.4,
1536,1,SBT2050,2,3,,2,12299,4.15004,0.40127,2462.212,1857.939,26.4,
1536,1,SBT2050,2,3,,2,12348,4.15017,0.38889,2467.588,1857.939,26.4,
1536,1,SBT2050,2,3,,2,12397,4.15007,0.37739,2472.803,1857.939,26.3,
1536,1,SBT2050,2,3,,2,12446,4.149924,0.36735,2477.869,1857.939,26.3,
1536,1,SBT2050,2,3,,2,12495,4.14989,0.3565,2482.793,1857.939,26.3,
1536,1,SBT2050,2,3,,2,12544,4.149912,0.34669,2487.575,1857.939,26.2,
1536,1,SBT2050,2,3,,2,12593,4.1499,0.33639,2492.225,1857.939,26.2,
1536,1,SBT2050,2,3,,2,12642,4.14988,0.32872,2496.751,1857.939,26.2,
1536,1,SBT2050,2,3,,2,12691,4.15016,0.31821,2501.156,1857.939,26.2,
1536,1,SBT2050,2,3,,2,12740,4.14983,0.31067,2505.444,1857.939,26.1,
1536,1,SBT2050,2,3,,2,12789,4.15016,0.30331,2509.625,1857.939,26.1,
1536,1,SBT2050,2,3,,2,12838,4.15004,0.29518,2513.694,1857.939,26.1,
1536,1,SBT2050,2,3,,2,12887,4.15029,0.28719,2517.659,1857.939,26.1,
1536,1,SBT2050,2,3,,2,12936,4.15008,0.28071,2521.527,1857.939,26.1,
1536,1,SBT2050,2,3,,2,12985,4.15014,0.27347,2525.301,1857.939,26.1,
1536,1,SBT2050,2,3,,2,13034,4.15006,0.26727,2528.982,1857.939,26.1,
1536,1,SBT2050,2,3,,2,13083,4.15002,0.26087,2532.574,1857.939,26,
1536,1,SBT2050,2,3,,2,13132,4.15004,0.25462,2536.077,1857.939,26,
1536,1,SBT2050,2,3,,2,13181,4.15015,0.24846,2539.503,1857.939,26,
1536,1,SBT2050,2,3,,2,13230,4.15008,0.24342,2542.847,1857.939,26,
1536,1,SBT2050,2,3,,2,13279,4.15003,0.23747,2546.117,1857.939,26,
1536,1,SBT2050,2,3,,2,13328,4.14998,0.23195,2549.309,1857.939,26,
1536,1,SBT2050,2,3,,2,13377,4.150222,0.2269,2552.43,1857.939,26,
1536,1,SBT2050,2,3,,2,13426,4.15003,0.22195,2555.485,1857.939,25.9,
1536,1,SBT2050,2,3,,2,13475,4.1499,0.2169,2558.469,1857.939,25.9,
1536,1,SBT2050,2,3,,2,13524,4.14996,0.21218,2561.389,1857.939,25.9,
1536,1,SBT2050,2,3,,2,13573,4.14979,0.20768,2564.246,1857.939,25.9,
1536,1,SBT2050,2,3,,2,13622,4.15009,0.20313,2567.046,1857.939,25.9,
1536,1,SBT2050,2,3,,2,13671,4.15,0.19856,2569.783,1857.939,25.9,
1536,1,SBT2050,2,3,,2,13720,4.150222,0.19481,2572.462,1857.939,25.9,
1536,1,SBT2050,2,3,,2,13769,4.149936,0.19043,2575.085,1857.939,25.9,
1536,1,SBT2050,2,3,,2,13818,4.15003,0.18683,2577.649,1857.939,25.9,
1536,1,SBT2050,2,3,,2,13867,4.14984,0.18331,2580.168,1857.939,25.9,
1536,1,SBT2050,2,3,,2,13916,4.150234,0.1794,2582.636,1857.939,25.9,
1536,1,SBT2050,2,3,,2,13965,4.15029,0.17538,2585.052,1857.939,25.9,
1536,1,SBT2050,2,3,,2,14014,4.149924,0.17241,2587.421,1857.939,25.8,
1536,1,SBT2050,2,3,,2,14063,4.149924,0.16912,2589.744,1857.939,25.8,
1536,1,SBT2050,2,3,,2,14112,4.15016,0.16604,2592.023,1857.939,25.8,
1536,1,SBT2050,2,3,,2,14161,4.15001,0.16238,2594.258,1857.939,25.8,
1536,1,SBT2050,2,3,,2,14210,4.14985,0.15928,2596.445,1857.939,25.8,
1536,1,SBT2050,2,3,,2,14259,4.15001,0.15611,2598.592,1857.939,25.8,
1536,1,SBT2050,2,3,,2,14308,4.15009,0.15267,2600.693,1857.939,25.8,
1536,1,SBT2050,2,3,,2,14357,4.1499,0.14985,2602.752,1857.939,25.8,
1536,1,SBT2050,2,3,,2,14406,4.15017,0.14719,2604.774,1857.939,25.8,
1536,1,SBT2050,2,3,,2,14455,4.15007,0.14481,2606.765,1857.939,25.8,
1536,1,SBT2050,2,3,,2,14504,4.1501,0.14223,2608.722,1857.939,25.8,
1536,1,SBT2050,2,3,,2,14553,4.149924,0.13932,2610.636,1857.939,25.8,
1536,1,SBT2050,2,3,,2,14602,4.149936,0.13712,2612.515,1857.939,25.8,
1536,1,SBT2050,2,3,,2,14651,4.15013,0.13469,2614.366,1857.939,25.8,
1536,1,SBT2050,2,3,,2,14700,4.14986,0.13258,2616.182,1857.939,25.8,
1536,1,SBT2050,2,3,,2,14749,4.15017,0.12982,2617.965,1857.939,25.8,
1536,1,SBT2050,2,3,,2,14798,4.15007,0.12768,2619.718,1857.939,25.8,
1536,1,SBT2050,2,3,,2,14847,4.15008,0.12498,2621.437,1857.939,25.8,
1536,1,SBT2050,2,3,,2,14896,4.14976,0.12247,2623.122,1857.939,25.8,
1536,1,SBT2050,2,3,,2,14945,4.149936,0.12051,2624.775,1857.939,25.8,
1536,1,SBT2050,2,3,,2,14994,4.15007,0.1187,2626.401,1857.939,25.8,
1536,1,SBT2050,2,3,,2,15043,4.15011,0.11597,2628.002,1857.939,25.8,
1536,1,SBT2050,2,3,,2,15092,4.14996,0.11459,2629.574,1857.939,25.8,
1536,1,SBT2050,2,3,,2,15141,4.15017,0.11271,2631.122,1857.939,25.7,
1536,1,SBT2050,2,3,,2,15190,4.14966,0.1103,2632.641,1857.939,25.7,
1536,1,SBT2050,2,3,,2,15239,4.15002,0.10881,2634.135,1857.939,25.7,
1536,1,SBT2050,2,3,,2,15288,4.14978,0.10733,2635.6,1857.939,25.7,
1536,1,SBT2050,2,3,,2,15337,4.14988,0.10534,2637.043,1857.939,25.7,
1536,1,SBT2050,2,3,,2,15386,4.15002,0.10294,2638.464,1857.939,25.7,
1536,1,SBT2050,2,3,,2,15435,4.149924,0.10161,2639.857,1857.939,25.7,
1536,1,SBT2050,2,3,,2,15484,4.149924,0.10032,2641.233,1857.939,25.7,
1536,1,SBT2050,2,3,,2,15533,4.149936,0.09831,2642.584,1857.939,25.7,
1536,1,SBT2050,2,3,,2,15582,4.15019,0.09663,2643.911,1857.939,25.7,
1536,1,SBT2050,2,3,,2,15631,4.15003,0.0951,2645.216,1857.939,25.7,
1536,1,SBT2050,2,3,,2,15680,4.150234,0.0939,2646.505,1857.939,25.7,
1536,1,SBT2050,2,3,,2,15729,4.15007,0.0922,2647.774,1857.939,25.7,
1536,1,SBT2050,2,3,,2,15778,4.14997,0.09068,2649.023,1857.939,25.7,
1536,1,SBT2050,2,3,,2,15827,4.149924,0.09029,2650.25,1857.939,25.7,
1536,1,SBT2050,2,3,,2,15876,4.14997,0.08848,2651.461,1857.939,25.7,
1536,1,SBT2050,2,3,,2,15925,4.14989,0.08729,2652.655,1857.939,25.7,
1536,1,SBT2050,2,3,,2,15974,4.15015,0.08533,2653.829,1857.939,25.7,
1536,1,SBT2050,2,3,,2,16023,4.149948,0.08411,2654.988,1857.939,25.7,
1536,1,SBT2050,2,3,,2,16072,4.15015,0.08323,2656.127,1857.939,25.7,
1536,1,SBT2050,2,3,,2,16121,4.15007,0.08214,2657.252,1857.939,25.7,
1536,1,SBT2050,2,3,,2,16170,4.14996,0.08049,2658.361,1857.939,25.7,
1536,1,SBT2050,2,3,,2,16219,4.14998,0.07964,2659.454,1857.939,25.7,
1536,1,SBT2050,2,3,,2,16268,4.14973,0.07882,2660.533,1857.939,25.7,
1536,1,SBT2050,2,3,,2,16317,4.15011,0.07704,2661.593,1857.939,25.7,
1536,1,SBT2050,2,3,,2,16366,4.15015,0.07591,2662.638,1857.939,25.7,
1536,1,SBT2050,2,3,,2,16415,4.15,0.07501,2663.668,1857.939,25.7,
1536,1,SBT2050,2,3,,2,16464,4.15032,0.07381,2664.683,1857.939,25.7,
1536,1,SBT2050,2,3,,2,16513,4.15039,0.07286,2665.684,1857.939,25.7,
1536,1,SBT2050,2,3,,2,16562,4.1501,0.07172,2666.668,1857.939,25.7,
1536,1,SBT2050,2,3,,2,16611,4.15038,0.07101,2667.641,1857.939,25.7,
1536,1,SBT2050,2,3,,2,16660,4.15001,0.06907,2668.599,1857.939,25.7,
1536,1,SBT2050,2,3,,2,16709,4.14984,0.0689,2669.537,1857.939,25.7,
1536,1,SBT2050,2,3,,2,16758,4.150222,0.06776,2670.469,1857.939,25.7,
1536,1,SBT2050,2,3,,2,16807,4.149924,0.06711,2671.387,1857.939,25.6,
1536,1,SBT2050,2,3,,2,16856,4.14996,0.06594,2672.292,1857.939,25.7,
1536,1,SBT2050,2,3,,2,16905,4.15007,0.06527,2673.19,1857.939,25.7,
1536,1,SBT2050,2,3,,2,16954,4.15006,0.06409,2674.07,1857.939,25.7,
1536,1,SBT2050,2,3,,2,17003,4.15002,0.0633,2674.936,1857.939,25.7,
1536,1,SBT2050,2,3,,2,17052,4.15004,0.06295,2675.795,1857.939,25.7,
1536,1,SBT2050,2,3,,2,17101,4.14989,0.06207,2676.644,1857.939,25.7,
1536,1,SBT2050,2,3,,2,17150,4.15009,0.0608,2677.478,1857.939,25.7,
1536,1,SBT2050,2,3,,2,17199,4.14985,0.06054,2678.305,1857.939,25.7,
1536,1,SBT2050,2,3,,2,17248,4.14986,0.05966,2679.122,1857.939,25.7,
1536,1,SBT2050,2,3,,2,17297,4.15002,0.05825,2679.925,1857.939,25.7,
1536,1,SBT2050,2,3,,2,17346,4.150222,0.05767,2680.713,1857.939,25.7,
1536,1,SBT2050,2,3,,2,17395,4.14998,0.05679,2681.495,1857.939,25.7,
1536,1,SBT2050,2,3,,2,17444,4.15003,0.05597,2682.268,1857.939,25.7,
1536,1,SBT2050,2,3,,2,17493,4.14985,0.05578,2683.029,1857.939,25.7,
1536,1,SBT2050,2,3,,2,17542,4.14988,0.05468,2683.783,1857.939,25.7,
1536,1,SBT2050,2,3,,2,17591,4.149948,0.05411,2684.525,1857.939,25.7,
1536,1,SBT2050,2,3,,2,17640,4.14982,0.05306,2685.255,1857.939,25.6,
1536,1,SBT2050,2,3,,2,17689,4.14982,0.05277,2685.975,1857.939,25.7,
1536,1,SBT2050,2,3,,2,17738,4.15013,0.05192,2686.687,1857.939,25.7,
1536,1,SBT2050,2,3,,2,17787,4.14998,0.05147,2687.391,1857.939,25.7,
1536,1,SBT2050,2,3,,2,17836,4.15034,0.05036,2688.086,1857.939,25.7,
1536,1,SBT2050,2,3,,2,17885,4.15007,0.05,2688.771,1857.939,25.6,
1536,1,SBT2050,2,3,,2,17934,4.15009,0.04933,2689.447,1857.939,25.7,
1536,1,SBT2050,2,3,,2,17983,4.15016,0.04827,2690.113,1857.939,25.7,
1536,1,SBT2050,2,3,,2,18032,4.15006,0.04811,2690.774,1857.939,25.7,
1536,1,SBT2050,2,3,,2,18081,4.14989,0.04786,2691.426,1857.939,25.7,
1536,1,SBT2050,2,3,,2,18130,4.15008,0.047254,2692.07,1857.939,25.6,
1536,1,SBT2050,2,3,,2,18179,4.14969,0.047204,2692.713,1857.939,25.7,
1536,1,SBT2050,2,3,,2,18228,4.14985,0.046363,2693.345,1857.939,25.6,
1536,1,SBT2050,2,3,,2,18277,4.150258,0.045416,2693.973,1857.939,25.6,
1536,1,SBT2050,2,3,,2,18326,4.14997,0.045128,2694.588,1857.939,25.7,
1536,1,SBT2050,2,3,,2,18375,4.15013,0.044149,2695.197,1857.939,25.7,
1536,1,SBT2050,2,3,,2,18424,4.15011,0.043623,2695.798,1857.939,25.7,
1536,1,SBT2050,2,3,,2,18473,4.15,0.043193,2696.391,1857.939,25.7,
1536,1,SBT2050,2,3,,2,18522,4.1501,0.042565,2696.977,1857.939,25.6,
1536,1,SBT2050,2,3,,2,18571,4.15003,0.042002,2697.556,1857.939,25.6,
1536,1,SBT2050,2,3,,2,18620,4.15006,0.0417,2698.132,1857.939,25.7,
1536,1,SBT2050,2,3,,2,18669,4.14997,0.040665,2698.695,1857.939,25.6,
1536,1,SBT2050,2,3,,2,18718,4.15014,0.04067,2699.251,1857.939,25.7,
1536,1,SBT2050,2,3,,2,18767,4.15015,0.040041,2699.799,1857.939,25.7,
1536,1,SBT2050,2,3,,2,18816,4.15037,0.039629,2700.343,1857.939,25.7,
1536,1,SBT2050,2,3,,2,18865,4.14984,0.039266,2700.88,1857.939,25.6,
1536,1,SBT2050,2,3,,2,18914,4.15002,0.038906,2701.411,1857.939,25.7,
1536,1,SBT2050,2,3,,2,18963,4.15,0.038416,2701.936,1857.939,25.7,
1536,1,SBT2050,2,3,,2,19012,4.15001,0.038218,2702.456,1857.939,25.7,
1536,1,SBT2050,2,3,,2,19061,4.14983,0.037283,2702.968,1857.939,25.7,
1536,1,SBT2050,2,3,,2,19110,4.150246,0.036717,2703.473,1857.939,25.6,
1536,1,SBT2050,2,3,,2,19159,4.149912,0.036661,2703.973,1857.939,25.6,
1536,1,SBT2050,2,3,,2,19208,4.1501,0.036087,2704.468,1857.939,25.7,
1536,1,SBT2050,2,3,,2,19257,4.149936,0.036046,2704.957,1857.939,25.7,
1536,1,SBT2050,2,3,,2,19306,4.149924,0.03552,2705.445,1857.939,25.7,
1536,1,SBT2050,2,3,,2,19355,4.14977,0.035319,2705.925,1857.939,25.6,
1536,1,SBT2050,2,3,,2,19404,4.15003,0.034779,2706.402,1857.939,25.6,
1536,1,SBT2050,2,3,,2,19453,4.14989,0.034382,2706.872,1857.939,25.6,
1536,1,SBT2050,2,3,,2,19502,4.15021,0.033879,2707.336,1857.939,25.6,
1536,1,SBT2050,2,3,,2,19551,4.15009,0.033503,2707.795,1857.939,25.7,
1536,1,SBT2050,2,3,,2,19600,4.14973,0.033191,2708.247,1857.939,25.7,
1536,1,SBT2050,2,3,,2,19649,4.15006,0.032761,2708.697,1857.939,25.7,
1536,1,SBT2050,2,3,,2,19698,4.15017,0.032033,2709.139,1857.939,25.6,
1536,1,SBT2050,2,3,,2,19747,4.15004,0.032004,2709.574,1857.939,25.6,
1536,1,SBT2050,2,3,,2,19796,4.14982,0.03201,2710.01,1857.939,25.6,
1536,1,SBT2050,2,3,,2,19845,4.14997,0.031377,2710.44,1857.939,25.6,
1536,1,SBT2050,2,3,,2,19894,4.14979,0.031069,2710.865,1857.939,25.7,
1536,1,SBT2050,2,3,,2,19943,4.15004,0.030927,2711.284,1857.939,25.6,
1536,1,SBT2050,2,3,,2,19992,4.15001,0.0305,2711.702,1857.939,25.6,
1536,1,SBT2050,2,3,,2,20041,4.15003,0.029345,2712.108,1857.939,25.6,
1536,1,SBT2050,2,3,,2,20090,4.1501,0.028014,2712.5,1857.939,25.6,
1536,1,SBT2050,2,3,,2,20139,4.149948,0.026988,2712.875,1857.939,25.4,
1536,1,SBT2050,2,3,,2,20188,4.14997,0.02674,2713.24,1857.939,25.2,
1536,1,SBT2050,2,3,,2,20237,4.15015,0.025981,2713.599,1857.939,25.1,
1536,1,SBT2050,2,3,,2,20286,4.14997,0.025453,2713.948,1857.939,24.9,
1536,1,SBT2050,2,3,,2,20335,4.15008,0.025056,2714.289,1857.939,24.9,
1536,1,SBT2050,2,3,,2,20384,4.149936,0.024414,2714.623,1857.939,24.7,
1536,1,SBT2050,2,3,,2,20433,4.149924,0.023377,2714.947,1857.939,24.7,
1536,1,SBT2050,2,3,,2,20482,4.149948,0.023416,2715.269,1857.939,24.7,
1536,1,SBT2050,2,3,,2,20531,4.15019,0.023071,2715.586,1857.939,24.7,
1536,1,SBT2050,2,3,,2,20580,4.14997,0.023082,2715.898,1857.939,24.7,
1536,1,SBT2050,2,3,,2,20629,4.15013,0.022592,2716.21,1857.939,24.7,
1536,1,SBT2050,2,3,,2,20678,4.149912,0.022439,2716.515,1857.939,24.7,
1536,1,SBT2050,2,3,,2,20727,4.15021,0.021563,2716.813,1857.939,24.7,
1536,1,SBT2050,2,3,,2,20776,4.15028,0.021319,2717.105,1857.939,24.7,
1536,1,SBT2050,2,3,,2,20825,4.150234,0.021131,2717.395,1857.939,24.7,
1536,1,SBT2050,2,3,,2,20874,4.1499,0.020724,2717.677,1857.939,24.7,
1536,1,SBT2050,2,3,,2,20923,4.149924,0.020483,2717.956,1857.939,24.7,
1536,1,SBT2050,2,3,,2,20972,4.15041,0.019555,2718.231,1857.939,24.7,
1536,1,SBT2050,2,3,,2,21021,4.14976,0.020217,2718.503,1857.939,24.7,
1536,1,SBT2050,2,3,,2,21070,4.14998,0.01982,2718.774,1857.939,24.7,
1536,1,SBT2050,2,3,,2,21119,4.1502,0.020152,2719.047,1857.939,24.7,
1536,1,SBT2050,2,3,,2,21168,4.149912,0.01997,2719.319,1857.939,24.7,
1536,1,SBT2050,2,3,,2,21217,4.15003,0.020055,2719.585,1857.939,24.7,
1536,1,SBT2050,2,3,,2,21266,4.1502,0.019367,2719.853,1857.939,24.8,
1536,1,SBT2050,2,3,,2,21315,4.149912,0.01886,2720.113,1857.939,24.8,
1536,1,SBT2050,2,3,,2,21364,4.15003,0.019326,2720.374,1857.939,24.8,
1536,1,SBT2050,2,3,,2,21413,4.14977,0.019157,2720.634,1857.939,24.8,
1536,1,SBT2050,2,3,,2,21462,4.15017,0.018361,2720.891,1857.939,24.8,
1536,1,SBT2050,2,3,,2,21511,4.15011,0.018728,2721.147,1857.939,24.8,
1536,1,SBT2050,2,3,,2,21560,4.149948,0.018758,2721.4,1857.939,24.8,
1536,1,SBT2050,2,3,,2,21609,4.15019,0.01814,2721.654,1857.939,24.9,
1536,1,SBT2050,2,3,,2,21658,4.15014,0.018514,2721.908,1857.939,24.9,
1536,1,SBT2050,2,3,,2,21707,4.15001,0.018449,2722.157,1857.939,24.9,
1536,1,SBT2050,2,3,,2,21756,4.15004,0.017556,2722.402,1857.939,24.9,
1536,1,SBT2050,2,3,,2,21805,4.14998,0.018349,2722.644,1857.939,24.9,
1536,1,SBT2050,2,3,,2,21854,4.15013,0.018229,2722.891,1857.939,24.9,
1536,1,SBT2050,2,3,,2,21903,4.15017,0.017503,2723.135,1857.939,24.9,
1536,1,SBT2050,2,3,,2,21952,4.15037,0.01764,2723.377,1857.939,24.9,
1536,1,SBT2050,2,3,,2,22001,4.15006,0.017355,2723.616,1857.939,24.9,
1536,1,SBT2050,2,3,,2,22050,4.14988,0.017267,2723.853,1857.939,24.9,
1536,1,SBT2050,2,3,,2,22099,4.15009,0.017014,2724.09,1857.939,24.9,
1536,1,SBT2050,2,3,,2,22148,4.14998,0.016979,2724.323,1857.939,24.9,
1536,1,SBT2050,2,3,,2,22197,4.15019,0.016485,2724.552,1857.939,24.9,
1536,1,SBT2050,2,3,,2,22246,4.15007,0.016732,2724.78,1857.939,24.8,
1536,1,SBT2050,2,3,,2,22295,4.149948,0.016065,2725.003,1857.939,24.8,
1536,1,SBT2050,2,3,,2,22344,4.150234,0.015709,2725.222,1857.939,24.8,
1536,1,SBT2050,2,3,,2,22393,4.14984,0.015624,2725.435,1857.939,24.8,
1536,1,SBT2050,2,3,,2,22442,4.149948,0.01577,2725.648,1857.939,24.8,
1536,1,SBT2050,2,3,,2,22491,4.15003,0.016018,2725.86,1857.939,24.7,
1536,1,SBT2050,2,3,,2,22540,4.15004,0.015632,2726.072,1857.939,24.7,
1536,1,SBT2050,2,3,,2,22589,4.1499,0.015256,2726.282,1857.939,24.8,
1536,1,SBT2050,2,3,,2,22638,4.15006,0.015309,2726.49,1857.939,24.8,
1536,1,SBT2050,2,3,,2,22687,4.15011,0.015086,2726.697,1857.939,24.8,
1536,1,SBT2050,2,3,,2,22736,4.15002,0.015016,2726.905,1857.939,24.8,
1536,1,SBT2050,2,3,,2,22785,4.1502,0.015036,2727.112,1857.939,24.8,
1536,1,SBT2050,2,3,,2,22834,4.15006,0.01538,2727.321,1857.939,24.8,
1536,1,SBT2050,2,3,,2,22883,4.1499,0.015729,2727.532,1857.939,24.9,
1536,1,SBT2050,2,3,,2,22932,4.14996,0.015168,2727.738,1857.939,24.9,
1536,1,SBT2050,2,3,,2,22981,4.15007,0.015077,2727.944,1857.939,24.9,
1536,1,SBT2050,2,3,,2,23030,4.15013,0.015238,2728.15,1857.939,25,
1536,1,SBT2050,2,3,,2,23079,4.15017,0.014939,2728.356,1857.939,25,
1536,1,SBT2050,2,3,,2,23128,4.15011,0.014791,2728.558,1857.939,25,
1536,1,SBT2050,2,3,,2,23177,4.14977,0.014882,2728.76,1857.939,25,
1536,1,SBT2050,2,3,,2,23226,4.14997,0.01471,2728.961,1857.939,25.1,
1536,1,SBT2050,2,3,,2,23275,4.150234,0.015063,2729.163,1857.939,25,
1536,1,SBT2050,2,3,,2,23324,4.150234,0.014671,2729.366,1857.939,25.1,
1536,1,SBT2050,2,3,,2,23373,4.15,0.015238,2729.57,1857.939,25.1,
1536,1,SBT2050,2,3,,2,23422,4.15009,0.014804,2729.774,1857.939,25.1,
1536,1,SBT2050,2,3,,2,23471,4.1501,0.014403,2729.976,1857.939,25.1,
1536,1,SBT2050,2,3,,2,23520,4.14982,0.014297,2730.171,1857.939,25.1,
1536,1,SBT2050,2,3,,2,23569,4.15019,0.014121,2730.366,1857.939,25.1,
1536,1,SBT2050,2,3,,2,23618,4.14998,0.014133,2730.561,1857.939,25.1,
1536,1,SBT2050,2,3,,2,23667,4.15014,0.014134,2730.755,1857.939,25.1,
1536,1,SBT2050,2,3,,2,23716,4.15014,0.013942,2730.946,1857.939,25.1,
1536,1,SBT2050,2,3,,2,23765,4.15004,0.013997,2731.137,1857.939,25.1,
1536,1,SBT2050,2,3,,2,23814,4.15015,0.013566,2731.324,1857.939,25.1,
1536,1,SBT2050,2,3,,2,23863,4.15014,0.013084,2731.508,1857.939,25.1,
1536,1,SBT2050,2,3,,2,23912,4.149948,0.013368,2731.69,1857.939,25,
1536,1,SBT2050,2,3,,2,23961,4.15014,0.013209,2731.871,1857.939,25,
1536,1,SBT2050,2,3,,2,24010,4.1501,0.013212,2732.052,1857.939,25,
1536,1,SBT2050,2,3,,2,24059,4.149924,0.013798,2732.235,1857.939,25,
1536,1,SBT2050,2,3,,2,24108,4.15006,0.012986,2732.415,1857.939,25,
1536,1,SBT2050,2,3,,2,24157,4.149936,0.013015,2732.592,1857.939,25,
1536,1,SBT2050,2,3,,2,24206,4.149948,0.013069,2732.77,1857.939,25,
1536,1,SBT2050,2,3,,2,24255,4.14979,0.013206,2732.95,1857.939,25.1,
1536,1,SBT2050,2,3,,2,24304,4.14978,0.012307,2733.124,1857.939,25,
1536,1,SBT2050,2,3,,2,24353,4.15014,0.012216,2733.292,1857.939,25,
1536,1,SBT2050,2,3,,2,24402,4.14976,0.012408,2733.459,1857.939,25,
1536,1,SBT2050,2,3,,2,24451,4.15002,0.012504,2733.623,1857.939,25,
1536,1,SBT2050,2,3,,2,24500,4.15002,0.012095,2733.791,1857.939,25,
1536,1,SBT2050,2,3,,2,24549,4.14988,0.011922,2733.956,1857.939,25.1,
1536,1,SBT2050,2,3,,2,24598,4.15008,0.011817,2734.121,1857.939,25,
1536,1,SBT2050,2,3,,2,24647,4.14988,0.011892,2734.284,1857.939,25,
1536,1,SBT2050,2,3,,2,24696,4.15014,0.011743,2734.446,1857.939,25,
1536,1,SBT2050,2,3,,2,24745,4.15,0.011598,2734.605,1857.939,25,
1536,1,SBT2050,2,3,,2,24794,4.149948,0.01161,2734.765,1857.939,25,
1536,1,SBT2050,2,3,,2,24843,4.15006,0.011728,2734.926,1857.939,25,
1536,1,SBT2050,2,3,,2,24892,4.14986,0.011848,2735.083,1857.939,25,
1536,1,SBT2050,2,3,,2,24941,4.14996,0.01164,2735.241,1857.939,25,
1536,1,SBT2050,2,3,,2,24990,4.14998,0.011796,2735.399,1857.939,25,
1536,1,SBT2050,2,3,,2,25039,4.15003,0.011776,2735.556,1857.939,25,
1536,1,SBT2050,2,3,,2,25088,4.15008,0.01147,2735.712,1857.939,25,
1536,1,SBT2050,2,3,,2,25137,4.15003,0.011128,2735.866,1857.939,25,
1536,1,SBT2050,2,3,,2,25186,4.15021,0.01131,2736.018,1857.939,25,
1536,1,SBT2050,2,3,,2,25235,4.15004,0.011051,2736.169,1857.939,25,
1536,1,SBT2050,2,3,,2,25284,4.1499,0.011258,2736.319,1857.939,25,
1536,1,SBT2050,2,3,,2,25333,4.15003,0.010902,2736.468,1857.939,25,
1536,1,SBT2050,2,3,,2,25382,4.149948,0.010701,2736.614,1857.939,25,
1536,1,SBT2050,2,3,,2,25431,4.14996,0.010544,2736.761,1857.939,25,
1536,1,SBT2050,2,3,,2,25480,4.15014,0.01051,2736.907,1857.939,25,
1536,1,SBT2050,2,3,,2,25529,4.149936,0.010517,2737.052,1857.939,25,
1536,1,SBT2050,2,3,,2,25578,4.14983,0.010517,2737.195,1857.939,25,
1536,1,SBT2050,2,3,,2,25627,4.15013,0.010357,2737.338,1857.939,25,
1536,1,SBT2050,2,3,,3,25675,4.148696,0,2737.403,1857.939,25,
1536,1,SBT2050,2,3,,3,25724,4.14772,0,2737.403,1857.939,25,
1536,1,SBT2050,2,3,,3,25773,4.14723,0,2737.403,1857.939,25,
1536,1,SBT2050,2,3,,3,25822,4.146672,0,2737.403,1857.939,25,
1536,1,SBT2050,2,3,,3,25871,4.14696,0,2737.403,1857.939,25,
1536,1,SBT2050,2,3,,3,25920,4.146712,0,2737.403,1857.939,25,
1536,1,SBT2050,2,3,,3,25969,4.14641,0,2737.403,1857.939,25,
1536,1,SBT2050,2,3,,3,26018,4.14632,0,2737.403,1857.939,25,
1536,1,SBT2050,2,3,,3,26067,4.14629,0,2737.403,1857.939,25,
1536,1,SBT2050,2,3,,3,26116,4.14574,0,2737.403,1857.939,25,
1536,1,SBT2050,2,3,,3,26165,4.14617,0,2737.403,1857.939,25,
1536,1,SBT2050,2,3,,3,26214,4.145904,0,2737.403,1857.939,25,
1536,1,SBT2050,2,3,,3,26263,4.14546,0,2737.403,1857.939,25,
1536,1,SBT2050,2,3,,3,26312,4.1453,0,2737.403,1857.939,25,
1536,1,SBT2050,2,3,,3,26361,4.14555,0,2737.403,1857.939,25,
1536,1,SBT2050,2,3,,3,26410,4.14533,0,2737.403,1857.939,25,
1536,1,SBT2050,2,3,,3,26459,4.14532,0,2737.403,1857.939,25,
1536,1,SBT2050,2,3,,3,26508,4.144832,0,2737.403,1857.939,25,
1536,1,SBT2050,2,3,,3,26557,4.14514,0,2737.403,1857.939,25,
1536,1,SBT2050,2,3,,3,26606,4.14504,0,2737.403,1857.939,25,
1536,1,SBT2050,2,3,,3,26655,4.145216,0,2737.403,1857.939,25,
1536,1,SBT2050,2,3,,3,26704,4.14474,0,2737.403,1857.939,25,
1536,1,SBT2050,2,3,,3,26753,4.14476,0,2737.403,1857.939,25,
1536,1,SBT2050,2,3,,3,26802,4.144708,0,2737.403,1857.939,25,
1536,1,SBT2050,2,3,,3,26851,4.14466,0,2737.403,1857.939,25,
1536,1,SBT2050,2,3,,3,26900,4.14446,0,2737.403,1857.939,25,
1536,1,SBT2050,2,3,,3,26949,4.144712,0,2737.403,1857.939,25,
1536,1,SBT2050,2,3,,3,26998,4.14436,0,2737.403,1857.939,25,
1536,1,SBT2050,2,3,,3,27047,4.14445,0,2737.403,1857.939,25,
1536,1,SBT2050,2,3,,3,27096,4.14418,0,2737.403,1857.939,25,
1536,1,SBT2050,2,3,,3,27145,4.1442,0,2737.403,1857.939,25,
1536,1,SBT2050,2,3,,3,27194,4.14392,0,2737.403,1857.939,25,
1536,1,SBT2050,2,3,,3,27243,4.14395,0,2737.403,1857.939,25,
1536,1,SBT2050,2,3,,3,27292,4.14399,0,2737.403,1857.939,25,
1536,1,SBT2050,2,3,,3,27341,4.143822,0,2737.403,1857.939,25,
1536,1,SBT2050,2,3,,3,27390,4.14381,0,2737.403,1857.939,25,
1536,1,SBT2050,2,3,,3,27439,4.14363,0,2737.403,1857.939,25,
1536,1,SBT2050,2,3,,4,27487,3.79863,-2.9361,2737.403,1888.415,25.5,
1536,1,SBT2050,2,3,,4,27536,3.76754,-2.9359,2737.403,1928.377,26.2,
1536,1,SBT2050,2,3,,4,27585,3.75443,-2.9359,2737.403,1968.338,27,
1536,1,SBT2050,2,3,,4,27634,3.74606,-2.9356,2737.403,2008.3,27.6,
1536,1,SBT2050,2,3,,4,27683,3.73948,-2.9361,2737.403,2048.261,28,
1536,1,SBT2050,2,3,,4,27732,3.73283,-2.9358,2737.403,2088.223,28.4,
1536,1,SBT2050,2,3,,4,27781,3.72588,-2.936,2737.403,2128.185,28.7,
1536,1,SBT2050,2,3,,4,27830,3.71836,-2.9362,2737.403,2168.146,29,
1536,1,SBT2050,2,3,,4,27879,3.709244,-2.9357,2737.403,2208.108,29.1,
1536,1,SBT2050,2,3,,4,27928,3.69965,-2.9364,2737.403,2248.07,29.2,
1536,1,SBT2050,2,3,,4,27977,3.68926,-2.9357,2737.403,2288.031,29.3,
1536,1,SBT2050,2,3,,4,28026,3.67846,-2.9361,2737.403,2327.993,29.4,
1536,1,SBT2050,2,3,,4,28075,3.66708,-2.9355,2737.403,2367.954,29.4,
1536,1,SBT2050,2,3,,4,28124,3.65514,-2.9365,2737.403,2407.916,29.4,
1536,1,SBT2050,2,3,,4,28173,3.64259,-2.9356,2737.403,2447.878,29.4,
1536,1,SBT2050,2,3,,4,28222,3.63021,-2.9358,2737.403,2487.839,29.5,
1536,1,SBT2050,2,3,,4,28271,3.61726,-2.9359,2737.403,2527.801,29.5,
1536,1,SBT2050,2,3,,4,28320,3.60435,-2.9362,2737.403,2567.763,29.5,
1536,1,SBT2050,2,3,,4,28369,3.59104,-2.936,2737.403,2607.724,29.5,
1536,1,SBT2050,2,3,,4,28418,3.577472,-2.9359,2737.403,2647.686,29.5,
1536,1,SBT2050,2,3,,4,28467,3.56364,-2.9362,2737.403,2687.648,29.5,
1536,1,SBT2050,2,3,,4,28516,3.5502,-2.9359,2737.403,2727.609,29.5,
1536,1,SBT2050,2,3,,4,28565,3.53605,-2.9357,2737.403,2767.571,29.5,
1536,1,SBT2050,2,3,,4,28614,3.52209,-2.9362,2737.403,2807.533,29.5,
1536,1,SBT2050,2,3,,4,28663,3.50781,-2.9359,2737.403,2847.494,29.5,
1536,1,SBT2050,2,3,,4,28712,3.493882,-2.9359,2737.403,2887.456,29.5,
1536,1,SBT2050,2,3,,4,28761,3.47949,-2.936,2737.403,2927.418,29.5,
1536,1,SBT2050,2,3,,4,28810,3.46584,-2.9359,2737.403,2967.379,29.6,
1536,1,SBT2050,2,3,,4,28859,3.45153,-2.9363,2737.403,3007.341,29.6,
1536,1,SBT2050,2,3,,4,28908,3.43734,-2.9359,2737.403,3047.303,29.6,
1536,1,SBT2050,2,3,,4,28957,3.4238,-2.9357,2737.403,3087.264,29.6,
1536,1,SBT2050,2,3,,4,29006,3.41021,-2.936,2737.403,3127.226,29.6,
1536,1,SBT2050,2,3,,4,29055,3.396334,-2.9362,2737.403,3167.188,29.6,
1536,1,SBT2050,2,3,,4,29104,3.38284,-2.936,2737.403,3207.149,29.7,
1536,1,SBT2050,2,3,,4,29153,3.36927,-2.9358,2737.403,3247.111,29.7,
1536,1,SBT2050,2,3,,4,29202,3.35553,-2.9362,2737.403,3287.072,29.7,
1536,1,SBT2050,2,3,,4,29251,3.34149,-2.9357,2737.403,3327.034,29.7,
1536,1,SBT2050,2,3,,4,29300,3.32739,-2.9365,2737.403,3366.996,29.8,
1536,1,SBT2050,2,3,,4,29349,3.31274,-2.9359,2737.403,3406.957,29.9,
1536,1,SBT2050,2,3,,4,29398,3.298359,-2.9359,2737.403,3446.919,29.9,
1536,1,SBT2050,2,3,,4,29447,3.28332,-2.9358,2737.403,3486.881,30,
1536,1,SBT2050,2,3,,4,29496,3.26797,-2.9361,2737.403,3526.842,30.1,
1536,1,SBT2050,2,3,,4,29545,3.25194,-2.9359,2737.403,3566.804,30.1,
1536,1,SBT2050,2,3,,4,29594,3.23482,-2.9358,2737.403,3606.766,30.2,
1536,1,SBT2050,2,3,,4,29643,3.21727,-2.9357,2737.403,3646.727,30.3,
1536,1,SBT2050,2,3,,4,29692,3.198647,-2.936,2737.403,3686.689,30.5,
1536,1,SBT2050,2,3,,4,29741,3.178947,-2.9359,2737.403,3726.65,30.6,
1536,1,SBT2050,2,3,,4,29790,3.15743,-2.9358,2737.403,3766.612,30.7,
1536,1,SBT2050,2,3,,4,29839,3.13507,-2.9358,2737.403,3806.574,30.9,
1536,1,SBT2050,2,3,,4,29888,3.11036,-2.9359,2737.403,3846.535,31.1,
1536,1,SBT2050,2,3,,4,29937,3.083924,-2.9364,2737.403,3886.497,31.3,
1536,1,SBT2050,2,3,,4,29986,3.05497,-2.9359,2737.403,3926.458,31.5,
1536,1,SBT2050,2,3,,4,30035,3.02306,-2.9359,2737.403,3966.42,31.7,
1536,1,SBT2050,2,3,,4,30084,2.98768,-2.9362,2737.403,4006.382,31.9,
1536,1,SBT2050,2,3,,4,30133,2.94751,-2.936,2737.403,4046.344,32.3,
1536,1,SBT2050,2,3,,4,30182,2.901774,-2.9359,2737.403,4086.305,32.6,
1536,1,SBT2050,2,3,,4,30231,2.84645,-2.9362,2737.403,4126.267,33,
1536,1,SBT2050,2,3,,4,30280,2.78134,-2.936,2737.403,4166.229,33.5,
1536,1,SBT2050,2,3,,4,30329,2.7001,-2.9357,2737.403,4206.19,34,
1536,1,SBT2050,2,3,,4,30378,2.586589,-2.9362,2737.403,4246.152,34.6,
1536,1,SBT2050,2,3,,4,30427,2.4996,-2.5508,2737.403,4284.685,35.5,
1536,1,SBT2050,2,3,,4,30476,2.49984,-2.0882,2737.403,4316.065,36,
1536,1,SBT2050,2,3,,4,30525,2.49984,-1.7308,2737.403,4341.974,35.8,
1536,1,SBT2050,2,3,,4,30574,2.4997,-1.4381,2737.403,4363.482,35.5,
1536,1,SBT2050,2,3,,4,30623,2.49985,-1.2028,2737.403,4381.401,34.9,
1536,1,SBT2050,2,3,,4,30672,2.49968,-1.0128,2737.403,4396.431,34.2,
1536,1,SBT2050,2,3,,4,30721,2.49988,-0.8631,2737.403,4409.161,33.5,
1536,1,SBT2050,2,3,,4,30770,2.49986,-0.7433,2737.403,4420.06,32.7,
1536,1,SBT2050,2,3,,4,30819,2.49998,-0.648,2737.403,4429.502,32,
1536,1,SBT2050,2,3,,4,30868,2.49964,-0.5716,2737.403,4437.787,31.3,
1536,1,SBT2050,2,3,,4,30917,2.499887,-0.5117,2737.403,4445.149,30.6,
1536,1,SBT2050,2,3,,4,30966,2.49993,-0.46467,2737.403,4451.78,30.1,
1536,1,SBT2050,2,3,,4,31015,2.49995,-0.42549,2737.403,4457.828,29.6,
1536,1,SBT2050,2,3,,4,31064,2.49997,-0.3936,2737.403,4463.398,29.2,
1536,1,SBT2050,2,3,,4,31113,2.49997,-0.36643,2737.403,4468.563,28.8,
1536,1,SBT2050,2,3,,4,31162,2.49995,-0.34282,2737.403,4473.384,28.4,
1536,1,SBT2050,2,3,,4,31211,2.49995,-0.32288,2737.403,4477.909,28.2,
1536,1,SBT2050,2,3,,4,31260,2.500042,-0.30498,2737.403,4482.177,27.9,
1536,1,SBT2050,2,3,,4,31309,2.49999,-0.28996,2737.403,4486.223,27.7,
1536,1,SBT2050,2,3,,4,31358,2.500054,-0.27593,2737.403,4490.072,27.4,
1536,1,SBT2050,2,3,,4,31407,2.49997,-0.26328,2737.403,4493.741,27.3,
1536,1,SBT2050,2,3,,4,31456,2.49988,-0.25214,2737.403,4497.249,27.1,
1536,1,SBT2050,2,3,,4,31505,2.49982,-0.24149,2737.403,4500.609,27,
1536,1,SBT2050,2,3,,4,31554,2.49991,-0.23206,2737.403,4503.833,26.9,
1536,1,SBT2050,2,3,,4,31603,2.49992,-0.2234,2737.403,4506.931,26.8,
1536,1,SBT2050,2,3,,4,31652,2.49977,-0.21439,2737.403,4509.909,26.7,
1536,1,SBT2050,2,3,,4,31701,2.50015,-0.20636,2737.403,4512.772,26.5,
1536,1,SBT2050,2,3,,4,31750,2.49993,-0.19866,2737.403,4515.529,26.5,
1536,1,SBT2050,2,3,,4,31799,2.49996,-0.1913,2737.403,4518.184,26.4,
1536,1,SBT2050,2,3,,4,31848,2.500221,-0.18445,2737.403,4520.739,26.3,
1536,1,SBT2050,2,3,,4,31897,2.500042,-0.17738,2737.403,4523.199,26.3,
1536,1,SBT2050,2,3,,4,31946,2.49991,-0.17048,2737.403,4525.565,26.2,
1536,1,SBT2050,2,3,,4,31995,2.500066,-0.16411,2737.403,4527.842,26.1,
1536,1,SBT2050,2,3,,4,32044,2.49996,-0.15792,2737.403,4530.034,26.1,
1536,1,SBT2050,2,3,,4,32093,2.49976,-0.15223,2737.403,4532.144,26,
1536,1,SBT2050,2,3,,4,32142,2.499887,-0.14632,2737.403,4534.175,26,
1536,1,SBT2050,2,3,,4,32191,2.50009,-0.14103,2737.403,4536.13,25.9,
1536,1,SBT2050,2,3,,4,32240,2.49986,-0.13563,2737.403,4538.013,25.9,
1536,1,SBT2050,2,3,,4,32289,2.499899,-0.1308,2737.403,4539.826,25.9,
1536,1,SBT2050,2,3,,4,32338,2.49997,-0.1261,2737.403,4541.574,25.9,
1536,1,SBT2050,2,3,,4,32387,2.500066,-0.12152,2737.403,4543.26,25.8,
1536,1,SBT2050,2,3,,4,32436,2.499899,-0.11712,2737.403,4544.885,25.8,
1536,1,SBT2050,2,3,,4,32485,2.49998,-0.11298,2737.403,4546.452,25.7,
1536,1,SBT2050,2,3,,4,32534,2.49986,-0.10908,2737.403,4547.963,25.7,
1536,1,SBT2050,2,3,,4,32583,2.50003,-0.10514,2737.403,4549.423,25.7,
1536,1,SBT2050,2,3,,4,32632,2.49977,-0.10179,2737.403,4550.833,25.7,
1536,1,SBT2050,2,3,,4,32681,2.49986,-0.09816,2737.403,4552.196,25.7,
1536,1,SBT2050,2,3,,4,32730,2.50002,-0.09512,2737.403,4553.512,25.6,
1536,1,SBT2050,2,3,,4,32779,2.49978,-0.09175,2737.403,4554.784,25.6,
1536,1,SBT2050,2,3,,4,32828,2.49985,-0.08891,2737.403,4556.014,25.6,
1536,1,SBT2050,2,3,,4,32877,2.50003,-0.08606,2737.403,4557.205,25.6,
1536,1,SBT2050,2,3,,4,32926,2.50002,-0.08356,2737.403,4558.36,25.6,
1536,1,SBT2050,2,3,,4,32975,2.49998,-0.08094,2737.403,4559.479,25.5,
1536,1,SBT2050,2,3,,4,33024,2.49978,-0.0783,2737.403,4560.563,25.5,
1536,1,SBT2050,2,3,,4,33073,2.50014,-0.07622,2737.403,4561.615,25.5,
1536,1,SBT2050,2,3,,4,33122,2.49996,-0.07396,2737.403,4562.636,25.5,
1536,1,SBT2050,2,3,,4,33171,2.50002,-0.0718,2737.403,4563.628,25.5,
1536,1,SBT2050,2,3,,4,33220,2.49984,-0.06971,2737.403,4564.592,25.4,
1536,1,SBT2050,2,3,,4,33269,2.5001,-0.06803,2737.403,4565.529,25.4,
1536,1,SBT2050,2,3,,4,33318,2.49991,-0.06592,2737.403,4566.44,25.4,
1536,1,SBT2050,2,3,,4,33367,2.50008,-0.06412,2737.403,4567.324,25.4,
1536,1,SBT2050,2,3,,4,33416,2.49998,-0.06225,2737.403,4568.184,25.4,
1536,1,SBT2050,2,3,,4,33465,2.50002,-0.06041,2737.403,4569.02,25.4,
1536,1,SBT2050,2,3,,4,33514,2.49993,-0.05878,2737.403,4569.831,25.4,
1536,1,SBT2050,2,3,,4,33563,2.499732,-0.05684,2737.403,4570.619,25.3,
1536,1,SBT2050,2,3,,4,33612,2.50001,-0.05547,2737.403,4571.383,25.3,
1536,1,SBT2050,2,3,,4,33661,2.50001,-0.05347,2737.403,4572.124,25.3,
1536,1,SBT2050,2,3,,4,33710,2.49999,-0.05181,2737.403,4572.841,25.3,
1536,1,SBT2050,2,3,,4,33759,2.499887,-0.04996,2737.403,4573.535,25.3,
1536,1,SBT2050,2,3,,4,33808,2.500042,-0.04863,2737.403,4574.206,25.3,
1536,1,SBT2050,2,3,,4,33857,2.49986,-0.046855,2737.403,4574.856,25.3,
1536,1,SBT2050,2,3,,4,33906,2.49992,-0.045233,2737.403,4575.484,25.3,
1536,1,SBT2050,2,3,,4,33955,2.50003,-0.04386,2737.403,4576.09,25.3,
1536,1,SBT2050,2,3,,4,34004,2.50008,-0.042314,2737.403,4576.677,25.3,
1536,1,SBT2050,2,3,,4,34053,2.500042,-0.040988,2737.403,4577.244,25.3,
1536,1,SBT2050,2,3,,4,34102,2.49993,-0.039536,2737.403,4577.792,25.2,
1536,1,SBT2050,2,3,,4,34151,2.500054,-0.038501,2737.403,4578.324,25.3,
1536,1,SBT2050,2,3,,4,34200,2.49995,-0.037275,2737.403,4578.839,25.3,
1536,1,SBT2050,2,3,,4,34249,2.49983,-0.036043,2737.403,4579.338,25.2,
1536,1,SBT2050,2,3,,4,34298,2.49999,-0.035146,2737.403,4579.823,25.2,
1536,1,SBT2050,2,3,,4,34347,2.50003,-0.034089,2737.403,4580.294,25.2,
1536,1,SBT2050,2,3,,4,34396,2.499887,-0.033051,2737.403,4580.751,25.2,
1536,1,SBT2050,2,3,,4,34445,2.50015,-0.032306,2737.403,4581.195,25.2,
1536,1,SBT2050,2,3,,4,34494,2.49999,-0.031187,2737.403,4581.626,25.2,
1536,1,SBT2050,2,3,,4,34543,2.49998,-0.03044,2737.403,4582.044,25.2,
1536,1,SBT2050,2,3,,4,34592,2.50003,-0.029444,2737.403,4582.451,25.2,
1536,1,SBT2050,2,3,,4,34641,2.49977,-0.028305,2737.403,4582.846,25.2,
1536,1,SBT2050,2,3,,4,34690,2.49985,-0.027759,2737.403,4583.23,25.2,
1536,1,SBT2050,2,3,,4,34739,2.500042,-0.026924,2737.403,4583.602,25.1,
1536,1,SBT2050,2,3,,4,34788,2.49978,-0.026175,2737.403,4583.963,25.1,
1536,1,SBT2050,2,3,,4,34837,2.50009,-0.02548,2737.403,4584.315,25.1,
1536,1,SBT2050,2,3,,4,34886,2.500042,-0.024611,2737.403,4584.656,25.2,
1536,1,SBT2050,2,3,,4,34935,2.50002,-0.024026,2737.403,4584.988,25.2,
1536,1,SBT2050,2,3,,4,34984,2.500054,-0.023352,2737.403,4585.31,25.1,
1536,1,SBT2050,2,3,,4,35033,2.500054,-0.022555,2737.403,4585.622,25.1,
1536,1,SBT2050,2,3,,4,35082,2.50015,-0.02182,2737.403,4585.925,25.1,
1536,1,SBT2050,2,3,,4,35131,2.500066,-0.0213,2737.403,4586.219,25.1,
1536,1,SBT2050,2,3,,4,35180,2.49993,-0.020616,2737.403,4586.504,25.1,
1536,1,SBT2050,2,3,,4,35229,2.500066,-0.019971,2737.403,4586.781,25.2,
1536,1,SBT2050,2,3,,4,35278,2.499887,-0.019392,2737.403,4587.049,25.1,
1536,1,SBT2050,2,3,,4,35327,2.500042,-0.018658,2737.403,4587.308,25.1,
1536,1,SBT2050,2,3,,4,35376,2.49998,-0.017929,2737.403,4587.559,25.1,
1536,1,SBT2050,2,3,,4,35425,2.500042,-0.017469,2737.403,4587.802,25.1,
1536,1,SBT2050,2,3,,4,35474,2.49988,-0.016897,2737.403,4588.038,25.1,
1536,1,SBT2050,2,3,,4,35523,2.49999,-0.01637,2737.403,4588.266,25.1,
1536,1,SBT2050,2,3,,4,35572,2.50001,-0.016077,2737.403,4588.486,25.1,
1536,1,SBT2050,2,3,,4,35621,2.50003,-0.015421,2737.403,4588.7,25.1,
1536,1,SBT2050,2,3,,4,35670,2.50023,-0.015015,2737.403,4588.907,25.1,
1536,1,SBT2050,2,3,,4,35719,2.50009,-0.014528,2737.403,4589.108,25.1,
1536,1,SBT2050,2,3,,4,35768,2.50002,-0.014056,2737.403,4589.303,25.1,
1536,1,SBT2050,2,3,,4,35817,2.500042,-0.013739,2737.403,4589.493,25.1,
1536,1,SBT2050,2,3,,4,35866,2.49996,-0.013343,2737.403,4589.678,25.1,
1536,1,SBT2050,2,3,,4,35915,2.49997,-0.012846,2737.403,4589.857,25.1,
1536,1,SBT2050,2,3,,4,35964,2.5001,-0.012661,2737.403,4590.03,25.1,
1536,1,SBT2050,2,3,,4,36013,2.500054,-0.01234,2737.403,4590.199,25.1,
1536,1,SBT2050,2,3,,4,36062,2.500066,-0.011835,2737.403,4590.363,25,
1536,1,SBT2050,2,3,,4,36111,2.49995,-0.011469,2737.403,4590.522,25.1,
1536,1,SBT2050,2,3,,4,36160,2.49995,-0.011055,2737.403,4590.677,25,
1536,1,SBT2050,2,3,,4,36209,2.49988,-0.010849,2737.403,4590.827,25.1,
1536,1,SBT2050,2,3,,4,36258,2.50003,-0.010547,2737.403,4590.973,25.1,
1536,1,SBT2050,2,3,,4,36307,2.49986,-0.010294,2737.403,4591.115,25.1,
1536,1,SBT2050,2,3,,5,36355,2.51582,0,2737.403,4591.202,25.1,
1536,1,SBT2050,2,3,,5,36404,2.54209,0,2737.403,4591.202,25.1,
1536,1,SBT2050,2,3,,5,36453,2.564365,0,2737.403,4591.202,25,
1536,1,SBT2050,2,3,,5,36502,2.58357,0,2737.403,4591.202,25.1,
1536,1,SBT2050,2,3,,5,36551,2.60101,0,2737.403,4591.202,25.1,
1536,1,SBT2050,2,3,,5,36600,2.61632,0,2737.403,4591.202,25.1,
1536,1,SBT2050,2,3,,5,36649,2.629978,0,2737.403,4591.202,25.1,
1536,1,SBT2050,2,3,,5,36698,2.64242,0,2737.403,4591.202,25,
1536,1,SBT2050,2,3,,5,36747,2.65364,0,2737.403,4591.202,25,
1536,1,SBT2050,2,3,,5,36796,2.66361,0,2737.403,4591.202,25,
1536,1,SBT2050,2,3,,5,36799.364,2.66416,0,2737.403,4591.202,,