File: ORRG/Test1495.csv
Request Year:,2018,,,,,,,,,,,,
Test:,1495,,,,,,,,,,,,
Test Description:,,,,,,,,,,,,,
TestRegime Name:,Aging_Performance,,,,,,,,,,,,
TestRegime Suffix:,SHP_LC,,,,,,,,,,,,
TestRegime CellSize:,18650,,,,,,,,,,,,
TestRegime Version:,1,,,,,,,,,,,,
Number Of Cells:,1,,,,,,,,,,,,
LotID:,,,,,,,,,,,,,
Lot Description:,,,,,,,,,,,,,
Date Made:,1/21/2003 12:00 AM,,,,,,,,,,,,
Origin:,Other,,,,,,,,,,,,
Requestor:,Admin,,,,,,,,,,,,
Product ID:,Default product,,,,,,,,,,,,
Storage Temp:,R.T./AMB,,,,,,,,,,,,
Storage Delay:,0 days,,,,,,,,,,,,
Test Temp:,R.T./AMB,,,,,,,,,,,,
Start Time:,4/11/2018 11:34 AM,,,,,,,,,,,,
End Time:,4/11/2018 7:30 PM,,,,,,,,,,,,
Operator Instructions:,,,,,,,,,,,,,
Test,Cell,Rack,Shelf,Position,Cell ID,Step,Total Time (Seconds),Voltage (V),Current (A),Charge Capacity (mAh),Discharge Capacity (mAh),TC1 (Â°C),
1495,1,SBT2050,2,3,,0,1,3.34749,0,0,0,24.9,
1495,1,SBT2050,2,3,,0,38,3.34751,0,0,0,24.9,
1495,1,SBT2050,2,3,,0,75,3.34705,0,0,0,24.9,
1495,1,SBT2050,2,3,,0,112,3.34744,0,0,0,25,
1495,1,SBT2050,2,3,,0,149,3.3474,0,0,0,25.1,
1495,1,SBT2050,2,3,,0,186,3.34753,0,0,0,25.2,
1495,1,SBT2050,2,3,,0,223,3.34731,0,0,0,25.2,
1495,1,SBT2050,2,3,,0,260,3.34732,0,0,0,25.2,
1495,1,SBT2050,2,3,,0,297,3.347322,0,0,0,25.2,
1495,1,SBT2050,2,3,,1,334,2.4992,-2.0405,0,25.725,26.2,
1495,1,SBT2050,2,3,,1,371,2.499809,-1.5552,0,43.62,27.4,
1495,1,SBT2050,2,3,,1,408,2.49979,-1.3622,0,58.536,28.1,
1495,1,SBT2050,2,3,,1,445,2.49979,-1.2256,0,71.799,28.6,
1495,1,SBT2050,2,3,,1,482,2.49986,-1.1152,0,83.815,29,
1495,1,SBT2050,2,3,,1,519,2.5001,-1.0187,0,94.779,29.2,
1495,1,SBT2050,2,3,,1,556,2.49986,-0.9279,0,104.774,29.3,
1495,1,SBT2050,2,3,,1,593,2.49976,-0.8501,0,113.899,29.4,
1495,1,SBT2050,2,3,,1,630,2.49986,-0.7825,0,122.279,29.4,
1495,1,SBT2050,2,3,,1,667,2.499821,-0.7227,0,130.011,29.4,
1495,1,SBT2050,2,3,,1,704,2.499988,-0.6697,0,137.162,29.3,
1495,1,SBT2050,2,3,,1,741,2.50004,-0.6211,0,143.79,29.2,
1495,1,SBT2050,2,3,,1,778,2.49995,-0.5764,0,149.941,29,
1495,1,SBT2050,2,3,,1,815,2.49989,-0.5354,0,155.653,28.9,
1495,1,SBT2050,2,3,,1,852,2.4999,-0.4991,0,160.965,28.7,
1495,1,SBT2050,2,3,,1,889,2.49995,-0.46376,0,165.911,28.6,
1495,1,SBT2050,2,3,,1,926,2.499988,-0.43365,0,170.518,28.5,
1495,1,SBT2050,2,3,,1,963,2.499809,-0.40579,0,174.829,28.3,
1495,1,SBT2050,2,3,,1,1000,2.49986,-0.38038,0,178.868,28.2,
1495,1,SBT2050,2,3,,1,1037,2.4999,-0.35735,0,182.66,28.1,
1495,1,SBT2050,2,3,,1,1074,2.49987,-0.33627,0,186.223,27.9,
1495,1,SBT2050,2,3,,1,1111,2.49994,-0.31637,0,189.575,27.7,
1495,1,SBT2050,2,3,,1,1148,2.49995,-0.29805,0,192.732,27.6,
1495,1,SBT2050,2,3,,1,1185,2.4999,-0.2816,0,195.711,27.5,
1495,1,SBT2050,2,3,,1,1222,2.49986,-0.26618,0,198.525,27.3,
1495,1,SBT2050,2,3,,1,1259,2.499988,-0.2524,0,201.19,27.3,
1495,1,SBT2050,2,3,,1,1296,2.49975,-0.23957,0,203.719,27.2,
1495,1,SBT2050,2,3,,1,1333,2.4998,-0.22813,0,206.124,27,
1495,1,SBT2050,2,3,,1,1370,2.49996,-0.21711,0,208.411,26.9,
1495,1,SBT2050,2,3,,1,1407,2.49989,-0.20711,0,210.59,26.8,
1495,1,SBT2050,2,3,,1,1444,2.49988,-0.19759,0,212.67,26.8,
1495,1,SBT2050,2,3,,1,1481,2.499976,-0.18921,0,214.658,26.6,
1495,1,SBT2050,2,3,,1,1518,2.499821,-0.18111,0,216.559,26.6,
1495,1,SBT2050,2,3,,1,1555,2.49989,-0.17347,0,218.38,26.5,
1495,1,SBT2050,2,3,,1,1592,2.49987,-0.1661,0,220.125,26.4,
1495,1,SBT2050,2,3,,1,1629,2.499976,-0.15954,0,221.799,26.4,
1495,1,SBT2050,2,3,,1,1666,2.49973,-0.15287,0,223.404,26.3,
1495,1,SBT2050,2,3,,1,1703,2.49975,-0.14676,0,224.945,26.3,
1495,1,SBT2050,2,3,,1,1740,2.5,-0.14077,0,226.422,26.2,
1495,1,SBT2050,2,3,,1,1777,2.49992,-0.13521,0,227.841,26.2,
1495,1,SBT2050,2,3,,1,1814,2.4998,-0.12966,0,229.201,26.1,
1495,1,SBT2050,2,3,,1,1851,2.50023,-0.12457,0,230.506,26.1,
1495,1,SBT2050,2,3,,1,1888,2.49995,-0.11948,0,231.759,26,
1495,1,SBT2050,2,3,,1,1925,2.49992,-0.11446,0,232.961,26,
1495,1,SBT2050,2,3,,1,1962,2.49996,-0.10991,0,234.113,26,
1495,1,SBT2050,2,3,,1,1999,2.49995,-0.10509,0,235.218,25.9,
1495,1,SBT2050,2,3,,1,2036,2.49993,-0.10063,0,236.275,25.9,
1495,1,SBT2050,2,3,,1,2073,2.49992,-0.09613,0,237.287,25.9,
1495,1,SBT2050,2,3,,1,2110,2.49996,-0.09186,0,238.253,25.8,
1495,1,SBT2050,2,3,,1,2147,2.5,-0.08775,0,239.177,25.8,
1495,1,SBT2050,2,3,,1,2184,2.499833,-0.08381,0,240.06,25.8,
1495,1,SBT2050,2,3,,1,2221,2.49984,-0.07999,0,240.902,25.8,
1495,1,SBT2050,2,3,,1,2258,2.49995,-0.07606,0,241.705,25.7,
1495,1,SBT2050,2,3,,1,2295,2.49977,-0.07234,0,242.469,25.7,
1495,1,SBT2050,2,3,,1,2332,2.50001,-0.06896,0,243.196,25.7,
1495,1,SBT2050,2,3,,1,2369,2.50001,-0.06559,0,243.885,25.6,
1495,1,SBT2050,2,3,,1,2406,2.49988,-0.06198,0,244.539,25.6,
1495,1,SBT2050,2,3,,1,2443,2.50004,-0.0586,0,245.158,25.6,
1495,1,SBT2050,2,3,,1,2480,2.499976,-0.05558,0,245.744,25.6,
1495,1,SBT2050,2,3,,1,2517,2.50012,-0.05221,0,246.296,25.6,
1495,1,SBT2050,2,3,,1,2554,2.50001,-0.04903,0,246.815,25.6,
1495,1,SBT2050,2,3,,1,2591,2.50011,-0.045898,0,247.303,25.5,
1495,1,SBT2050,2,3,,1,2628,2.49989,-0.043061,0,247.76,25.5,
1495,1,SBT2050,2,3,,1,2665,2.49993,-0.040036,0,248.186,25.5,
1495,1,SBT2050,2,3,,1,2702,2.50002,-0.037426,0,248.584,25.5,
1495,1,SBT2050,2,3,,1,2739,2.50011,-0.034763,0,248.954,25.5,
1495,1,SBT2050,2,3,,1,2776,2.49993,-0.032194,0,249.298,25.5,
1495,1,SBT2050,2,3,,1,2813,2.49996,-0.029866,0,249.617,25.5,
1495,1,SBT2050,2,3,,1,2850,2.50011,-0.027783,0,249.913,25.5,
1495,1,SBT2050,2,3,,1,2887,2.50008,-0.025843,0,250.187,25.4,
1495,1,SBT2050,2,3,,1,2924,2.49995,-0.023793,0,250.442,25.4,
1495,1,SBT2050,2,3,,1,2961,2.50007,-0.022298,0,250.679,25.4,
1495,1,SBT2050,2,3,,1,2998,2.49993,-0.021011,0,250.901,25.4,
1495,1,SBT2050,2,3,,1,3035,2.5,-0.019576,0,251.11,25.4,
1495,1,SBT2050,2,3,,1,3072,2.50002,-0.018552,0,251.306,25.4,
1495,1,SBT2050,2,3,,1,3109,2.499988,-0.017557,0,251.492,25.4,
1495,1,SBT2050,2,3,,1,3146,2.49989,-0.016665,0,251.667,25.4,
1495,1,SBT2050,2,3,,1,3183,2.50004,-0.01582,0,251.834,25.4,
1495,1,SBT2050,2,3,,1,3220,2.49992,-0.01506,0,251.993,25.4,
1495,1,SBT2050,2,3,,1,3257,2.50027,-0.014637,0,252.145,25.4,
1495,1,SBT2050,2,3,,1,3294,2.49989,-0.013856,0,252.291,25.3,
1495,1,SBT2050,2,3,,1,3331,2.50018,-0.01335,0,252.431,25.3,
1495,1,SBT2050,2,3,,1,3368,2.499976,-0.012738,0,252.565,25.4,
1495,1,SBT2050,2,3,,1,3405,2.5,-0.012322,0,252.695,25.4,
1495,1,SBT2050,2,3,,1,3442,2.49993,-0.01186,0,252.82,25.4,
1495,1,SBT2050,2,3,,1,3479,2.50004,-0.011546,0,252.941,25.4,
1495,1,SBT2050,2,3,,1,3516,2.4999,-0.011299,0,253.059,25.4,
1495,1,SBT2050,2,3,,1,3553,2.500155,-0.011172,0,253.173,25.4,
1495,1,SBT2050,2,3,,1,3590,2.49986,-0.010681,0,253.284,25.3,
1495,1,SBT2050,2,3,,1,3627,2.499988,-0.01041,0,253.393,25.3,
1495,1,SBT2050,2,3,,1,3664,2.49993,-0.010087,0,253.498,25.3,
1495,1,SBT2050,2,3,,2,3700,3.345835,2.9359,28.869,253.5,25.5,
1495,1,SBT2050,2,3,,2,3737,3.48523,2.9362,59.044,253.5,25.8,
1495,1,SBT2050,2,3,,2,3774,3.56756,2.9358,89.219,253.5,26.2,
1495,1,SBT2050,2,3,,2,3811,3.60395,2.9356,119.394,253.5,26.6,
1495,1,SBT2050,2,3,,2,3848,3.61467,2.9357,149.569,253.5,27.1,
1495,1,SBT2050,2,3,,2,3885,3.623532,2.9362,179.744,253.5,27.5,
1495,1,SBT2050,2,3,,2,3922,3.63259,2.9359,209.919,253.5,27.9,
1495,1,SBT2050,2,3,,2,3959,3.64177,2.9359,240.094,253.5,28.2,
1495,1,SBT2050,2,3,,2,3996,3.650774,2.9362,270.269,253.5,28.5,
1495,1,SBT2050,2,3,,2,4033,3.65938,2.9359,300.445,253.5,28.8,
1495,1,SBT2050,2,3,,2,4070,3.66771,2.936,330.62,253.5,29,
1495,1,SBT2050,2,3,,2,4107,3.675214,2.936,360.795,253.5,29.2,
1495,1,SBT2050,2,3,,2,4144,3.68184,2.936,390.97,253.5,29.4,
1495,1,SBT2050,2,3,,2,4181,3.68796,2.9359,421.145,253.5,29.5,
1495,1,SBT2050,2,3,,2,4218,3.69317,2.9356,451.321,253.5,29.6,
1495,1,SBT2050,2,3,,2,4255,3.698068,2.9365,481.496,253.5,29.6,
1495,1,SBT2050,2,3,,2,4292,3.703116,2.9357,511.671,253.5,29.7,
1495,1,SBT2050,2,3,,2,4329,3.708644,2.936,541.846,253.5,29.7,
1495,1,SBT2050,2,3,,2,4366,3.71442,2.936,572.021,253.5,29.8,
1495,1,SBT2050,2,3,,2,4403,3.72023,2.936,602.196,253.5,29.8,
1495,1,SBT2050,2,3,,2,4440,3.726152,2.9355,632.371,253.5,29.8,
1495,1,SBT2050,2,3,,2,4477,3.73292,2.9362,662.546,253.5,29.8,
1495,1,SBT2050,2,3,,2,4514,3.73937,2.9358,692.722,253.5,29.7,
1495,1,SBT2050,2,3,,2,4551,3.74619,2.9359,722.896,253.5,29.7,
1495,1,SBT2050,2,3,,2,4588,3.75253,2.9358,753.072,253.5,29.7,
1495,1,SBT2050,2,3,,2,4625,3.75891,2.9355,783.247,253.5,29.7,
1495,1,SBT2050,2,3,,2,4662,3.765472,2.9356,813.422,253.5,29.7,
1495,1,SBT2050,2,3,,2,4699,3.77243,2.9362,843.597,253.5,29.7,
1495,1,SBT2050,2,3,,2,4736,3.778996,2.9361,873.772,253.5,29.7,
1495,1,SBT2050,2,3,,2,4773,3.78605,2.9359,903.947,253.5,29.7,
1495,1,SBT2050,2,3,,2,4810,3.792884,2.9362,934.122,253.5,29.7,
1495,1,SBT2050,2,3,,2,4847,3.80034,2.9357,964.298,253.5,29.7,
1495,1,SBT2050,2,3,,2,4884,3.807832,2.9364,994.473,253.5,29.7,
1495,1,SBT2050,2,3,,2,4921,3.815466,2.936,1024.648,253.5,29.8,
1495,1,SBT2050,2,3,,2,4958,3.823188,2.936,1054.823,253.5,29.7,
1495,1,SBT2050,2,3,,2,4995,3.83153,2.9358,1084.998,253.5,29.7,
1495,1,SBT2050,2,3,,2,5032,3.83976,2.936,1115.173,253.5,29.8,
1495,1,SBT2050,2,3,,2,5069,3.84828,2.9361,1145.348,253.5,29.8,
1495,1,SBT2050,2,3,,2,5106,3.85718,2.9358,1175.523,253.5,29.8,
1495,1,SBT2050,2,3,,2,5143,3.86648,2.9357,1205.698,253.5,29.9,
1495,1,SBT2050,2,3,,2,5180,3.875834,2.9361,1235.873,253.5,29.9,
1495,1,SBT2050,2,3,,2,5217,3.88509,2.936,1266.048,253.5,29.9,
1495,1,SBT2050,2,3,,2,5254,3.89534,2.9359,1296.224,253.5,30,
1495,1,SBT2050,2,3,,2,5291,3.9051,2.9358,1326.399,253.5,30,
1495,1,SBT2050,2,3,,2,5328,3.91506,2.9359,1356.573,253.5,30,
1495,1,SBT2050,2,3,,2,5365,3.92508,2.9361,1386.748,253.5,30.1,
1495,1,SBT2050,2,3,,2,5402,3.93538,2.9358,1416.923,253.5,30.1,
1495,1,SBT2050,2,3,,2,5439,3.94525,2.9354,1447.098,253.5,30.1,
1495,1,SBT2050,2,3,,2,5476,3.95553,2.9354,1477.273,253.5,30.2,
1495,1,SBT2050,2,3,,2,5513,3.96631,2.9359,1507.448,253.5,30.2,
1495,1,SBT2050,2,3,,2,5550,3.9768,2.9361,1537.623,253.5,30.3,
1495,1,SBT2050,2,3,,2,5587,3.98745,2.936,1567.798,253.5,30.3,
1495,1,SBT2050,2,3,,2,5624,3.99813,2.9358,1597.973,253.5,30.3,
1495,1,SBT2050,2,3,,2,5661,4.00888,2.9363,1628.148,253.5,30.3,
1495,1,SBT2050,2,3,,2,5698,4.01951,2.9358,1658.323,253.5,30.4,
1495,1,SBT2050,2,3,,2,5735,4.0301,2.9362,1688.498,253.5,30.4,
1495,1,SBT2050,2,3,,2,5772,4.041092,2.9362,1718.674,253.5,30.4,
1495,1,SBT2050,2,3,,2,5809,4.05149,2.936,1748.849,253.5,30.4,
1495,1,SBT2050,2,3,,2,5846,4.06227,2.9359,1779.024,253.5,30.5,
1495,1,SBT2050,2,3,,2,5883,4.07312,2.936,1809.199,253.5,30.5,
1495,1,SBT2050,2,3,,2,5920,4.08381,2.9359,1839.374,253.5,30.5,
1495,1,SBT2050,2,3,,2,5957,4.09439,2.9362,1869.549,253.5,30.5,
1495,1,SBT2050,2,3,,2,5994,4.10488,2.9362,1899.724,253.5,30.5,
1495,1,SBT2050,2,3,,2,6031,4.115694,2.9357,1929.899,253.5,30.6,
1495,1,SBT2050,2,3,,2,6068,4.12636,2.9356,1960.074,253.5,30.6,
1495,1,SBT2050,2,3,,2,6105,4.13714,2.9359,1990.249,253.5,30.6,
1495,1,SBT2050,2,3,,2,6142,4.147416,2.9359,2020.424,253.5,30.6,
1495,1,SBT2050,2,3,,2,6179,4.15014,2.7754,2049.917,253.5,30.7,
1495,1,SBT2050,2,3,,2,6216,4.15035,2.6136,2077.595,253.5,30.6,
1495,1,SBT2050,2,3,,2,6253,4.14986,2.4672,2103.701,253.5,30.5,
1495,1,SBT2050,2,3,,2,6290,4.150114,2.3264,2128.321,253.5,30.4,
1495,1,SBT2050,2,3,,2,6327,4.14989,2.1938,2151.535,253.5,30.3,
1495,1,SBT2050,2,3,,2,6364,4.15025,2.0645,2173.403,253.5,30.1,
1495,1,SBT2050,2,3,,2,6401,4.15005,1.9435,2193.996,253.5,29.9,
1495,1,SBT2050,2,3,,2,6438,4.15007,1.8317,2213.396,253.5,29.7,
1495,1,SBT2050,2,3,,2,6475,4.15023,1.7253,2231.687,253.5,29.5,
1495,1,SBT2050,2,3,,2,6512,4.15014,1.6277,2248.925,253.5,29.3,
1495,1,SBT2050,2,3,,2,6549,4.15004,1.5376,2265.188,253.5,29.1,
1495,1,SBT2050,2,3,,2,6586,4.15003,1.4533,2280.553,253.5,28.9,
1495,1,SBT2050,2,3,,2,6623,4.14985,1.3755,2295.082,253.5,28.7,
1495,1,SBT2050,2,3,,2,6660,4.15016,1.3014,2308.828,253.5,28.5,
1495,1,SBT2050,2,3,,2,6697,4.15005,1.2338,2321.853,253.5,28.3,
1495,1,SBT2050,2,3,,2,6734,4.15026,1.1718,2334.217,253.5,28.1,
1495,1,SBT2050,2,3,,2,6771,4.15014,1.1143,2345.965,253.5,28,
1495,1,SBT2050,2,3,,2,6808,4.15025,1.0611,2357.143,253.5,27.8,
1495,1,SBT2050,2,3,,2,6845,4.14994,1.0117,2367.793,253.5,27.7,
1495,1,SBT2050,2,3,,2,6882,4.14991,0.9665,2377.952,253.5,27.6,
1495,1,SBT2050,2,3,,2,6919,4.14998,0.923,2387.661,253.5,27.4,
1495,1,SBT2050,2,3,,2,6956,4.15015,0.8819,2396.932,253.5,27.3,
1495,1,SBT2050,2,3,,2,6993,4.15005,0.8443,2405.806,253.5,27.2,
1495,1,SBT2050,2,3,,2,7030,4.15007,0.8099,2414.31,253.5,27.1,
1495,1,SBT2050,2,3,,2,7067,4.150102,0.7772,2422.462,253.5,26.9,
1495,1,SBT2050,2,3,,2,7104,4.14996,0.7462,2430.287,253.5,26.8,
1495,1,SBT2050,2,3,,2,7141,4.14995,0.7183,2437.811,253.5,26.8,
1495,1,SBT2050,2,3,,2,7178,4.14997,0.6918,2445.058,253.5,26.7,
1495,1,SBT2050,2,3,,2,7215,4.150078,0.6662,2452.034,253.5,26.6,
1495,1,SBT2050,2,3,,2,7252,4.15004,0.6437,2458.765,253.5,26.6,
1495,1,SBT2050,2,3,,2,7289,4.15014,0.6197,2465.254,253.5,26.5,
1495,1,SBT2050,2,3,,2,7326,4.15003,0.5986,2471.513,253.5,26.4,
1495,1,SBT2050,2,3,,2,7363,4.15035,0.5785,2477.56,253.5,26.3,
1495,1,SBT2050,2,3,,2,7400,4.15026,0.5589,2483.403,253.5,26.3,
1495,1,SBT2050,2,3,,2,7437,4.14995,0.5407,2489.047,253.5,26.2,
1495,1,SBT2050,2,3,,2,7474,4.15023,0.524,2494.518,253.5,26.2,
1495,1,SBT2050,2,3,,2,7511,4.15016,0.508,2499.824,253.5,26.1,
1495,1,SBT2050,2,3,,2,7548,4.14994,0.493,2504.965,253.5,26.1,
1495,1,SBT2050,2,3,,2,7585,4.15035,0.4777,2509.953,253.5,26,
1495,1,SBT2050,2,3,,2,7622,4.15016,0.46335,2514.783,253.5,26,
1495,1,SBT2050,2,3,,2,7659,4.14991,0.44857,2519.468,253.5,26,
1495,1,SBT2050,2,3,,2,7696,4.15005,0.43594,2524.017,253.5,26,
1495,1,SBT2050,2,3,,2,7733,4.14997,0.42488,2528.438,253.5,25.9,
1495,1,SBT2050,2,3,,2,7770,4.15002,0.41285,2532.741,253.5,25.9,
1495,1,SBT2050,2,3,,2,7807,4.150078,0.40155,2536.931,253.5,25.9,
1495,1,SBT2050,2,3,,2,7844,4.150114,0.39152,2541.007,253.5,25.9,
1495,1,SBT2050,2,3,,2,7881,4.15009,0.38151,2544.983,253.5,25.9,
1495,1,SBT2050,2,3,,2,7918,4.150078,0.37262,2548.853,253.5,25.8,
1495,1,SBT2050,2,3,,2,7955,4.1499,0.36301,2552.631,253.5,25.8,
1495,1,SBT2050,2,3,,2,7992,4.14991,0.3542,2556.318,253.5,25.8,
1495,1,SBT2050,2,3,,2,8029,4.150126,0.34484,2559.914,253.5,25.8,
1495,1,SBT2050,2,3,,2,8066,4.14996,0.33628,2563.415,253.5,25.7,
1495,1,SBT2050,2,3,,2,8103,4.150078,0.3287,2566.837,253.5,25.7,
1495,1,SBT2050,2,3,,2,8140,4.15009,0.32082,2570.172,253.5,25.7,
1495,1,SBT2050,2,3,,2,8177,4.14999,0.31498,2573.442,253.5,25.7,
1495,1,SBT2050,2,3,,2,8214,4.14994,0.30858,2576.642,253.5,25.7,
1495,1,SBT2050,2,3,,2,8251,4.149792,0.30168,2579.776,253.5,25.7,
1495,1,SBT2050,2,3,,2,8288,4.15033,0.29548,2582.845,253.5,25.6,
1495,1,SBT2050,2,3,,2,8325,4.15001,0.28941,2585.852,253.5,25.7,
1495,1,SBT2050,2,3,,2,8362,4.14995,0.28381,2588.799,253.5,25.6,
1495,1,SBT2050,2,3,,2,8399,4.15003,0.27847,2591.688,253.5,25.6,
1495,1,SBT2050,2,3,,2,8436,4.15002,0.27199,2594.511,253.5,25.6,
1495,1,SBT2050,2,3,,2,8473,4.15014,0.26724,2597.284,253.5,25.6,
1495,1,SBT2050,2,3,,2,8510,4.14995,0.26274,2600.008,253.5,25.5,
1495,1,SBT2050,2,3,,2,8547,4.150114,0.25763,2602.684,253.5,25.6,
1495,1,SBT2050,2,3,,2,8584,4.14998,0.25347,2605.314,253.5,25.5,
1495,1,SBT2050,2,3,,2,8621,4.1499,0.24899,2607.894,253.5,25.5,
1495,1,SBT2050,2,3,,2,8658,4.14999,0.24534,2610.432,253.5,25.5,
1495,1,SBT2050,2,3,,2,8695,4.14998,0.24,2612.928,253.5,25.5,
1495,1,SBT2050,2,3,,2,8732,4.15004,0.23604,2615.375,253.5,25.5,
1495,1,SBT2050,2,3,,2,8769,4.15004,0.23173,2617.777,253.5,25.5,
1495,1,SBT2050,2,3,,2,8806,4.15005,0.22791,2620.137,253.5,25.5,
1495,1,SBT2050,2,3,,2,8843,4.15014,0.22304,2622.454,253.5,25.5,
1495,1,SBT2050,2,3,,2,8880,4.15025,0.21905,2624.727,253.5,25.5,
1495,1,SBT2050,2,3,,2,8917,4.15027,0.21607,2626.968,253.5,25.5,
1495,1,SBT2050,2,3,,2,8954,4.14991,0.21219,2629.165,253.5,25.5,
1495,1,SBT2050,2,3,,2,8991,4.150078,0.20947,2631.333,253.5,25.5,
1495,1,SBT2050,2,3,,2,9028,4.14998,0.20589,2633.464,253.5,25.4,
1495,1,SBT2050,2,3,,2,9065,4.15005,0.20101,2635.556,253.5,25.4,
1495,1,SBT2050,2,3,,2,9102,4.15007,0.19805,2637.614,253.5,25.4,
1495,1,SBT2050,2,3,,2,9139,4.150102,0.19543,2639.637,253.5,25.4,
1495,1,SBT2050,2,3,,2,9176,4.15003,0.19148,2641.621,253.5,25.4,
1495,1,SBT2050,2,3,,2,9213,4.14997,0.18837,2643.572,253.5,25.4,
1495,1,SBT2050,2,3,,2,9250,4.14997,0.18508,2645.491,253.5,25.4,
1495,1,SBT2050,2,3,,2,9287,4.14983,0.18244,2647.377,253.5,25.4,
1495,1,SBT2050,2,3,,2,9324,4.15003,0.17907,2649.231,253.5,25.4,
1495,1,SBT2050,2,3,,2,9361,4.150078,0.17662,2651.056,253.5,25.4,
1495,1,SBT2050,2,3,,2,9398,4.14996,0.17293,2652.85,253.5,25.4,
1495,1,SBT2050,2,3,,2,9435,4.15009,0.16997,2654.614,253.5,25.4,
1495,1,SBT2050,2,3,,2,9472,4.15016,0.1676,2656.349,253.5,25.4,
1495,1,SBT2050,2,3,,2,9509,4.14992,0.16352,2658.049,253.5,25.4,
1495,1,SBT2050,2,3,,2,9546,4.14985,0.16146,2659.717,253.5,25.4,
1495,1,SBT2050,2,3,,2,9583,4.15029,0.15902,2661.363,253.5,25.4,
1495,1,SBT2050,2,3,,2,9620,4.15002,0.15655,2662.987,253.5,25.4,
1495,1,SBT2050,2,3,,2,9657,4.15022,0.15378,2664.583,253.5,25.4,
1495,1,SBT2050,2,3,,2,9694,4.15017,0.15155,2666.153,253.5,25.4,
1495,1,SBT2050,2,3,,2,9731,4.1499,0.14998,2667.703,253.5,25.4,
1495,1,SBT2050,2,3,,2,9768,4.15003,0.14593,2669.225,253.5,25.4,
1495,1,SBT2050,2,3,,2,9805,4.14988,0.1445,2670.718,253.5,25.4,
1495,1,SBT2050,2,3,,2,9842,4.15003,0.14189,2672.191,253.5,25.4,
1495,1,SBT2050,2,3,,2,9879,4.15014,0.13895,2673.635,253.5,25.4,
1495,1,SBT2050,2,3,,2,9916,4.150078,0.13799,2675.058,253.5,25.3,
1495,1,SBT2050,2,3,,2,9953,4.15022,0.13478,2676.457,253.5,25.3,
1495,1,SBT2050,2,3,,2,9990,4.14995,0.13409,2677.836,253.5,25.3,
1495,1,SBT2050,2,3,,2,10027,4.15017,0.13246,2679.209,253.5,25.3,
1495,1,SBT2050,2,3,,2,10064,4.15003,0.13107,2680.56,253.5,25.3,
1495,1,SBT2050,2,3,,2,10101,4.15009,0.12837,2681.893,253.5,25.4,
1495,1,SBT2050,2,3,,2,10138,4.15005,0.12631,2683.202,253.5,25.4,
1495,1,SBT2050,2,3,,2,10175,4.15021,0.12458,2684.493,253.5,25.3,
1495,1,SBT2050,2,3,,2,10212,4.150114,0.12144,2685.76,253.5,25.3,
1495,1,SBT2050,2,3,,2,10249,4.14988,0.11992,2686.998,253.5,25.3,
1495,1,SBT2050,2,3,,2,10286,4.15004,0.11879,2688.221,253.5,25.3,
1495,1,SBT2050,2,3,,2,10323,4.1502,0.11609,2689.427,253.5,25.3,
1495,1,SBT2050,2,3,,2,10360,4.149792,0.11487,2690.611,253.5,25.3,
1495,1,SBT2050,2,3,,2,10397,4.150078,0.1131,2691.782,253.5,25.3,
1495,1,SBT2050,2,3,,2,10434,4.15009,0.11117,2692.935,253.5,25.3,
1495,1,SBT2050,2,3,,2,10471,4.14989,0.1099,2694.071,253.5,25.3,
1495,1,SBT2050,2,3,,2,10508,4.15009,0.1077,2695.191,253.5,25.3,
1495,1,SBT2050,2,3,,2,10545,4.1502,0.10654,2696.29,253.5,25.3,
1495,1,SBT2050,2,3,,2,10582,4.15004,0.1046,2697.374,253.5,25.4,
1495,1,SBT2050,2,3,,2,10619,4.15016,0.1028,2698.437,253.5,25.4,
1495,1,SBT2050,2,3,,2,10656,4.149756,0.10177,2699.488,253.5,25.4,
1495,1,SBT2050,2,3,,2,10693,4.15003,0.10032,2700.529,253.5,25.3,
1495,1,SBT2050,2,3,,2,10730,4.15002,0.09875,2701.551,253.5,25.3,
1495,1,SBT2050,2,3,,2,10767,4.14999,0.09744,2702.56,253.5,25.3,
1495,1,SBT2050,2,3,,2,10804,4.15029,0.09611,2703.555,253.5,25.3,
1495,1,SBT2050,2,3,,2,10841,4.15003,0.09406,2704.53,253.5,25.3,
1495,1,SBT2050,2,3,,2,10878,4.150126,0.09286,2705.492,253.5,25.3,
1495,1,SBT2050,2,3,,2,10915,4.14991,0.09165,2706.441,253.5,25.4,
1495,1,SBT2050,2,3,,2,10952,4.15003,0.0911,2707.38,253.5,25.3,
1495,1,SBT2050,2,3,,2,10989,4.14982,0.08904,2708.302,253.5,25.3,
1495,1,SBT2050,2,3,,2,11026,4.15001,0.08828,2709.213,253.5,25.3,
1495,1,SBT2050,2,3,,2,11063,4.14997,0.08681,2710.111,253.5,25.3,
1495,1,SBT2050,2,3,,2,11100,4.14994,0.08547,2710.996,253.5,25.3,
1495,1,SBT2050,2,3,,2,11137,4.150078,0.08449,2711.868,253.5,25.3,
1495,1,SBT2050,2,3,,2,11174,4.15005,0.08326,2712.73,253.5,25.3,
1495,1,SBT2050,2,3,,2,11211,4.14986,0.08203,2713.578,253.5,25.3,
1495,1,SBT2050,2,3,,2,11248,4.15023,0.08094,2714.417,253.5,25.3,
1495,1,SBT2050,2,3,,2,11285,4.1499,0.0795,2715.242,253.5,25.3,
1495,1,SBT2050,2,3,,2,11322,4.150078,0.07839,2716.052,253.5,25.3,
1495,1,SBT2050,2,3,,2,11359,4.15015,0.07692,2716.854,253.5,25.3,
1495,1,SBT2050,2,3,,2,11396,4.14995,0.07714,2717.642,253.5,25.3,
1495,1,SBT2050,2,3,,2,11433,4.15001,0.07558,2718.423,253.5,25.3,
1495,1,SBT2050,2,3,,2,11470,4.14973,0.07494,2719.195,253.5,25.3,
1495,1,SBT2050,2,3,,2,11507,4.14985,0.07317,2719.955,253.5,25.3,
1495,1,SBT2050,2,3,,2,11544,4.14999,0.07185,2720.699,253.5,25.3,
1495,1,SBT2050,2,3,,2,11581,4.15007,0.07152,2721.437,253.5,25.3,
1495,1,SBT2050,2,3,,2,11618,4.15001,0.07024,2722.166,253.5,25.3,
1495,1,SBT2050,2,3,,2,11655,4.15004,0.06988,2722.883,253.5,25.3,
1495,1,SBT2050,2,3,,2,11692,4.14997,0.06869,2723.595,253.5,25.3,
1495,1,SBT2050,2,3,,2,11729,4.14985,0.06765,2724.297,253.5,25.3,
1495,1,SBT2050,2,3,,2,11766,4.14988,0.06753,2724.989,253.5,25.3,
1495,1,SBT2050,2,3,,2,11803,4.15001,0.06605,2725.673,253.5,25.3,
1495,1,SBT2050,2,3,,2,11840,4.15015,0.06563,2726.346,253.5,25.3,
1495,1,SBT2050,2,3,,2,11877,4.14997,0.06486,2727.013,253.5,25.3,
1495,1,SBT2050,2,3,,2,11914,4.14998,0.06384,2727.669,253.5,25.3,
1495,1,SBT2050,2,3,,2,11951,4.15002,0.06288,2728.319,253.5,25.3,
1495,1,SBT2050,2,3,,2,11988,4.15022,0.06155,2728.962,253.5,25.3,
1495,1,SBT2050,2,3,,2,12025,4.15035,0.06053,2729.589,253.5,25.3,
1495,1,SBT2050,2,3,,2,12062,4.15005,0.05946,2730.207,253.5,25.3,
1495,1,SBT2050,2,3,,2,12099,4.15014,0.05921,2730.817,253.5,25.3,
1495,1,SBT2050,2,3,,2,12136,4.1502,0.05871,2731.424,253.5,25.3,
1495,1,SBT2050,2,3,,2,12173,4.15007,0.05801,2732.023,253.5,25.2,
1495,1,SBT2050,2,3,,2,12210,4.14998,0.0573,2732.616,253.5,25.3,
1495,1,SBT2050,2,3,,2,12247,4.15015,0.05712,2733.203,253.5,25.3,
1495,1,SBT2050,2,3,,2,12284,4.1499,0.05636,2733.787,253.5,25.3,
1495,1,SBT2050,2,3,,2,12321,4.15021,0.05524,2734.361,253.5,25.3,
1495,1,SBT2050,2,3,,2,12358,4.149756,0.05466,2734.925,253.5,25.3,
1495,1,SBT2050,2,3,,2,12395,4.14982,0.05331,2735.482,253.5,25.3,
1495,1,SBT2050,2,3,,2,12432,4.15007,0.0524,2736.027,253.5,25.3,
1495,1,SBT2050,2,3,,2,12469,4.14985,0.05196,2736.564,253.5,25.3,
1495,1,SBT2050,2,3,,2,12506,4.15001,0.05169,2737.097,253.5,25.3,
1495,1,SBT2050,2,3,,2,12543,4.15004,0.05113,2737.627,253.5,25.2,
1495,1,SBT2050,2,3,,2,12580,4.150102,0.05047,2738.151,253.5,25.3,
1495,1,SBT2050,2,3,,2,12617,4.15002,0.04999,2738.666,253.5,25.3,
1495,1,SBT2050,2,3,,2,12654,4.15001,0.04912,2739.177,253.5,25.3,
1495,1,SBT2050,2,3,,2,12691,4.14994,0.04894,2739.684,253.5,25.3,
1495,1,SBT2050,2,3,,2,12728,4.15017,0.04785,2740.182,253.5,25.3,
1495,1,SBT2050,2,3,,2,12765,4.15004,0.047574,2740.677,253.5,25.3,
1495,1,SBT2050,2,3,,2,12802,4.14986,0.046539,2741.159,253.5,25.3,
1495,1,SBT2050,2,3,,2,12839,4.14991,0.046498,2741.638,253.5,25.3,
1495,1,SBT2050,2,3,,2,12876,4.15017,0.046093,2742.114,253.5,25.3,
1495,1,SBT2050,2,3,,2,12913,4.14997,0.045167,2742.582,253.5,25.3,
1495,1,SBT2050,2,3,,2,12950,4.15005,0.045001,2743.046,253.5,25.3,
1495,1,SBT2050,2,3,,2,12987,4.14984,0.04451,2743.502,253.5,25.3,
1495,1,SBT2050,2,3,,2,13024,4.14982,0.044266,2743.961,253.5,25.3,
1495,1,SBT2050,2,3,,2,13061,4.14989,0.043659,2744.413,253.5,25.3,
1495,1,SBT2050,2,3,,2,13098,4.1502,0.042407,2744.854,253.5,25.3,
1495,1,SBT2050,2,3,,2,13135,4.14985,0.042539,2745.288,253.5,25.3,
1495,1,SBT2050,2,3,,2,13172,4.14994,0.041515,2745.719,253.5,25.3,
1495,1,SBT2050,2,3,,2,13209,4.15003,0.041011,2746.144,253.5,25.3,
1495,1,SBT2050,2,3,,2,13246,4.14996,0.040661,2746.563,253.5,25.3,
1495,1,SBT2050,2,3,,2,13283,4.150078,0.040435,2746.979,253.5,25.3,
1495,1,SBT2050,2,3,,2,13320,4.14997,0.040055,2747.396,253.5,25.3,
1495,1,SBT2050,2,3,,2,13357,4.14996,0.039518,2747.806,253.5,25.3,
1495,1,SBT2050,2,3,,2,13394,4.14994,0.039662,2748.21,253.5,25.3,
1495,1,SBT2050,2,3,,2,13431,4.15005,0.038583,2748.612,253.5,25.3,
1495,1,SBT2050,2,3,,2,13468,4.14996,0.037883,2749.005,253.5,25.3,
1495,1,SBT2050,2,3,,2,13505,4.15016,0.036751,2749.387,253.5,25.3,
1495,1,SBT2050,2,3,,2,13542,4.1499,0.03624,2749.764,253.5,25.3,
1495,1,SBT2050,2,3,,2,13579,4.14982,0.036449,2750.139,253.5,25.3,
1495,1,SBT2050,2,3,,2,13616,4.15005,0.035732,2750.511,253.5,25.3,
1495,1,SBT2050,2,3,,2,13653,4.15003,0.035431,2750.88,253.5,25.3,
1495,1,SBT2050,2,3,,2,13690,4.15005,0.035326,2751.244,253.5,25.3,
1495,1,SBT2050,2,3,,2,13727,4.15004,0.034883,2751.607,253.5,25.3,
1495,1,SBT2050,2,3,,2,13764,4.14989,0.034596,2751.964,253.5,25.3,
1495,1,SBT2050,2,3,,2,13801,4.14986,0.034236,2752.318,253.5,25.3,
1495,1,SBT2050,2,3,,2,13838,4.14999,0.033744,2752.667,253.5,25.3,
1495,1,SBT2050,2,3,,2,13875,4.1502,0.032937,2753.011,253.5,25.3,
1495,1,SBT2050,2,3,,2,13912,4.14988,0.033128,2753.351,253.5,25.2,
1495,1,SBT2050,2,3,,2,13949,4.14995,0.032639,2753.69,253.5,25.3,
1495,1,SBT2050,2,3,,2,13986,4.15007,0.03221,2754.025,253.5,25.2,
1495,1,SBT2050,2,3,,2,14023,4.14983,0.032302,2754.355,253.5,25.3,
1495,1,SBT2050,2,3,,2,14060,4.14991,0.03171,2754.681,253.5,25.3,
1495,1,SBT2050,2,3,,2,14097,4.14997,0.03134,2755.008,253.5,25.3,
1495,1,SBT2050,2,3,,2,14134,4.14998,0.030915,2755.329,253.5,25.3,
1495,1,SBT2050,2,3,,2,14171,4.14995,0.030385,2755.645,253.5,25.3,
1495,1,SBT2050,2,3,,2,14208,4.150102,0.029821,2755.955,253.5,25.3,
1495,1,SBT2050,2,3,,2,14245,4.15003,0.029345,2756.258,253.5,25.2,
1495,1,SBT2050,2,3,,2,14282,4.15007,0.029007,2756.56,253.5,25.2,
1495,1,SBT2050,2,3,,2,14319,4.14982,0.028828,2756.861,253.5,25.2,
1495,1,SBT2050,2,3,,2,14356,4.14982,0.029047,2757.16,253.5,25.2,
1495,1,SBT2050,2,3,,2,14393,4.14997,0.028615,2757.455,253.5,25.2,
1495,1,SBT2050,2,3,,2,14430,4.15002,0.028512,2757.75,253.5,25.2,
1495,1,SBT2050,2,3,,2,14467,4.14983,0.028678,2758.039,253.5,25.2,
1495,1,SBT2050,2,3,,2,14504,4.14985,0.02759,2758.325,253.5,25.2,
1495,1,SBT2050,2,3,,2,14541,4.15007,0.027166,2758.606,253.5,25.2,
1495,1,SBT2050,2,3,,2,14578,4.15014,0.026499,2758.88,253.5,25.2,
1495,1,SBT2050,2,3,,2,14615,4.14994,0.026782,2759.153,253.5,25.2,
1495,1,SBT2050,2,3,,2,14652,4.149756,0.026331,2759.424,253.5,25.2,
1495,1,SBT2050,2,3,,2,14689,4.15016,0.025809,2759.691,253.5,25.2,
1495,1,SBT2050,2,3,,2,14726,4.15016,0.026126,2759.958,253.5,25.2,
1495,1,SBT2050,2,3,,2,14763,4.14988,0.025068,2760.224,253.5,25.2,
1495,1,SBT2050,2,3,,2,14800,4.14991,0.025298,2760.482,253.5,25.2,
1495,1,SBT2050,2,3,,2,14837,4.14996,0.025109,2760.739,253.5,25.2,
1495,1,SBT2050,2,3,,2,14874,4.14994,0.024715,2760.997,253.5,25.2,
1495,1,SBT2050,2,3,,2,14911,4.14995,0.024318,2761.249,253.5,25.2,
1495,1,SBT2050,2,3,,2,14948,4.15015,0.024387,2761.502,253.5,25.2,
1495,1,SBT2050,2,3,,2,14985,4.15025,0.023737,2761.75,253.5,25.2,
1495,1,SBT2050,2,3,,2,15022,4.14988,0.023758,2761.991,253.5,25.2,
1495,1,SBT2050,2,3,,2,15059,4.150078,0.023748,2762.233,253.5,25.2,
1495,1,SBT2050,2,3,,2,15096,4.15019,0.023584,2762.477,253.5,25.2,
1495,1,SBT2050,2,3,,2,15133,4.15036,0.023214,2762.717,253.5,25.2,
1495,1,SBT2050,2,3,,2,15170,4.15004,0.02269,2762.952,253.5,25.2,
1495,1,SBT2050,2,3,,2,15207,4.15021,0.022496,2763.187,253.5,25.2,
1495,1,SBT2050,2,3,,2,15244,4.15009,0.022653,2763.421,253.5,25.2,
1495,1,SBT2050,2,3,,2,15281,4.14996,0.022162,2763.651,253.5,25.2,
1495,1,SBT2050,2,3,,2,15318,4.150102,0.021336,2763.876,253.5,25.2,
1495,1,SBT2050,2,3,,2,15355,4.14998,0.021377,2764.096,253.5,25.2,
1495,1,SBT2050,2,3,,2,15392,4.14999,0.02132,2764.316,253.5,25.2,
1495,1,SBT2050,2,3,,2,15429,4.15019,0.021024,2764.531,253.5,25.2,
1495,1,SBT2050,2,3,,2,15466,4.150114,0.020286,2764.746,253.5,25.2,
1495,1,SBT2050,2,3,,2,15503,4.14994,0.020542,2764.957,253.5,25.2,
1495,1,SBT2050,2,3,,2,15540,4.15014,0.020513,2765.171,253.5,25.2,
1495,1,SBT2050,2,3,,2,15577,4.15002,0.020401,2765.381,253.5,25.2,
1495,1,SBT2050,2,3,,2,15614,4.15003,0.020172,2765.591,253.5,25.2,
1495,1,SBT2050,2,3,,2,15651,4.14984,0.020116,2765.796,253.5,25.2,
1495,1,SBT2050,2,3,,2,15688,4.14984,0.019674,2766,253.5,25.2,
1495,1,SBT2050,2,3,,2,15725,4.14991,0.019581,2766.199,253.5,25.2,
1495,1,SBT2050,2,3,,2,15762,4.15007,0.019713,2766.398,253.5,25.2,
1495,1,SBT2050,2,3,,2,15799,4.15002,0.019448,2766.599,253.5,25.2,
1495,1,SBT2050,2,3,,2,15836,4.15034,0.01908,2766.796,253.5,25.2,
1495,1,SBT2050,2,3,,2,15873,4.14985,0.019236,2766.994,253.5,25.2,
1495,1,SBT2050,2,3,,2,15910,4.15004,0.019111,2767.191,253.5,25.2,
1495,1,SBT2050,2,3,,2,15947,4.14978,0.018041,2767.382,253.5,25.2,
1495,1,SBT2050,2,3,,2,15984,4.14995,0.018494,2767.573,253.5,25.2,
1495,1,SBT2050,2,3,,2,16021,4.149792,0.018347,2767.761,253.5,25.2,
1495,1,SBT2050,2,3,,2,16058,4.15005,0.017703,2767.945,253.5,25.2,
1495,1,SBT2050,2,3,,2,16095,4.1499,0.018049,2768.125,253.5,25.2,
1495,1,SBT2050,2,3,,2,16132,4.14997,0.017782,2768.304,253.5,25.2,
1495,1,SBT2050,2,3,,2,16169,4.1499,0.017788,2768.486,253.5,25.2,
1495,1,SBT2050,2,3,,2,16206,4.14998,0.017676,2768.665,253.5,25.2,
1495,1,SBT2050,2,3,,2,16243,4.14974,0.017226,2768.843,253.5,25.3,
1495,1,SBT2050,2,3,,2,16280,4.14994,0.01661,2769.019,253.5,25.2,
1495,1,SBT2050,2,3,,2,16317,4.15004,0.016906,2769.19,253.5,25.3,
1495,1,SBT2050,2,3,,2,16354,4.15005,0.016159,2769.361,253.5,25.2,
1495,1,SBT2050,2,3,,2,16391,4.14991,0.016439,2769.528,253.5,25.3,
1495,1,SBT2050,2,3,,2,16428,4.15004,0.016201,2769.697,253.5,25.3,
1495,1,SBT2050,2,3,,2,16465,4.150126,0.016368,2769.865,253.5,25.3,
1495,1,SBT2050,2,3,,2,16502,4.15004,0.015895,2770.03,253.5,25.2,
1495,1,SBT2050,2,3,,2,16539,4.15019,0.015681,2770.194,253.5,25.2,
1495,1,SBT2050,2,3,,2,16576,4.14994,0.015319,2770.355,253.5,25.2,
1495,1,SBT2050,2,3,,2,16613,4.14985,0.015421,2770.513,253.5,25.3,
1495,1,SBT2050,2,3,,2,16650,4.14999,0.016003,2770.675,253.5,25.2,
1495,1,SBT2050,2,3,,2,16687,4.15002,0.015137,2770.832,253.5,25.2,
1495,1,SBT2050,2,3,,2,16724,4.15004,0.014607,2770.99,253.5,25.3,
1495,1,SBT2050,2,3,,2,16761,4.14973,0.014637,2771.141,253.5,25.2,
1495,1,SBT2050,2,3,,2,16798,4.150078,0.015007,2771.294,253.5,25.3,
1495,1,SBT2050,2,3,,2,16835,4.14984,0.015504,2771.448,253.5,25.2,
1495,1,SBT2050,2,3,,2,16872,4.15025,0.014291,2771.601,253.5,25.2,
1495,1,SBT2050,2,3,,2,16909,4.14998,0.014492,2771.749,253.5,25.2,
1495,1,SBT2050,2,3,,2,16946,4.14991,0.014379,2771.899,253.5,25.2,
1495,1,SBT2050,2,3,,2,16983,4.15009,0.014372,2772.047,253.5,25.2,
1495,1,SBT2050,2,3,,2,17020,4.14999,0.014182,2772.193,253.5,25.3,
1495,1,SBT2050,2,3,,2,17057,4.14992,0.013825,2772.338,253.5,25.3,
1495,1,SBT2050,2,3,,2,17094,4.15029,0.013434,2772.48,253.5,25.2,
1495,1,SBT2050,2,3,,2,17131,4.14998,0.013713,2772.618,253.5,25.2,
1495,1,SBT2050,2,3,,2,17168,4.15009,0.0136,2772.76,253.5,25.2,
1495,1,SBT2050,2,3,,2,17205,4.15004,0.012856,2772.9,253.5,25.3,
1495,1,SBT2050,2,3,,2,17242,4.14998,0.013211,2773.035,253.5,25.2,
1495,1,SBT2050,2,3,,2,17279,4.15007,0.012902,2773.171,253.5,25.2,
1495,1,SBT2050,2,3,,2,17316,4.14991,0.013396,2773.303,253.5,25.3,
1495,1,SBT2050,2,3,,2,17353,4.15016,0.012595,2773.438,253.5,25.3,
1495,1,SBT2050,2,3,,2,17390,4.14997,0.012218,2773.567,253.5,25.3,
1495,1,SBT2050,2,3,,2,17427,4.149804,0.01282,2773.696,253.5,25.2,
1495,1,SBT2050,2,3,,2,17464,4.15005,0.012247,2773.826,253.5,25.2,
1495,1,SBT2050,2,3,,2,17501,4.14992,0.011475,2773.949,253.5,25.2,
1495,1,SBT2050,2,3,,2,17538,4.15004,0.01272,2774.074,253.5,25.3,
1495,1,SBT2050,2,3,,2,17575,4.14989,0.012253,2774.205,253.5,25.2,
1495,1,SBT2050,2,3,,2,17612,4.14998,0.012154,2774.331,253.5,25.3,
1495,1,SBT2050,2,3,,2,17649,4.14994,0.012233,2774.455,253.5,25.3,
1495,1,SBT2050,2,3,,2,17686,4.14998,0.011819,2774.579,253.5,25.3,
1495,1,SBT2050,2,3,,2,17723,4.14984,0.0118,2774.701,253.5,25.3,
1495,1,SBT2050,2,3,,2,17760,4.15004,0.011553,2774.822,253.5,25.3,
1495,1,SBT2050,2,3,,2,17797,4.15007,0.011718,2774.938,253.5,25.3,
1495,1,SBT2050,2,3,,2,17834,4.150126,0.011527,2775.056,253.5,25.3,
1495,1,SBT2050,2,3,,2,17871,4.15009,0.010999,2775.174,253.5,25.3,
1495,1,SBT2050,2,3,,2,17908,4.150126,0.012054,2775.294,253.5,25.3,
1495,1,SBT2050,2,3,,2,17945,4.15002,0.01094,2775.413,253.5,25.2,
1495,1,SBT2050,2,3,,2,17982,4.15001,0.011156,2775.527,253.5,25.3,
1495,1,SBT2050,2,3,,2,18019,4.14997,0.011216,2775.641,253.5,25.3,
1495,1,SBT2050,2,3,,2,18056,4.15016,0.01063,2775.754,253.5,25.3,
1495,1,SBT2050,2,3,,2,18093,4.14997,0.010943,2775.866,253.5,25.3,
1495,1,SBT2050,2,3,,2,18130,4.14996,0.010295,2775.976,253.5,25.3,
1495,1,SBT2050,2,3,,3,18166,4.14881,0,2776.046,253.5,25.3,
1495,1,SBT2050,2,3,,3,18203,4.1485,0,2776.046,253.5,25.3,
1495,1,SBT2050,2,3,,3,18240,4.14825,0,2776.046,253.5,25.2,
1495,1,SBT2050,2,3,,3,18277,4.14802,0,2776.046,253.5,25.2,
1495,1,SBT2050,2,3,,3,18314,4.14775,0,2776.046,253.5,25.3,
1495,1,SBT2050,2,3,,3,18351,4.14781,0,2776.046,253.5,25.3,
1495,1,SBT2050,2,3,,3,18388,4.14747,0,2776.046,253.5,25.3,
1495,1,SBT2050,2,3,,3,18425,4.14774,0,2776.046,253.5,25.3,
1495,1,SBT2050,2,3,,3,18462,4.14749,0,2776.046,253.5,25.2,
1495,1,SBT2050,2,3,,3,18499,4.14729,0,2776.046,253.5,25.2,
1495,1,SBT2050,2,3,,3,18536,4.1471,0,2776.046,253.5,25.2,
1495,1,SBT2050,2,3,,3,18573,4.14704,0,2776.046,253.5,25.2,
1495,1,SBT2050,2,3,,3,18610,4.14697,0,2776.046,253.5,25.2,
1495,1,SBT2050,2,3,,3,18647,4.14686,0,2776.046,253.5,25.2,
1495,1,SBT2050,2,3,,3,18684,4.14677,0,2776.046,253.5,25.3,
1495,1,SBT2050,2,3,,3,18721,4.14675,0,2776.046,253.5,25.3,
1495,1,SBT2050,2,3,,3,18758,4.14674,0,2776.046,253.5,25.2,
1495,1,SBT2050,2,3,,3,18795,4.146658,0,2776.046,253.5,25.2,
1495,1,SBT2050,2,3,,3,18832,4.14653,0,2776.046,253.5,25.2,
1495,1,SBT2050,2,3,,3,18869,4.14636,0,2776.046,253.5,25.2,
1495,1,SBT2050,2,3,,3,18906,4.14647,0,2776.046,253.5,25.2,
1495,1,SBT2050,2,3,,3,18943,4.14619,0,2776.046,253.5,25.2,
1495,1,SBT2050,2,3,,3,18980,4.14657,0,2776.046,253.5,25.2,
1495,1,SBT2050,2,3,,3,19017,4.14605,0,2776.046,253.5,25.2,
1495,1,SBT2050,2,3,,3,19054,4.14641,0,2776.046,253.5,25.2,
1495,1,SBT2050,2,3,,3,19091,4.14589,0,2776.046,253.5,25.2,
1495,1,SBT2050,2,3,,3,19128,4.146148,0,2776.046,253.5,25.2,
1495,1,SBT2050,2,3,,3,19165,4.14641,0,2776.046,253.5,25.2,
1495,1,SBT2050,2,3,,3,19202,4.14633,0,2776.046,253.5,25.2,
1495,1,SBT2050,2,3,,3,19239,4.14575,0,2776.046,253.5,25.2,
1495,1,SBT2050,2,3,,3,19276,4.14605,0,2776.046,253.5,25.2,
1495,1,SBT2050,2,3,,3,19313,4.14577,0,2776.046,253.5,25.2,
1495,1,SBT2050,2,3,,3,19350,4.14601,0,2776.046,253.5,25.2,
1495,1,SBT2050,2,3,,3,19387,4.145868,0,2776.046,253.5,25.2,
1495,1,SBT2050,2,3,,3,19424,4.14587,0,2776.046,253.5,25.2,
1495,1,SBT2050,2,3,,3,19461,4.14556,0,2776.046,253.5,25.2,
1495,1,SBT2050,2,3,,3,19498,4.14596,0,2776.046,253.5,25.2,
1495,1,SBT2050,2,3,,3,19535,4.1456,0,2776.046,253.5,25.2,
1495,1,SBT2050,2,3,,3,19572,4.14548,0,2776.046,253.5,25.2,
1495,1,SBT2050,2,3,,3,19609,4.14563,0,2776.046,253.5,25.2,
1495,1,SBT2050,2,3,,3,19646,4.14591,0,2776.046,253.5,25.2,
1495,1,SBT2050,2,3,,3,19683,4.14546,0,2776.046,253.5,25.2,
1495,1,SBT2050,2,3,,3,19720,4.14548,0,2776.046,253.5,25.2,
1495,1,SBT2050,2,3,,3,19757,4.1455,0,2776.046,253.5,25.2,
1495,1,SBT2050,2,3,,3,19794,4.14552,0,2776.046,253.5,25.2,
1495,1,SBT2050,2,3,,3,19831,4.145554,0,2776.046,253.5,25.2,
1495,1,SBT2050,2,3,,3,19868,4.14542,0,2776.046,253.5,25.3,
1495,1,SBT2050,2,3,,3,19905,4.145544,0,2776.046,253.5,25.2,
1495,1,SBT2050,2,3,,3,19942,4.1454,0,2776.046,253.5,25.2,
1495,1,SBT2050,2,3,,4,19978,3.868274,-2.9362,2776.046,272.793,25.4,
1495,1,SBT2050,2,3,,4,20015,3.834728,-2.9359,2776.046,302.968,25.9,
1495,1,SBT2050,2,3,,4,20052,3.81937,-2.9361,2776.046,333.143,26.4,
1495,1,SBT2050,2,3,,4,20089,3.810994,-2.9359,2776.046,363.318,26.9,
1495,1,SBT2050,2,3,,4,20126,3.80545,-2.9361,2776.046,393.494,27.3,
1495,1,SBT2050,2,3,,4,20163,3.8008,-2.9364,2776.046,423.669,27.7,
1495,1,SBT2050,2,3,,4,20200,3.79616,-2.9362,2776.046,453.844,28,
1495,1,SBT2050,2,3,,4,20237,3.79123,-2.9362,2776.046,484.019,28.2,
1495,1,SBT2050,2,3,,4,20274,3.78538,-2.936,2776.046,514.194,28.4,
1495,1,SBT2050,2,3,,4,20311,3.77952,-2.9355,2776.046,544.37,28.6,
1495,1,SBT2050,2,3,,4,20348,3.77266,-2.9359,2776.046,574.545,28.7,
1495,1,SBT2050,2,3,,4,20385,3.76527,-2.9358,2776.046,604.72,28.8,
1495,1,SBT2050,2,3,,4,20422,3.75758,-2.9362,2776.046,634.895,28.9,
1495,1,SBT2050,2,3,,4,20459,3.74922,-2.9359,2776.046,665.07,28.9,
1495,1,SBT2050,2,3,,4,20496,3.74042,-2.9361,2776.046,695.245,29,
1495,1,SBT2050,2,3,,4,20533,3.7318,-2.9358,2776.046,725.42,29,
1495,1,SBT2050,2,3,,4,20570,3.722612,-2.9362,2776.046,755.595,29,
1495,1,SBT2050,2,3,,4,20607,3.71295,-2.9361,2776.046,785.771,29,
1495,1,SBT2050,2,3,,4,20644,3.703704,-2.9361,2776.046,815.946,29,
1495,1,SBT2050,2,3,,4,20681,3.69413,-2.936,2776.046,846.121,29,
1495,1,SBT2050,2,3,,4,20718,3.68491,-2.9362,2776.046,876.296,29,
1495,1,SBT2050,2,3,,4,20755,3.675132,-2.9358,2776.046,906.471,29,
1495,1,SBT2050,2,3,,4,20792,3.66524,-2.9359,2776.046,936.646,29,
1495,1,SBT2050,2,3,,4,20829,3.65515,-2.936,2776.046,966.821,29,
1495,1,SBT2050,2,3,,4,20866,3.64518,-2.9359,2776.046,996.997,29,
1495,1,SBT2050,2,3,,4,20903,3.63514,-2.9363,2776.046,1027.172,29,
1495,1,SBT2050,2,3,,4,20940,3.624892,-2.9354,2776.046,1057.347,29,
1495,1,SBT2050,2,3,,4,20977,3.61432,-2.936,2776.046,1087.522,29,
1495,1,SBT2050,2,3,,4,21014,3.60354,-2.9358,2776.046,1117.697,29.1,
1495,1,SBT2050,2,3,,4,21051,3.59303,-2.9359,2776.046,1147.872,29.1,
1495,1,SBT2050,2,3,,4,21088,3.58239,-2.9357,2776.046,1178.047,29.1,
1495,1,SBT2050,2,3,,4,21125,3.57127,-2.9361,2776.046,1208.222,29.1,
1495,1,SBT2050,2,3,,4,21162,3.56046,-2.9362,2776.046,1238.397,29.1,
1495,1,SBT2050,2,3,,4,21199,3.54928,-2.9361,2776.046,1268.573,29.1,
1495,1,SBT2050,2,3,,4,21236,3.53864,-2.9362,2776.046,1298.748,29.1,
1495,1,SBT2050,2,3,,4,21273,3.52764,-2.936,2776.046,1328.923,29.2,
1495,1,SBT2050,2,3,,4,21310,3.51668,-2.9359,2776.046,1359.098,29.2,
1495,1,SBT2050,2,3,,4,21347,3.50599,-2.9361,2776.046,1389.273,29.2,
1495,1,SBT2050,2,3,,4,21384,3.495,-2.9359,2776.046,1419.448,29.2,
1495,1,SBT2050,2,3,,4,21421,3.48442,-2.9362,2776.046,1449.623,29.2,
1495,1,SBT2050,2,3,,4,21458,3.47357,-2.936,2776.046,1479.798,29.2,
1495,1,SBT2050,2,3,,4,21495,3.463454,-2.9359,2776.046,1509.973,29.2,
1495,1,SBT2050,2,3,,4,21532,3.4534,-2.9357,2776.046,1540.149,29.3,
1495,1,SBT2050,2,3,,4,21569,3.44347,-2.9362,2776.046,1570.324,29.3,
1495,1,SBT2050,2,3,,4,21606,3.43335,-2.9362,2776.046,1600.499,29.3,
1495,1,SBT2050,2,3,,4,21643,3.42374,-2.9362,2776.046,1630.674,29.3,
1495,1,SBT2050,2,3,,4,21680,3.41434,-2.9357,2776.046,1660.849,29.3,
1495,1,SBT2050,2,3,,4,21717,3.404476,-2.936,2776.046,1691.024,29.4,
1495,1,SBT2050,2,3,,4,21754,3.39498,-2.9359,2776.046,1721.199,29.4,
1495,1,SBT2050,2,3,,4,21791,3.385762,-2.9357,2776.046,1751.375,29.4,
1495,1,SBT2050,2,3,,4,21828,3.37643,-2.9364,2776.046,1781.55,29.5,
1495,1,SBT2050,2,3,,4,21865,3.36659,-2.9362,2776.046,1811.725,29.5,
1495,1,SBT2050,2,3,,4,21902,3.35731,-2.9357,2776.046,1841.9,29.5,
1495,1,SBT2050,2,3,,4,21939,3.347337,-2.9361,2776.046,1872.075,29.6,
1495,1,SBT2050,2,3,,4,21976,3.33734,-2.936,2776.046,1902.25,29.6,
1495,1,SBT2050,2,3,,4,22013,3.32755,-2.936,2776.046,1932.425,29.7,
1495,1,SBT2050,2,3,,4,22050,3.31733,-2.9359,2776.046,1962.6,29.7,
1495,1,SBT2050,2,3,,4,22087,3.30663,-2.9353,2776.046,1992.775,29.7,
1495,1,SBT2050,2,3,,4,22124,3.29551,-2.9362,2776.046,2022.951,29.8,
1495,1,SBT2050,2,3,,4,22161,3.28427,-2.9359,2776.046,2053.126,29.8,
1495,1,SBT2050,2,3,,4,22198,3.27259,-2.9359,2776.046,2083.301,29.9,
1495,1,SBT2050,2,3,,4,22235,3.26024,-2.9355,2776.046,2113.476,30,
1495,1,SBT2050,2,3,,4,22272,3.247426,-2.9359,2776.046,2143.651,30.1,
1495,1,SBT2050,2,3,,4,22309,3.23347,-2.9359,2776.046,2173.826,30.1,
1495,1,SBT2050,2,3,,4,22346,3.219009,-2.9359,2776.046,2204.001,30.2,
1495,1,SBT2050,2,3,,4,22383,3.20385,-2.9356,2776.046,2234.176,30.4,
1495,1,SBT2050,2,3,,4,22420,3.18744,-2.9359,2776.046,2264.351,30.4,
1495,1,SBT2050,2,3,,4,22457,3.17,-2.9361,2776.046,2294.527,30.6,
1495,1,SBT2050,2,3,,4,22494,3.15154,-2.9358,2776.046,2324.702,30.7,
1495,1,SBT2050,2,3,,4,22531,3.13143,-2.9359,2776.046,2354.877,30.8,
1495,1,SBT2050,2,3,,4,22568,3.109722,-2.9358,2776.046,2385.052,30.9,
1495,1,SBT2050,2,3,,4,22605,3.08632,-2.9359,2776.046,2415.227,31.1,
1495,1,SBT2050,2,3,,4,22642,3.0611,-2.9361,2776.046,2445.402,31.3,
1495,1,SBT2050,2,3,,4,22679,3.033759,-2.9358,2776.046,2475.577,31.6,
1495,1,SBT2050,2,3,,4,22716,3.003655,-2.9365,2776.046,2505.752,31.8,
1495,1,SBT2050,2,3,,4,22753,2.97081,-2.936,2776.046,2535.928,32,
1495,1,SBT2050,2,3,,4,22790,2.93336,-2.9359,2776.046,2566.103,32.3,
1495,1,SBT2050,2,3,,4,22827,2.89345,-2.9362,2776.046,2596.278,32.6,
1495,1,SBT2050,2,3,,4,22864,2.85038,-2.9359,2776.046,2626.453,32.9,
1495,1,SBT2050,2,3,,4,22901,2.80046,-2.9365,2776.046,2656.628,33.3,
1495,1,SBT2050,2,3,,4,22938,2.73988,-2.9362,2776.046,2686.804,33.7,
1495,1,SBT2050,2,3,,4,22975,2.66402,-2.9364,2776.046,2716.979,34.3,
1495,1,SBT2050,2,3,,4,23012,2.562996,-2.9355,2776.046,2747.154,34.9,
1495,1,SBT2050,2,3,,4,23049,2.49968,-2.5925,2776.046,2776.26,35.6,
1495,1,SBT2050,2,3,,4,23086,2.4997,-2.2354,2776.046,2800.958,36,
1495,1,SBT2050,2,3,,4,23123,2.49999,-1.9569,2776.046,2822.462,36.2,
1495,1,SBT2050,2,3,,4,23160,2.49987,-1.7123,2776.046,2841.288,36.1,
1495,1,SBT2050,2,3,,4,23197,2.49983,-1.4982,2776.046,2857.761,36,
1495,1,SBT2050,2,3,,4,23234,2.49986,-1.3095,2776.046,2872.167,35.5,
1495,1,SBT2050,2,3,,4,23271,2.49981,-1.1476,2776.046,2884.769,35.1,
1495,1,SBT2050,2,3,,4,23308,2.49993,-1.0097,2776.046,2895.836,34.6,
1495,1,SBT2050,2,3,,4,23345,2.49974,-0.8919,2776.046,2905.591,34,
1495,1,SBT2050,2,3,,4,23382,2.49974,-0.7919,2776.046,2914.231,33.5,
1495,1,SBT2050,2,3,,4,23419,2.49984,-0.7072,2776.046,2921.923,32.9,
1495,1,SBT2050,2,3,,4,23456,2.499803,-0.6349,2776.046,2928.814,32.4,
1495,1,SBT2050,2,3,,4,23493,2.499803,-0.5735,2776.046,2935.017,31.8,
1495,1,SBT2050,2,3,,4,23530,2.49974,-0.519,2776.046,2940.627,31.3,
1495,1,SBT2050,2,3,,4,23567,2.4997,-0.47149,2776.046,2945.722,30.8,
1495,1,SBT2050,2,3,,4,23604,2.49986,-0.43153,2776.046,2950.356,30.4,
1495,1,SBT2050,2,3,,4,23641,2.49989,-0.3972,2776.046,2954.608,30,
1495,1,SBT2050,2,3,,4,23678,2.50004,-0.36788,2776.046,2958.536,29.6,
1495,1,SBT2050,2,3,,4,23715,2.49973,-0.34287,2776.046,2962.186,29.3,
1495,1,SBT2050,2,3,,4,23752,2.49998,-0.32115,2776.046,2965.595,29,
1495,1,SBT2050,2,3,,4,23789,2.499958,-0.30189,2776.046,2968.795,28.7,
1495,1,SBT2050,2,3,,4,23826,2.49987,-0.28498,2776.046,2971.809,28.5,
1495,1,SBT2050,2,3,,4,23863,2.49985,-0.26944,2776.046,2974.656,28.2,
1495,1,SBT2050,2,3,,4,23900,2.499779,-0.25517,2776.046,2977.351,28,
1495,1,SBT2050,2,3,,4,23937,2.50005,-0.24235,2776.046,2979.908,27.8,
1495,1,SBT2050,2,3,,4,23974,2.49987,-0.23048,2776.046,2982.338,27.6,
1495,1,SBT2050,2,3,,4,24011,2.499958,-0.21939,2776.046,2984.651,27.4,
1495,1,SBT2050,2,3,,4,24048,2.49989,-0.20933,2776.046,2986.855,27.3,
1495,1,SBT2050,2,3,,4,24085,2.49989,-0.19967,2776.046,2988.957,27.2,
1495,1,SBT2050,2,3,,4,24122,2.49999,-0.19031,2776.046,2990.961,27.1,
1495,1,SBT2050,2,3,,4,24159,2.49985,-0.18149,2776.046,2992.871,26.9,
1495,1,SBT2050,2,3,,4,24196,2.4999,-0.17289,2776.046,2994.692,26.8,
1495,1,SBT2050,2,3,,4,24233,2.499946,-0.1648,2776.046,2996.427,26.7,
1495,1,SBT2050,2,3,,4,24270,2.49974,-0.15707,2776.046,2998.081,26.6,
1495,1,SBT2050,2,3,,4,24307,2.499958,-0.14951,2776.046,2999.656,26.6,
1495,1,SBT2050,2,3,,4,24344,2.49986,-0.14246,2776.046,3001.156,26.5,
1495,1,SBT2050,2,3,,4,24381,2.49999,-0.13541,2776.046,3002.582,26.4,
1495,1,SBT2050,2,3,,4,24418,2.49999,-0.12853,2776.046,3003.938,26.4,
1495,1,SBT2050,2,3,,4,24455,2.49983,-0.122,2776.046,3005.225,26.3,
1495,1,SBT2050,2,3,,4,24492,2.4999,-0.11558,2776.046,3006.445,26.2,
1495,1,SBT2050,2,3,,4,24529,2.50004,-0.10944,2776.046,3007.601,26.2,
1495,1,SBT2050,2,3,,4,24566,2.49986,-0.10337,2776.046,3008.695,26.1,
1495,1,SBT2050,2,3,,4,24603,2.4999,-0.09779,2776.046,3009.729,26.1,
1495,1,SBT2050,2,3,,4,24640,2.499958,-0.09236,2776.046,3010.706,26.1,
1495,1,SBT2050,2,3,,4,24677,2.49999,-0.08728,2776.046,3011.629,26,
1495,1,SBT2050,2,3,,4,24714,2.4997,-0.08189,2776.046,3012.498,26,
1495,1,SBT2050,2,3,,4,24751,2.50014,-0.07753,2776.046,3013.318,25.9,
1495,1,SBT2050,2,3,,4,24788,2.49991,-0.07294,2776.046,3014.09,25.9,
1495,1,SBT2050,2,3,,4,24825,2.49997,-0.06886,2776.046,3014.817,25.9,
1495,1,SBT2050,2,3,,4,24862,2.499803,-0.06485,2776.046,3015.502,25.9,
1495,1,SBT2050,2,3,,4,24899,2.49991,-0.06139,2776.046,3016.15,25.8,
1495,1,SBT2050,2,3,,4,24936,2.50003,-0.05817,2776.046,3016.764,25.8,
1495,1,SBT2050,2,3,,4,24973,2.49999,-0.05518,2776.046,3017.346,25.8,
1495,1,SBT2050,2,3,,4,25010,2.50007,-0.05254,2776.046,3017.899,25.7,
1495,1,SBT2050,2,3,,4,25047,2.49991,-0.05012,2776.046,3018.427,25.7,
1495,1,SBT2050,2,3,,4,25084,2.49999,-0.04789,2776.046,3018.931,25.6,
1495,1,SBT2050,2,3,,4,25121,2.50001,-0.045937,2776.046,3019.412,25.7,
1495,1,SBT2050,2,3,,4,25158,2.50004,-0.043838,2776.046,3019.873,25.6,
1495,1,SBT2050,2,3,,4,25195,2.49999,-0.042112,2776.046,3020.315,25.7,
1495,1,SBT2050,2,3,,4,25232,2.50001,-0.040271,2776.046,3020.738,25.6,
1495,1,SBT2050,2,3,,4,25269,2.50002,-0.038895,2776.046,3021.145,25.6,
1495,1,SBT2050,2,3,,4,25306,2.50001,-0.037294,2776.046,3021.536,25.6,
1495,1,SBT2050,2,3,,4,25343,2.49993,-0.035936,2776.046,3021.913,25.6,
1495,1,SBT2050,2,3,,4,25380,2.49997,-0.034572,2776.046,3022.275,25.5,
1495,1,SBT2050,2,3,,4,25417,2.50008,-0.033361,2776.046,3022.624,25.5,
1495,1,SBT2050,2,3,,4,25454,2.500101,-0.03202,2776.046,3022.96,25.5,
1495,1,SBT2050,2,3,,4,25491,2.49991,-0.030941,2776.046,3023.284,25.5,
1495,1,SBT2050,2,3,,4,25528,2.49997,-0.029783,2776.046,3023.597,25.5,
1495,1,SBT2050,2,3,,4,25565,2.49989,-0.028719,2776.046,3023.899,25.5,
1495,1,SBT2050,2,3,,4,25602,2.50004,-0.027888,2776.046,3024.19,25.5,
1495,1,SBT2050,2,3,,4,25639,2.50007,-0.027061,2776.046,3024.472,25.5,
1495,1,SBT2050,2,3,,4,25676,2.50005,-0.026191,2776.046,3024.744,25.5,
1495,1,SBT2050,2,3,,4,25713,2.49998,-0.025182,2776.046,3025.008,25.5,
1495,1,SBT2050,2,3,,4,25750,2.49993,-0.024425,2776.046,3025.263,25.5,
1495,1,SBT2050,2,3,,4,25787,2.49998,-0.023758,2776.046,3025.51,25.5,
1495,1,SBT2050,2,3,,4,25824,2.499946,-0.022975,2776.046,3025.749,25.5,
1495,1,SBT2050,2,3,,4,25861,2.50002,-0.022264,2776.046,3025.982,25.5,
1495,1,SBT2050,2,3,,4,25898,2.49989,-0.021574,2776.046,3026.207,25.5,
1495,1,SBT2050,2,3,,4,25935,2.50009,-0.021036,2776.046,3026.426,25.4,
1495,1,SBT2050,2,3,,4,25972,2.49997,-0.020247,2776.046,3026.638,25.4,
1495,1,SBT2050,2,3,,4,26009,2.49992,-0.019704,2776.046,3026.844,25.4,
1495,1,SBT2050,2,3,,4,26046,2.49981,-0.019106,2776.046,3027.044,25.4,
1495,1,SBT2050,2,3,,4,26083,2.49997,-0.018619,2776.046,3027.238,25.4,
1495,1,SBT2050,2,3,,4,26120,2.50003,-0.018054,2776.046,3027.426,25.4,
1495,1,SBT2050,2,3,,4,26157,2.50008,-0.017375,2776.046,3027.607,25.4,
1495,1,SBT2050,2,3,,4,26194,2.49989,-0.016866,2776.046,3027.784,25.4,
1495,1,SBT2050,2,3,,4,26231,2.49997,-0.016268,2776.046,3027.954,25.4,
1495,1,SBT2050,2,3,,4,26268,2.50003,-0.015783,2776.046,3028.119,25.4,
1495,1,SBT2050,2,3,,4,26305,2.49999,-0.015247,2776.046,3028.279,25.4,
1495,1,SBT2050,2,3,,4,26342,2.49993,-0.014838,2776.046,3028.433,25.4,
1495,1,SBT2050,2,3,,4,26379,2.499958,-0.014283,2776.046,3028.582,25.4,
1495,1,SBT2050,2,3,,4,26416,2.50005,-0.013818,2776.046,3028.726,25.4,
1495,1,SBT2050,2,3,,4,26453,2.4999,-0.013228,2776.046,3028.865,25.4,
1495,1,SBT2050,2,3,,4,26490,2.50005,-0.012878,2776.046,3028.999,25.4,
1495,1,SBT2050,2,3,,4,26527,2.50016,-0.012557,2776.046,3029.129,25.4,
1495,1,SBT2050,2,3,,4,26564,2.50003,-0.011947,2776.046,3029.254,25.4,
1495,1,SBT2050,2,3,,4,26601,2.49993,-0.011529,2776.046,3029.375,25.4,
1495,1,SBT2050,2,3,,4,26638,2.49998,-0.011117,2776.046,3029.492,25.4,
1495,1,SBT2050,2,3,,4,26675,2.49993,-0.010811,2776.046,3029.605,25.4,
1495,1,SBT2050,2,3,,4,26712,2.499946,-0.010474,2776.046,3029.715,25.4,
1495,1,SBT2050,2,3,,4,26749,2.500101,-0.010303,2776.046,3029.822,25.4,
1495,1,SBT2050,2,3,,5,26785,2.52262,0,2776.046,3029.843,25.4,
1495,1,SBT2050,2,3,,5,26822,2.54278,0,2776.046,3029.843,25.3,
1495,1,SBT2050,2,3,,5,26859,2.56051,0,2776.046,3029.843,25.4,
1495,1,SBT2050,2,3,,5,26896,2.57625,0,2776.046,3029.843,25.4,
1495,1,SBT2050,2,3,,5,26933,2.59022,0,2776.046,3029.843,25.4,
1495,1,SBT2050,2,3,,5,26970,2.60325,0,2776.046,3029.843,25.3,
1495,1,SBT2050,2,3,,5,27007,2.61524,0,2776.046,3029.843,25.4,
1495,1,SBT2050,2,3,,5,27044,2.62611,0,2776.046,3029.843,25.4,
1495,1,SBT2050,2,3,,5,27081,2.636159,0,2776.046,3029.843,25.3,
1495,1,SBT2050,2,3,,5,27118,2.64548,0,2776.046,3029.843,25.3,
1495,1,SBT2050,2,3,,5,27155,2.65365,0,2776.046,3029.843,25.3,
1495,1,SBT2050,2,3,,5,27192,2.661528,0,2776.046,3029.843,25.4,
1495,1,SBT2050,2,3,,5,27229,2.6686,0,2776.046,3029.843,25.4,
1495,1,SBT2050,2,3,,5,27266,2.67502,0,2776.046,3029.843,25.3,
1495,1,SBT2050,2,3,,5,27303,2.681622,0,2776.046,3029.843,25.3,
1495,1,SBT2050,2,3,,5,27340,2.68765,0,2776.046,3029.843,25.3,
1495,1,SBT2050,2,3,,5,27377,2.693057,0,2776.046,3029.843,25.3,
1495,1,SBT2050,2,3,,5,27414,2.69841,0,2776.046,3029.843,25.3,
1495,1,SBT2050,2,3,,5,27451,2.7031,0,2776.046,3029.843,25.3,
1495,1,SBT2050,2,3,,5,27488,2.70787,0,2776.046,3029.843,25.3,
1495,1,SBT2050,2,3,,5,27525,2.71232,0,2776.046,3029.843,25.3,
1495,1,SBT2050,2,3,,5,27562,2.71668,0,2776.046,3029.843,25.2,
1495,1,SBT2050,2,3,,5,27599,2.72067,0,2776.046,3029.843,25.3,
1495,1,SBT2050,2,3,,5,27636,2.72448,0,2776.046,3029.843,25.3,
1495,1,SBT2050,2,3,,5,27673,2.728012,0,2776.046,3029.843,25.3,
1495,1,SBT2050,2,3,,5,27710,2.73135,0,2776.046,3029.843,25.3,
1495,1,SBT2050,2,3,,5,27747,2.7347,0,2776.046,3029.843,25.3,
1495,1,SBT2050,2,3,,5,27784,2.73802,0,2776.046,3029.843,25.3,
1495,1,SBT2050,2,3,,5,27821,2.74094,0,2776.046,3029.843,25.3,
1495,1,SBT2050,2,3,,5,27858,2.743739,0,2776.046,3029.843,25.2,
1495,1,SBT2050,2,3,,5,27895,2.74668,0,2776.046,3029.843,25.2,
1495,1,SBT2050,2,3,,5,27932,2.74933,0,2776.046,3029.843,25.2,
1495,1,SBT2050,2,3,,5,27969,2.75176,0,2776.046,3029.843,25.3,
1495,1,SBT2050,2,3,,5,28006,2.75417,0,2776.046,3029.843,25.3,
1495,1,SBT2050,2,3,,5,28043,2.75647,0,2776.046,3029.843,25.3,
1495,1,SBT2050,2,3,,5,28080,2.758679,0,2776.046,3029.843,25.3,
1495,1,SBT2050,2,3,,5,28117,2.76115,0,2776.046,3029.843,25.2,
1495,1,SBT2050,2,3,,5,28154,2.76312,0,2776.046,3029.843,25.2,
1495,1,SBT2050,2,3,,5,28191,2.76516,0,2776.046,3029.843,25.2,
1495,1,SBT2050,2,3,,5,28228,2.76703,0,2776.046,3029.843,25.2,
1495,1,SBT2050,2,3,,5,28265,2.76883,0,2776.046,3029.843,25.2,
1495,1,SBT2050,2,3,,5,28302,2.77057,0,2776.046,3029.843,25.2,
1495,1,SBT2050,2,3,,5,28339,2.77217,0,2776.046,3029.843,25.2,
1495,1,SBT2050,2,3,,5,28376,2.77421,0,2776.046,3029.843,25.2,
1495,1,SBT2050,2,3,,5,28413,2.77561,0,2776.046,3029.843,25.2,
1495,1,SBT2050,2,3,,5,28450,2.777234,0,2776.046,3029.843,25.2,
1495,1,SBT2050,2,3,,5,28487,2.778779,0,2776.046,3029.843,25.2,
1495,1,SBT2050,2,3,,5,28524,2.78056,0,2776.046,3029.843,25.2,
1495,1,SBT2050,2,3,,5,28556.48,2.78184,-0.0001,2776.046,3029.843,,