File: ORRG/Test1514.csv
Request Year:,2018,,,,,,,,,,,,
Test:,1514,,,,,,,,,,,,
Test Description:,,,,,,,,,,,,,
TestRegime Name:,Aging_Performance,,,,,,,,,,,,
TestRegime Suffix:,SHP_LC,,,,,,,,,,,,
TestRegime CellSize:,18650,,,,,,,,,,,,
TestRegime Version:,1,,,,,,,,,,,,
Number Of Cells:,1,,,,,,,,,,,,
LotID:,,,,,,,,,,,,,
Lot Description:,,,,,,,,,,,,,
Date Made:,1/21/2003 12:00 AM,,,,,,,,,,,,
Origin:,Other,,,,,,,,,,,,
Requestor:,Admin,,,,,,,,,,,,
Product ID:,Default product,,,,,,,,,,,,
Storage Temp:,R.T./AMB,,,,,,,,,,,,
Storage Delay:,0 days,,,,,,,,,,,,
Test Temp:,R.T./AMB,,,,,,,,,,,,
Start Time:,4/19/2018 3:41 PM,,,,,,,,,,,,
End Time:,4/20/2018 12:49 AM,,,,,,,,,,,,
Operator Instructions:,,,,,,,,,,,,,
Test,Cell,Rack,Shelf,Position,Cell ID,Step,Total Time (Seconds),Voltage (V),Current (A),Charge Capacity (mAh),Discharge Capacity (mAh),TC1 (Â°C),
1514,1,SBT2050,2,3,,0,1,3.34556,0,0,0,24.7,
1514,1,SBT2050,2,3,,0,44,3.34578,0,0,0,24.7,
1514,1,SBT2050,2,3,,0,87,3.34553,0,0,0,24.8,
1514,1,SBT2050,2,3,,0,130,3.34556,0,0,0,24.9,
1514,1,SBT2050,2,3,,0,173,3.34567,0,0,0,25,
1514,1,SBT2050,2,3,,0,216,3.34579,0,0,0,25,
1514,1,SBT2050,2,3,,0,259,3.345732,0,0,0,25,
1514,1,SBT2050,2,3,,1,302,3.0204,-2.9359,0,1.63,25.1,
1514,1,SBT2050,2,3,,1,345,2.49951,-1.7379,0,30.996,26.4,
1514,1,SBT2050,2,3,,1,388,2.49975,-1.3942,0,49.347,27.5,
1514,1,SBT2050,2,3,,1,431,2.499819,-1.2126,0,64.865,28.2,
1514,1,SBT2050,2,3,,1,474,2.4999,-1.0665,0,78.467,28.6,
1514,1,SBT2050,2,3,,1,517,2.49978,-0.9328,0,90.378,28.8,
1514,1,SBT2050,2,3,,1,560,2.499819,-0.8277,0,100.866,28.9,
1514,1,SBT2050,2,3,,1,603,2.49983,-0.7428,0,110.229,29,
1514,1,SBT2050,2,3,,1,646,2.49987,-0.671,0,118.66,28.9,
1514,1,SBT2050,2,3,,1,689,2.49995,-0.6078,0,126.289,28.8,
1514,1,SBT2050,2,3,,1,732,2.49978,-0.5534,0,133.22,28.7,
1514,1,SBT2050,2,3,,1,775,2.50005,-0.5053,0,139.535,28.5,
1514,1,SBT2050,2,3,,1,818,2.49989,-0.46059,0,145.301,28.4,
1514,1,SBT2050,2,3,,1,861,2.50003,-0.42323,0,150.575,28.1,
1514,1,SBT2050,2,3,,1,904,2.499962,-0.39054,0,155.43,28,
1514,1,SBT2050,2,3,,1,947,2.49993,-0.36201,0,159.921,27.9,
1514,1,SBT2050,2,3,,1,990,2.50002,-0.33703,0,164.09,27.7,
1514,1,SBT2050,2,3,,1,1033,2.49988,-0.3141,0,167.974,27.5,
1514,1,SBT2050,2,3,,1,1076,2.49984,-0.29405,0,171.603,27.4,
1514,1,SBT2050,2,3,,1,1119,2.49999,-0.27595,0,175.005,27.3,
1514,1,SBT2050,2,3,,1,1162,2.49978,-0.25971,0,178.205,27.1,
1514,1,SBT2050,2,3,,1,1205,2.49985,-0.24579,0,181.225,27,
1514,1,SBT2050,2,3,,1,1248,2.49988,-0.23338,0,184.086,26.9,
1514,1,SBT2050,2,3,,1,1291,2.49988,-0.2215,0,186.803,26.8,
1514,1,SBT2050,2,3,,1,1334,2.49993,-0.21101,0,189.388,26.7,
1514,1,SBT2050,2,3,,1,1377,2.49985,-0.20132,0,191.852,26.6,
1514,1,SBT2050,2,3,,1,1420,2.49984,-0.19258,0,194.206,26.5,
1514,1,SBT2050,2,3,,1,1463,2.50001,-0.18447,0,196.456,26.5,
1514,1,SBT2050,2,3,,1,1506,2.49984,-0.17685,0,198.613,26.4,
1514,1,SBT2050,2,3,,1,1549,2.49984,-0.17001,0,200.685,26.3,
1514,1,SBT2050,2,3,,1,1592,2.49989,-0.16367,0,202.679,26.2,
1514,1,SBT2050,2,3,,1,1635,2.50002,-0.15785,0,204.6,26.2,
1514,1,SBT2050,2,3,,1,1678,2.4999,-0.15213,0,206.452,26.1,
1514,1,SBT2050,2,3,,1,1721,2.50021,-0.14711,0,208.239,26.1,
1514,1,SBT2050,2,3,,1,1764,2.5,-0.14192,0,209.964,26,
1514,1,SBT2050,2,3,,1,1807,2.499974,-0.13707,0,211.631,26,
1514,1,SBT2050,2,3,,1,1850,2.499819,-0.13273,0,213.243,25.9,
1514,1,SBT2050,2,3,,1,1893,2.49999,-0.12866,0,214.803,25.9,
1514,1,SBT2050,2,3,,1,1936,2.49993,-0.12457,0,216.314,25.9,
1514,1,SBT2050,2,3,,1,1979,2.50006,-0.12104,0,217.78,25.9,
1514,1,SBT2050,2,3,,1,2022,2.49985,-0.11718,0,219.202,25.8,
1514,1,SBT2050,2,3,,1,2065,2.499962,-0.11357,0,220.58,25.8,
1514,1,SBT2050,2,3,,1,2108,2.50006,-0.1103,0,221.916,25.7,
1514,1,SBT2050,2,3,,1,2151,2.50006,-0.10691,0,223.212,25.7,
1514,1,SBT2050,2,3,,1,2194,2.49995,-0.10364,0,224.469,25.7,
1514,1,SBT2050,2,3,,1,2237,2.49987,-0.10051,0,225.69,25.7,
1514,1,SBT2050,2,3,,1,2280,2.499974,-0.09765,0,226.876,25.7,
1514,1,SBT2050,2,3,,1,2323,2.50006,-0.09501,0,228.028,25.6,
1514,1,SBT2050,2,3,,1,2366,2.50009,-0.09237,0,229.146,25.6,
1514,1,SBT2050,2,3,,1,2409,2.49993,-0.08952,0,230.232,25.6,
1514,1,SBT2050,2,3,,1,2452,2.49989,-0.087,0,231.287,25.6,
1514,1,SBT2050,2,3,,1,2495,2.50005,-0.08468,0,232.313,25.6,
1514,1,SBT2050,2,3,,1,2538,2.50005,-0.08251,0,233.311,25.6,
1514,1,SBT2050,2,3,,1,2581,2.4997,-0.07987,0,234.281,25.5,
1514,1,SBT2050,2,3,,1,2624,2.49993,-0.07766,0,235.224,25.5,
1514,1,SBT2050,2,3,,1,2667,2.50009,-0.07559,0,236.141,25.5,
1514,1,SBT2050,2,3,,1,2710,2.499795,-0.07352,0,237.033,25.5,
1514,1,SBT2050,2,3,,1,2753,2.49984,-0.07165,0,237.901,25.5,
1514,1,SBT2050,2,3,,1,2796,2.49987,-0.06968,0,238.746,25.5,
1514,1,SBT2050,2,3,,1,2839,2.499974,-0.06784,0,239.568,25.4,
1514,1,SBT2050,2,3,,1,2882,2.49983,-0.06595,0,240.368,25.4,
1514,1,SBT2050,2,3,,1,2925,2.49999,-0.06428,0,241.146,25.4,
1514,1,SBT2050,2,3,,1,2968,2.49988,-0.06228,0,241.901,25.4,
1514,1,SBT2050,2,3,,1,3011,2.49984,-0.06068,0,242.636,25.4,
1514,1,SBT2050,2,3,,1,3054,2.50005,-0.05903,0,243.35,25.4,
1514,1,SBT2050,2,3,,1,3097,2.50002,-0.05726,0,244.045,25.3,
1514,1,SBT2050,2,3,,1,3140,2.50003,-0.05556,0,244.719,25.4,
1514,1,SBT2050,2,3,,1,3183,2.499974,-0.05383,0,245.373,25.4,
1514,1,SBT2050,2,3,,1,3226,2.499807,-0.05246,0,246.008,25.4,
1514,1,SBT2050,2,3,,1,3269,2.50003,-0.05092,0,246.625,25.4,
1514,1,SBT2050,2,3,,1,3312,2.50003,-0.04942,0,247.224,25.3,
1514,1,SBT2050,2,3,,1,3355,2.50008,-0.04799,0,247.806,25.3,
1514,1,SBT2050,2,3,,1,3398,2.4999,-0.046534,0,248.371,25.3,
1514,1,SBT2050,2,3,,1,3441,2.50001,-0.045266,0,248.919,25.3,
1514,1,SBT2050,2,3,,1,3484,2.49991,-0.043838,0,249.451,25.3,
1514,1,SBT2050,2,3,,1,3527,2.500117,-0.042692,0,249.967,25.3,
1514,1,SBT2050,2,3,,1,3570,2.499974,-0.041433,0,250.469,25.3,
1514,1,SBT2050,2,3,,1,3613,2.500117,-0.040321,0,250.956,25.3,
1514,1,SBT2050,2,3,,1,3656,2.499962,-0.039011,0,251.43,25.3,
1514,1,SBT2050,2,3,,1,3699,2.50009,-0.037906,0,251.889,25.3,
1514,1,SBT2050,2,3,,1,3742,2.5,-0.036671,0,252.334,25.4,
1514,1,SBT2050,2,3,,1,3785,2.50005,-0.035641,0,252.766,25.4,
1514,1,SBT2050,2,3,,1,3828,2.49993,-0.034331,0,253.184,25.4,
1514,1,SBT2050,2,3,,1,3871,2.49989,-0.033489,0,253.589,25.4,
1514,1,SBT2050,2,3,,1,3914,2.50018,-0.032197,0,253.982,25.4,
1514,1,SBT2050,2,3,,1,3957,2.50005,-0.031259,0,254.361,25.4,
1514,1,SBT2050,2,3,,1,4000,2.49988,-0.029997,0,254.727,25.4,
1514,1,SBT2050,2,3,,1,4043,2.49989,-0.029038,0,255.081,25.4,
1514,1,SBT2050,2,3,,1,4086,2.50007,-0.028143,0,255.421,25.4,
1514,1,SBT2050,2,3,,1,4129,2.50006,-0.027016,0,255.75,25.5,
1514,1,SBT2050,2,3,,1,4172,2.4999,-0.026155,0,256.067,25.5,
1514,1,SBT2050,2,3,,1,4215,2.50001,-0.025162,0,256.373,25.5,
1514,1,SBT2050,2,3,,1,4258,2.499974,-0.024206,0,256.669,25.5,
1514,1,SBT2050,2,3,,1,4301,2.499962,-0.023397,0,256.954,25.5,
1514,1,SBT2050,2,3,,1,4344,2.50001,-0.022716,0,257.23,25.5,
1514,1,SBT2050,2,3,,1,4387,2.500141,-0.021921,0,257.497,25.5,
1514,1,SBT2050,2,3,,1,4430,2.49991,-0.021325,0,257.755,25.5,
1514,1,SBT2050,2,3,,1,4473,2.49993,-0.020519,0,258.004,25.5,
1514,1,SBT2050,2,3,,1,4516,2.499807,-0.019764,0,258.246,25.5,
1514,1,SBT2050,2,3,,1,4559,2.50019,-0.019347,0,258.479,25.5,
1514,1,SBT2050,2,3,,1,4602,2.50005,-0.018514,0,258.704,25.5,
1514,1,SBT2050,2,3,,1,4645,2.50005,-0.017991,0,258.922,25.5,
1514,1,SBT2050,2,3,,1,4688,2.50006,-0.017338,0,259.132,25.5,
1514,1,SBT2050,2,3,,1,4731,2.49991,-0.016569,0,259.335,25.5,
1514,1,SBT2050,2,3,,1,4774,2.5,-0.016228,0,259.531,25.5,
1514,1,SBT2050,2,3,,1,4817,2.50002,-0.015555,0,259.72,25.5,
1514,1,SBT2050,2,3,,1,4860,2.499962,-0.014901,0,259.902,25.5,
1514,1,SBT2050,2,3,,1,4903,2.49969,-0.014264,0,260.077,25.5,
1514,1,SBT2050,2,3,,1,4946,2.50008,-0.013978,0,260.247,25.5,
1514,1,SBT2050,2,3,,1,4989,2.50005,-0.013382,0,260.411,25.5,
1514,1,SBT2050,2,3,,1,5032,2.4996,-0.012836,0,260.57,25.5,
1514,1,SBT2050,2,3,,1,5075,2.49988,-0.012521,0,260.723,25.5,
1514,1,SBT2050,2,3,,1,5118,2.49993,-0.012204,0,260.871,25.5,
1514,1,SBT2050,2,3,,1,5161,2.50003,-0.01178,0,261.015,25.5,
1514,1,SBT2050,2,3,,1,5204,2.499962,-0.011386,0,261.154,25.5,
1514,1,SBT2050,2,3,,1,5247,2.50005,-0.011329,0,261.289,25.5,
1514,1,SBT2050,2,3,,1,5290,2.50002,-0.010804,0,261.42,25.5,
1514,1,SBT2050,2,3,,1,5333,2.50002,-0.010509,0,261.548,25.5,
1514,1,SBT2050,2,3,,1,5376,2.49991,-0.010207,0,261.671,25.5,
1514,1,SBT2050,2,3,,2,5418,3.36534,2.9358,31.567,261.681,25.7,
1514,1,SBT2050,2,3,,2,5461,3.51375,2.936,66.636,261.681,26.1,
1514,1,SBT2050,2,3,,2,5504,3.5958,2.9357,101.704,261.681,26.6,
1514,1,SBT2050,2,3,,2,5547,3.62085,2.9356,136.772,261.681,27.1,
1514,1,SBT2050,2,3,,2,5590,3.63078,2.936,171.84,261.681,27.6,
1514,1,SBT2050,2,3,,2,5633,3.64183,2.9361,206.909,261.681,28.1,
1514,1,SBT2050,2,3,,2,5676,3.65314,2.9359,241.977,261.681,28.5,
1514,1,SBT2050,2,3,,2,5719,3.66407,2.9355,277.045,261.681,28.9,
1514,1,SBT2050,2,3,,2,5762,3.67444,2.9359,312.113,261.681,29.2,
1514,1,SBT2050,2,3,,2,5805,3.684548,2.9364,347.181,261.681,29.5,
1514,1,SBT2050,2,3,,2,5848,3.69341,2.9359,382.25,261.681,29.7,
1514,1,SBT2050,2,3,,2,5891,3.70106,2.9361,417.318,261.681,29.9,
1514,1,SBT2050,2,3,,2,5934,3.70735,2.9358,452.386,261.681,30,
1514,1,SBT2050,2,3,,2,5977,3.71365,2.936,487.454,261.681,30.1,
1514,1,SBT2050,2,3,,2,6020,3.71908,2.9357,522.522,261.681,30.2,
1514,1,SBT2050,2,3,,2,6063,3.72476,2.9361,557.59,261.681,30.2,
1514,1,SBT2050,2,3,,2,6106,3.73097,2.9358,592.658,261.681,30.3,
1514,1,SBT2050,2,3,,2,6149,3.73741,2.9361,627.726,261.681,30.3,
1514,1,SBT2050,2,3,,2,6192,3.74455,2.9361,662.795,261.681,30.3,
1514,1,SBT2050,2,3,,2,6235,3.75194,2.9361,697.863,261.681,30.3,
1514,1,SBT2050,2,3,,2,6278,3.75897,2.9362,732.931,261.681,30.3,
1514,1,SBT2050,2,3,,2,6321,3.76658,2.9362,767.999,261.681,30.3,
1514,1,SBT2050,2,3,,2,6364,3.77404,2.9363,803.067,261.681,30.3,
1514,1,SBT2050,2,3,,2,6407,3.78134,2.9356,838.135,261.681,30.3,
1514,1,SBT2050,2,3,,2,6450,3.78877,2.936,873.204,261.681,30.3,
1514,1,SBT2050,2,3,,2,6493,3.79639,2.9362,908.272,261.681,30.3,
1514,1,SBT2050,2,3,,2,6536,3.804208,2.9359,943.34,261.681,30.3,
1514,1,SBT2050,2,3,,2,6579,3.81228,2.9357,978.408,261.681,30.3,
1514,1,SBT2050,2,3,,2,6622,3.82085,2.936,1013.476,261.681,30.3,
1514,1,SBT2050,2,3,,2,6665,3.8295,2.9357,1048.544,261.681,30.3,
1514,1,SBT2050,2,3,,2,6708,3.83865,2.9353,1083.613,261.681,30.3,
1514,1,SBT2050,2,3,,2,6751,3.84791,2.9363,1118.681,261.681,30.4,
1514,1,SBT2050,2,3,,2,6794,3.85747,2.936,1153.75,261.681,30.4,
1514,1,SBT2050,2,3,,2,6837,3.867682,2.9361,1188.818,261.681,30.4,
1514,1,SBT2050,2,3,,2,6880,3.87794,2.9359,1223.886,261.681,30.5,
1514,1,SBT2050,2,3,,2,6923,3.88877,2.9362,1258.954,261.681,30.5,
1514,1,SBT2050,2,3,,2,6966,3.90024,2.9365,1294.023,261.681,30.5,
1514,1,SBT2050,2,3,,2,7009,3.9118,2.9358,1329.091,261.681,30.6,
1514,1,SBT2050,2,3,,2,7052,3.92402,2.9358,1364.16,261.681,30.6,
1514,1,SBT2050,2,3,,2,7095,3.93602,2.9361,1399.228,261.681,30.7,
1514,1,SBT2050,2,3,,2,7138,3.94838,2.9359,1434.296,261.681,30.7,
1514,1,SBT2050,2,3,,2,7181,3.96086,2.9361,1469.365,261.681,30.8,
1514,1,SBT2050,2,3,,2,7224,3.97367,2.9362,1504.433,261.681,30.8,
1514,1,SBT2050,2,3,,2,7267,3.98613,2.9358,1539.501,261.681,30.9,
1514,1,SBT2050,2,3,,2,7310,3.998452,2.9358,1574.57,261.681,30.9,
1514,1,SBT2050,2,3,,2,7353,4.01172,2.9356,1609.638,261.681,30.9,
1514,1,SBT2050,2,3,,2,7396,4.02489,2.9363,1644.707,261.681,31,
1514,1,SBT2050,2,3,,2,7439,4.0376,2.9356,1679.775,261.681,31,
1514,1,SBT2050,2,3,,2,7482,4.050918,2.9363,1714.844,261.681,31.1,
1514,1,SBT2050,2,3,,2,7525,4.06367,2.9357,1749.912,261.681,31.1,
1514,1,SBT2050,2,3,,2,7568,4.07677,2.9361,1784.98,261.681,31.2,
1514,1,SBT2050,2,3,,2,7611,4.09004,2.9362,1820.049,261.681,31.2,
1514,1,SBT2050,2,3,,2,7654,4.10357,2.9361,1855.117,261.681,31.3,
1514,1,SBT2050,2,3,,2,7697,4.11663,2.9354,1890.185,261.681,31.3,
1514,1,SBT2050,2,3,,2,7740,4.13021,2.9361,1925.254,261.681,31.3,
1514,1,SBT2050,2,3,,2,7783,4.143304,2.9357,1960.322,261.681,31.4,
1514,1,SBT2050,2,3,,2,7826,4.15018,2.8141,1995.005,261.681,31.4,
1514,1,SBT2050,2,3,,2,7869,4.15006,2.6347,2027.503,261.681,31.4,
1514,1,SBT2050,2,3,,2,7912,4.15013,2.4728,2058.003,261.681,31.3,
1514,1,SBT2050,2,3,,2,7955,4.15021,2.3211,2086.639,261.681,31.1,
1514,1,SBT2050,2,3,,2,7998,4.15017,2.1749,2113.48,261.681,30.9,
1514,1,SBT2050,2,3,,2,8041,4.150118,2.0376,2138.62,261.681,30.7,
1514,1,SBT2050,2,3,,2,8084,4.150142,1.9092,2162.166,261.681,30.5,
1514,1,SBT2050,2,3,,2,8127,4.15009,1.7851,2184.208,261.681,30.3,
1514,1,SBT2050,2,3,,2,8170,4.14993,1.6737,2204.85,261.681,30,
1514,1,SBT2050,2,3,,2,8213,4.15009,1.5689,2224.205,261.681,29.8,
1514,1,SBT2050,2,3,,2,8256,4.15,1.4713,2242.357,261.681,29.5,
1514,1,SBT2050,2,3,,2,8299,4.15009,1.3823,2259.4,261.681,29.3,
1514,1,SBT2050,2,3,,2,8342,4.14997,1.2987,2275.41,261.681,29.1,
1514,1,SBT2050,2,3,,2,8385,4.15008,1.2254,2290.488,261.681,28.9,
1514,1,SBT2050,2,3,,2,8428,4.15008,1.154,2304.69,261.681,28.7,
1514,1,SBT2050,2,3,,2,8471,4.15031,1.0891,2318.086,261.681,28.5,
1514,1,SBT2050,2,3,,2,8514,4.15017,1.0301,2330.746,261.681,28.3,
1514,1,SBT2050,2,3,,2,8557,4.14995,0.9766,2342.727,261.681,28.1,
1514,1,SBT2050,2,3,,2,8600,4.14996,0.9251,2354.082,261.681,28,
1514,1,SBT2050,2,3,,2,8643,4.14999,0.8797,2364.852,261.681,27.8,
1514,1,SBT2050,2,3,,2,8686,4.14984,0.8363,2375.091,261.681,27.7,
1514,1,SBT2050,2,3,,2,8729,4.15009,0.7946,2384.833,261.681,27.5,
1514,1,SBT2050,2,3,,2,8772,4.150106,0.7603,2394.124,261.681,27.4,
1514,1,SBT2050,2,3,,2,8815,4.15003,0.7242,2402.992,261.681,27.3,
1514,1,SBT2050,2,3,,2,8858,4.14987,0.6938,2411.459,261.681,27.2,
1514,1,SBT2050,2,3,,2,8901,4.15013,0.6637,2419.56,261.681,27.1,
1514,1,SBT2050,2,3,,2,8944,4.15009,0.6359,2427.32,261.681,27,
1514,1,SBT2050,2,3,,2,8987,4.15018,0.6097,2434.758,261.681,26.9,
1514,1,SBT2050,2,3,,2,9030,4.1502,0.5858,2441.897,261.681,26.8,
1514,1,SBT2050,2,3,,2,9073,4.14994,0.5635,2448.76,261.681,26.8,
1514,1,SBT2050,2,3,,2,9116,4.15019,0.5421,2455.364,261.681,26.7,
1514,1,SBT2050,2,3,,2,9159,4.14992,0.5229,2461.728,261.681,26.7,
1514,1,SBT2050,2,3,,2,9202,4.150106,0.5042,2467.866,261.681,26.6,
1514,1,SBT2050,2,3,,2,9245,4.14992,0.4872,2473.782,261.681,26.5,
1514,1,SBT2050,2,3,,2,9288,4.14984,0.46976,2479.496,261.681,26.5,
1514,1,SBT2050,2,3,,2,9331,4.15003,0.45486,2485.012,261.681,26.4,
1514,1,SBT2050,2,3,,2,9374,4.15001,0.44081,2490.351,261.681,26.4,
1514,1,SBT2050,2,3,,2,9417,4.15003,0.42754,2495.534,261.681,26.4,
1514,1,SBT2050,2,3,,2,9460,4.150154,0.41427,2500.559,261.681,26.4,
1514,1,SBT2050,2,3,,2,9503,4.149832,0.40298,2505.436,261.681,26.3,
1514,1,SBT2050,2,3,,2,9546,4.15003,0.39113,2510.175,261.681,26.3,
1514,1,SBT2050,2,3,,2,9589,4.15007,0.38005,2514.783,261.681,26.2,
1514,1,SBT2050,2,3,,2,9632,4.15018,0.36928,2519.258,261.681,26.2,
1514,1,SBT2050,2,3,,2,9675,4.15008,0.35951,2523.612,261.681,26.2,
1514,1,SBT2050,2,3,,2,9718,4.15009,0.35006,2527.85,261.681,26.2,
1514,1,SBT2050,2,3,,2,9761,4.15,0.34117,2531.979,261.681,26.2,
1514,1,SBT2050,2,3,,2,9804,4.150106,0.33223,2536,261.681,26.1,
1514,1,SBT2050,2,3,,2,9847,4.14987,0.32393,2539.919,261.681,26.2,
1514,1,SBT2050,2,3,,2,9890,4.14989,0.31621,2543.738,261.681,26.1,
1514,1,SBT2050,2,3,,2,9933,4.14984,0.30829,2547.468,261.681,26.1,
1514,1,SBT2050,2,3,,2,9976,4.150142,0.30101,2551.108,261.681,26.1,
1514,1,SBT2050,2,3,,2,10019,4.1499,0.29404,2554.664,261.681,26.1,
1514,1,SBT2050,2,3,,2,10062,4.150106,0.2865,2558.132,261.681,26,
1514,1,SBT2050,2,3,,2,10105,4.14996,0.27996,2561.519,261.681,26,
1514,1,SBT2050,2,3,,2,10148,4.149796,0.27356,2564.826,261.681,26,
1514,1,SBT2050,2,3,,2,10191,4.14997,0.26679,2568.057,261.681,26,
1514,1,SBT2050,2,3,,2,10234,4.15006,0.26077,2571.212,261.681,26,
1514,1,SBT2050,2,3,,2,10277,4.14989,0.25505,2574.291,261.681,26,
1514,1,SBT2050,2,3,,2,10320,4.14995,0.25003,2577.306,261.681,26,
1514,1,SBT2050,2,3,,2,10363,4.15024,0.24408,2580.257,261.681,26,
1514,1,SBT2050,2,3,,2,10406,4.15009,0.23941,2583.143,261.681,25.9,
1514,1,SBT2050,2,3,,2,10449,4.14992,0.23305,2585.965,261.681,25.9,
1514,1,SBT2050,2,3,,2,10492,4.15003,0.22808,2588.722,261.681,26,
1514,1,SBT2050,2,3,,2,10535,4.15008,0.22336,2591.421,261.681,26,
1514,1,SBT2050,2,3,,2,10578,4.15036,0.21828,2594.055,261.681,26,
1514,1,SBT2050,2,3,,2,10621,4.1502,0.21385,2596.634,261.681,26,
1514,1,SBT2050,2,3,,2,10664,4.14975,0.21057,2599.163,261.681,25.9,
1514,1,SBT2050,2,3,,2,10707,4.14993,0.20461,2601.639,261.681,25.9,
1514,1,SBT2050,2,3,,2,10750,4.15006,0.20112,2604.061,261.681,25.9,
1514,1,SBT2050,2,3,,2,10793,4.15006,0.19692,2606.432,261.681,25.9,
1514,1,SBT2050,2,3,,2,10836,4.1499,0.19246,2608.757,261.681,25.9,
1514,1,SBT2050,2,3,,2,10879,4.149808,0.18893,2611.036,261.681,25.9,
1514,1,SBT2050,2,3,,2,10922,4.150106,0.18485,2613.274,261.681,25.9,
1514,1,SBT2050,2,3,,2,10965,4.14997,0.18134,2615.461,261.681,25.9,
1514,1,SBT2050,2,3,,2,11008,4.15003,0.1781,2617.611,261.681,25.9,
1514,1,SBT2050,2,3,,2,11051,4.15003,0.17514,2619.715,261.681,25.9,
1514,1,SBT2050,2,3,,2,11094,4.15019,0.17097,2621.781,261.681,25.9,
1514,1,SBT2050,2,3,,2,11137,4.149832,0.16799,2623.805,261.681,25.9,
1514,1,SBT2050,2,3,,2,11180,4.14996,0.16505,2625.791,261.681,25.9,
1514,1,SBT2050,2,3,,2,11223,4.1499,0.16139,2627.738,261.681,25.9,
1514,1,SBT2050,2,3,,2,11266,4.14982,0.15853,2629.647,261.681,25.9,
1514,1,SBT2050,2,3,,2,11309,4.15001,0.1556,2631.523,261.681,25.9,
1514,1,SBT2050,2,3,,2,11352,4.14996,0.15225,2633.361,261.681,25.9,
1514,1,SBT2050,2,3,,2,11395,4.15032,0.15011,2635.166,261.681,25.9,
1514,1,SBT2050,2,3,,2,11438,4.15008,0.14656,2636.936,261.681,25.9,
1514,1,SBT2050,2,3,,2,11481,4.15018,0.14403,2638.675,261.681,25.9,
1514,1,SBT2050,2,3,,2,11524,4.15008,0.1424,2640.39,261.681,25.9,
1514,1,SBT2050,2,3,,2,11567,4.15018,0.13922,2642.072,261.681,25.9,
1514,1,SBT2050,2,3,,2,11610,4.15002,0.13706,2643.719,261.681,25.9,
1514,1,SBT2050,2,3,,2,11653,4.14989,0.13392,2645.336,261.681,25.9,
1514,1,SBT2050,2,3,,2,11696,4.15005,0.12958,2646.912,261.681,25.9,
1514,1,SBT2050,2,3,,2,11739,4.150154,0.12584,2648.437,261.681,25.8,
1514,1,SBT2050,2,3,,2,11782,4.14999,0.12139,2649.912,261.681,25.6,
1514,1,SBT2050,2,3,,2,11825,4.15009,0.11797,2651.338,261.681,25.3,
1514,1,SBT2050,2,3,,2,11868,4.15006,0.11489,2652.725,261.681,25,
1514,1,SBT2050,2,3,,2,11911,4.14997,0.11211,2654.08,261.681,24.8,
1514,1,SBT2050,2,3,,2,11954,4.14997,0.10985,2655.405,261.681,24.7,
1514,1,SBT2050,2,3,,2,11997,4.15009,0.1075,2656.702,261.681,24.5,
1514,1,SBT2050,2,3,,2,12040,4.1499,0.10509,2657.972,261.681,24.5,
1514,1,SBT2050,2,3,,2,12083,4.14999,0.10354,2659.217,261.681,24.5,
1514,1,SBT2050,2,3,,2,12126,4.14977,0.10181,2660.448,261.681,24.5,
1514,1,SBT2050,2,3,,2,12169,4.1499,0.10046,2661.657,261.681,24.5,
1514,1,SBT2050,2,3,,2,12212,4.15018,0.09879,2662.846,261.681,24.5,
1514,1,SBT2050,2,3,,2,12255,4.15009,0.09697,2664.016,261.681,24.5,
1514,1,SBT2050,2,3,,2,12298,4.15019,0.09538,2665.166,261.681,24.6,
1514,1,SBT2050,2,3,,2,12341,4.15019,0.09371,2666.296,261.681,24.6,
1514,1,SBT2050,2,3,,2,12384,4.14986,0.09266,2667.408,261.681,24.7,
1514,1,SBT2050,2,3,,2,12427,4.149808,0.09062,2668.501,261.681,24.7,
1514,1,SBT2050,2,3,,2,12470,4.15017,0.08922,2669.573,261.681,24.7,
1514,1,SBT2050,2,3,,2,12513,4.15009,0.08788,2670.629,261.681,24.7,
1514,1,SBT2050,2,3,,2,12556,4.14996,0.08667,2671.669,261.681,24.7,
1514,1,SBT2050,2,3,,2,12599,4.15013,0.085,2672.696,261.681,24.7,
1514,1,SBT2050,2,3,,2,12642,4.15006,0.08405,2673.708,261.681,24.7,
1514,1,SBT2050,2,3,,2,12685,4.15025,0.0828,2674.704,261.681,24.8,
1514,1,SBT2050,2,3,,2,12728,4.15002,0.08147,2675.685,261.681,24.8,
1514,1,SBT2050,2,3,,2,12771,4.15009,0.08021,2676.654,261.681,24.8,
1514,1,SBT2050,2,3,,2,12814,4.15005,0.07869,2677.604,261.681,24.8,
1514,1,SBT2050,2,3,,2,12857,4.14993,0.07761,2678.537,261.681,24.8,
1514,1,SBT2050,2,3,,2,12900,4.14986,0.07666,2679.457,261.681,24.8,
1514,1,SBT2050,2,3,,2,12943,4.15013,0.07623,2680.372,261.681,24.9,
1514,1,SBT2050,2,3,,2,12986,4.14982,0.07441,2681.273,261.681,24.9,
1514,1,SBT2050,2,3,,2,13029,4.15001,0.07358,2682.157,261.681,24.9,
1514,1,SBT2050,2,3,,2,13072,4.14994,0.07237,2683.028,261.681,24.9,
1514,1,SBT2050,2,3,,2,13115,4.15003,0.07106,2683.883,261.681,24.9,
1514,1,SBT2050,2,3,,2,13158,4.15013,0.07006,2684.725,261.681,24.9,
1514,1,SBT2050,2,3,,2,13201,4.14997,0.0693,2685.558,261.681,24.9,
1514,1,SBT2050,2,3,,2,13244,4.15009,0.06818,2686.38,261.681,24.9,
1514,1,SBT2050,2,3,,2,13287,4.15001,0.06744,2687.195,261.681,24.9,
1514,1,SBT2050,2,3,,2,13330,4.15007,0.06619,2687.994,261.681,24.9,
1514,1,SBT2050,2,3,,2,13373,4.15013,0.06512,2688.783,261.681,25,
1514,1,SBT2050,2,3,,2,13416,4.150118,0.06452,2689.557,261.681,25,
1514,1,SBT2050,2,3,,2,13459,4.15,0.06399,2690.326,261.681,25,
1514,1,SBT2050,2,3,,2,13502,4.150118,0.06286,2691.083,261.681,24.9,
1514,1,SBT2050,2,3,,2,13545,4.14995,0.06213,2691.828,261.681,24.9,
1514,1,SBT2050,2,3,,2,13588,4.14992,0.06076,2692.561,261.681,24.9,
1514,1,SBT2050,2,3,,2,13631,4.1499,0.06046,2693.284,261.681,25,
1514,1,SBT2050,2,3,,2,13674,4.15008,0.05953,2694,261.681,25,
1514,1,SBT2050,2,3,,2,13717,4.15013,0.05829,2694.704,261.681,25,
1514,1,SBT2050,2,3,,2,13760,4.15006,0.0577,2695.398,261.681,25,
1514,1,SBT2050,2,3,,2,13803,4.15003,0.05714,2696.082,261.681,25,
1514,1,SBT2050,2,3,,2,13846,4.14999,0.05648,2696.758,261.681,25,
1514,1,SBT2050,2,3,,2,13889,4.14986,0.05573,2697.426,261.681,25,
1514,1,SBT2050,2,3,,2,13932,4.15005,0.05469,2698.087,261.681,25,
1514,1,SBT2050,2,3,,2,13975,4.14997,0.0545,2698.74,261.681,25,
1514,1,SBT2050,2,3,,2,14018,4.14997,0.05359,2699.383,261.681,25,
1514,1,SBT2050,2,3,,2,14061,4.15001,0.05262,2700.018,261.681,25,
1514,1,SBT2050,2,3,,2,14104,4.14996,0.05174,2700.644,261.681,25,
1514,1,SBT2050,2,3,,2,14147,4.15007,0.05073,2701.258,261.681,25,
1514,1,SBT2050,2,3,,2,14190,4.14994,0.05028,2701.863,261.681,25,
1514,1,SBT2050,2,3,,2,14233,4.14987,0.04986,2702.464,261.681,25,
1514,1,SBT2050,2,3,,2,14276,4.14995,0.04901,2703.055,261.681,25,
1514,1,SBT2050,2,3,,2,14319,4.14997,0.04841,2703.638,261.681,25,
1514,1,SBT2050,2,3,,2,14362,4.14995,0.0481,2704.213,261.681,25,
1514,1,SBT2050,2,3,,2,14405,4.14984,0.0475,2704.782,261.681,25,
1514,1,SBT2050,2,3,,2,14448,4.14997,0.046958,2705.343,261.681,25,
1514,1,SBT2050,2,3,,2,14491,4.15002,0.046356,2705.9,261.681,25,
1514,1,SBT2050,2,3,,2,14534,4.14997,0.04558,2706.447,261.681,25,
1514,1,SBT2050,2,3,,2,14577,4.15029,0.045062,2706.992,261.681,25,
1514,1,SBT2050,2,3,,2,14620,4.15,0.044622,2707.528,261.681,25,
1514,1,SBT2050,2,3,,2,14663,4.149832,0.043824,2708.056,261.681,25,
1514,1,SBT2050,2,3,,2,14706,4.15027,0.042954,2708.577,261.681,25,
1514,1,SBT2050,2,3,,2,14749,4.15008,0.043004,2709.092,261.681,25,
1514,1,SBT2050,2,3,,2,14792,4.1502,0.042013,2709.602,261.681,25,
1514,1,SBT2050,2,3,,2,14835,4.15018,0.041785,2710.107,261.681,25,
1514,1,SBT2050,2,3,,2,14878,4.14989,0.041546,2710.606,261.681,25.1,
1514,1,SBT2050,2,3,,2,14921,4.15003,0.040415,2711.094,261.681,25,
1514,1,SBT2050,2,3,,2,14964,4.15003,0.040106,2711.578,261.681,25,
1514,1,SBT2050,2,3,,2,15007,4.14993,0.040114,2712.059,261.681,25,
1514,1,SBT2050,2,3,,2,15050,4.14984,0.039562,2712.534,261.681,25,
1514,1,SBT2050,2,3,,2,15093,4.14982,0.039389,2713.004,261.681,25,
1514,1,SBT2050,2,3,,2,15136,4.14993,0.039086,2713.471,261.681,25,
1514,1,SBT2050,2,3,,2,15179,4.14996,0.038553,2713.933,261.681,25,
1514,1,SBT2050,2,3,,2,15222,4.14999,0.038145,2714.388,261.681,25,
1514,1,SBT2050,2,3,,2,15265,4.14999,0.037863,2714.836,261.681,25,
1514,1,SBT2050,2,3,,2,15308,4.14994,0.036411,2715.279,261.681,25,
1514,1,SBT2050,2,3,,2,15351,4.15013,0.036773,2715.717,261.681,25,
1514,1,SBT2050,2,3,,2,15394,4.15006,0.036539,2716.155,261.681,25,
1514,1,SBT2050,2,3,,2,15437,4.14988,0.035957,2716.586,261.681,25,
1514,1,SBT2050,2,3,,2,15480,4.15018,0.035931,2717.012,261.681,25,
1514,1,SBT2050,2,3,,2,15523,4.14997,0.035331,2717.438,261.681,25,
1514,1,SBT2050,2,3,,2,15566,4.150142,0.034515,2717.856,261.681,25,
1514,1,SBT2050,2,3,,2,15609,4.150142,0.034609,2718.269,261.681,25,
1514,1,SBT2050,2,3,,2,15652,4.15017,0.034274,2718.68,261.681,25,
1514,1,SBT2050,2,3,,2,15695,4.14992,0.033958,2719.084,261.681,25,
1514,1,SBT2050,2,3,,2,15738,4.15009,0.033391,2719.482,261.681,25,
1514,1,SBT2050,2,3,,2,15781,4.14999,0.032762,2719.877,261.681,25,
1514,1,SBT2050,2,3,,2,15824,4.14992,0.032727,2720.268,261.681,24.9,
1514,1,SBT2050,2,3,,2,15867,4.15002,0.032268,2720.657,261.681,25,
1514,1,SBT2050,2,3,,2,15910,4.15033,0.031763,2721.041,261.681,25,
1514,1,SBT2050,2,3,,2,15953,4.14988,0.031668,2721.418,261.681,25,
1514,1,SBT2050,2,3,,2,15996,4.14984,0.031031,2721.792,261.681,25,
1514,1,SBT2050,2,3,,2,16039,4.15002,0.030849,2722.163,261.681,25,
1514,1,SBT2050,2,3,,2,16082,4.14982,0.031242,2722.532,261.681,25,
1514,1,SBT2050,2,3,,2,16125,4.15006,0.030445,2722.896,261.681,25,
1514,1,SBT2050,2,3,,2,16168,4.15006,0.029882,2723.255,261.681,25,
1514,1,SBT2050,2,3,,2,16211,4.15031,0.029979,2723.611,261.681,25,
1514,1,SBT2050,2,3,,2,16254,4.150106,0.029473,2723.962,261.681,25,
1514,1,SBT2050,2,3,,2,16297,4.14996,0.029276,2724.311,261.681,25,
1514,1,SBT2050,2,3,,2,16340,4.15026,0.028573,2724.656,261.681,25,
1514,1,SBT2050,2,3,,2,16383,4.14999,0.028165,2724.997,261.681,25,
1514,1,SBT2050,2,3,,2,16426,4.150118,0.027929,2725.332,261.681,25.1,
1514,1,SBT2050,2,3,,2,16469,4.14995,0.027974,2725.665,261.681,25,
1514,1,SBT2050,2,3,,2,16512,4.15006,0.027274,2725.993,261.681,25,
1514,1,SBT2050,2,3,,2,16555,4.14997,0.027177,2726.318,261.681,25,
1514,1,SBT2050,2,3,,2,16598,4.14995,0.026897,2726.642,261.681,25,
1514,1,SBT2050,2,3,,2,16641,4.14996,0.026769,2726.964,261.681,25,
1514,1,SBT2050,2,3,,2,16684,4.15001,0.026441,2727.282,261.681,25,
1514,1,SBT2050,2,3,,2,16727,4.15006,0.026503,2727.595,261.681,25,
1514,1,SBT2050,2,3,,2,16770,4.14993,0.025793,2727.905,261.681,25,
1514,1,SBT2050,2,3,,2,16813,4.1502,0.025146,2728.209,261.681,25,
1514,1,SBT2050,2,3,,2,16856,4.149796,0.025016,2728.51,261.681,25,
1514,1,SBT2050,2,3,,2,16899,4.15003,0.024868,2728.807,261.681,25,
1514,1,SBT2050,2,3,,2,16942,4.14987,0.024713,2729.105,261.681,25,
1514,1,SBT2050,2,3,,2,16985,4.149808,0.02489,2729.398,261.681,25,
1514,1,SBT2050,2,3,,2,17028,4.14995,0.02446,2729.693,261.681,25,
1514,1,SBT2050,2,3,,2,17071,4.15003,0.024243,2729.986,261.681,24.9,
1514,1,SBT2050,2,3,,2,17114,4.15008,0.02372,2730.271,261.681,24.9,
1514,1,SBT2050,2,3,,2,17157,4.150142,0.023719,2730.557,261.681,24.9,
1514,1,SBT2050,2,3,,2,17200,4.14999,0.023567,2730.838,261.681,24.9,
1514,1,SBT2050,2,3,,2,17243,4.15007,0.022888,2731.115,261.681,24.9,
1514,1,SBT2050,2,3,,2,17286,4.14997,0.023025,2731.39,261.681,24.9,
1514,1,SBT2050,2,3,,2,17329,4.1499,0.022696,2731.663,261.681,24.8,
1514,1,SBT2050,2,3,,2,17372,4.14997,0.022211,2731.93,261.681,24.9,
1514,1,SBT2050,2,3,,2,17415,4.14989,0.021958,2732.195,261.681,24.9,
1514,1,SBT2050,2,3,,2,17458,4.15006,0.021782,2732.455,261.681,24.9,
1514,1,SBT2050,2,3,,2,17501,4.1499,0.022064,2732.717,261.681,24.8,
1514,1,SBT2050,2,3,,2,17544,4.14986,0.021506,2732.976,261.681,24.9,
1514,1,SBT2050,2,3,,2,17587,4.15024,0.021012,2733.229,261.681,24.8,
1514,1,SBT2050,2,3,,2,17630,4.15026,0.021077,2733.483,261.681,24.9,
1514,1,SBT2050,2,3,,2,17673,4.14997,0.021221,2733.732,261.681,24.9,
1514,1,SBT2050,2,3,,2,17716,4.14995,0.021036,2733.984,261.681,24.9,
1514,1,SBT2050,2,3,,2,17759,4.14999,0.020297,2734.23,261.681,24.9,
1514,1,SBT2050,2,3,,2,17802,4.15007,0.020497,2734.474,261.681,24.9,
1514,1,SBT2050,2,3,,2,17845,4.15009,0.01976,2734.714,261.681,24.9,
1514,1,SBT2050,2,3,,2,17888,4.15007,0.019916,2734.951,261.681,24.9,
1514,1,SBT2050,2,3,,2,17931,4.1499,0.01948,2735.187,261.681,24.9,
1514,1,SBT2050,2,3,,2,17974,4.149796,0.01946,2735.42,261.681,24.9,
1514,1,SBT2050,2,3,,2,18017,4.15008,0.019219,2735.654,261.681,24.9,
1514,1,SBT2050,2,3,,2,18060,4.14971,0.019089,2735.882,261.681,24.9,
1514,1,SBT2050,2,3,,2,18103,4.15009,0.019336,2736.109,261.681,24.9,
1514,1,SBT2050,2,3,,2,18146,4.15017,0.01844,2736.334,261.681,24.9,
1514,1,SBT2050,2,3,,2,18189,4.150154,0.018484,2736.557,261.681,24.9,
1514,1,SBT2050,2,3,,2,18232,4.15008,0.018098,2736.777,261.681,24.9,
1514,1,SBT2050,2,3,,2,18275,4.14999,0.017908,2736.995,261.681,25,
1514,1,SBT2050,2,3,,2,18318,4.15,0.017399,2737.209,261.681,24.9,
1514,1,SBT2050,2,3,,2,18361,4.14984,0.017725,2737.42,261.681,24.9,
1514,1,SBT2050,2,3,,2,18404,4.15003,0.017955,2737.632,261.681,24.9,
1514,1,SBT2050,2,3,,2,18447,4.15002,0.017863,2737.847,261.681,24.9,
1514,1,SBT2050,2,3,,2,18490,4.15008,0.017272,2738.056,261.681,24.9,
1514,1,SBT2050,2,3,,2,18533,4.150106,0.017776,2738.266,261.681,24.9,
1514,1,SBT2050,2,3,,2,18576,4.150154,0.017188,2738.473,261.681,24.9,
1514,1,SBT2050,2,3,,2,18619,4.15,0.01724,2738.678,261.681,24.9,
1514,1,SBT2050,2,3,,2,18662,4.150142,0.01657,2738.879,261.681,24.9,
1514,1,SBT2050,2,3,,2,18705,4.150118,0.016334,2739.078,261.681,25,
1514,1,SBT2050,2,3,,2,18748,4.149808,0.017063,2739.277,261.681,24.9,
1514,1,SBT2050,2,3,,2,18791,4.1497,0.016723,2739.479,261.681,25,
1514,1,SBT2050,2,3,,2,18834,4.14987,0.016656,2739.675,261.681,25,
1514,1,SBT2050,2,3,,2,18877,4.15021,0.01627,2739.873,261.681,24.9,
1514,1,SBT2050,2,3,,2,18920,4.149808,0.015999,2740.063,261.681,25,
1514,1,SBT2050,2,3,,2,18963,4.15031,0.015771,2740.252,261.681,25,
1514,1,SBT2050,2,3,,2,19006,4.149832,0.015891,2740.44,261.681,24.9,
1514,1,SBT2050,2,3,,2,19049,4.14994,0.015785,2740.629,261.681,24.9,
1514,1,SBT2050,2,3,,2,19092,4.15003,0.015465,2740.815,261.681,24.9,
1514,1,SBT2050,2,3,,2,19135,4.15008,0.015382,2741,261.681,24.9,
1514,1,SBT2050,2,3,,2,19178,4.15013,0.015523,2741.185,261.681,24.9,
1514,1,SBT2050,2,3,,2,19221,4.1503,0.014876,2741.37,261.681,25,
1514,1,SBT2050,2,3,,2,19264,4.15018,0.01513,2741.553,261.681,24.9,
1514,1,SBT2050,2,3,,2,19307,4.15,0.014979,2741.733,261.681,24.9,
1514,1,SBT2050,2,3,,2,19350,4.1499,0.014727,2741.909,261.681,24.9,
1514,1,SBT2050,2,3,,2,19393,4.15009,0.014956,2742.086,261.681,24.9,
1514,1,SBT2050,2,3,,2,19436,4.14994,0.014095,2742.258,261.681,24.9,
1514,1,SBT2050,2,3,,2,19479,4.15007,0.014297,2742.431,261.681,25,
1514,1,SBT2050,2,3,,2,19522,4.150142,0.014272,2742.601,261.681,25,
1514,1,SBT2050,2,3,,2,19565,4.14988,0.014107,2742.771,261.681,25,
1514,1,SBT2050,2,3,,2,19608,4.15009,0.013988,2742.94,261.681,25,
1514,1,SBT2050,2,3,,2,19651,4.14989,0.013857,2743.106,261.681,25,
1514,1,SBT2050,2,3,,2,19694,4.14999,0.013878,2743.271,261.681,25,
1514,1,SBT2050,2,3,,2,19737,4.15002,0.013306,2743.434,261.681,25,
1514,1,SBT2050,2,3,,2,19780,4.149832,0.013594,2743.596,261.681,25,
1514,1,SBT2050,2,3,,2,19823,4.15,0.013283,2743.757,261.681,25.1,
1514,1,SBT2050,2,3,,2,19866,4.15005,0.013734,2743.918,261.681,25.1,
1514,1,SBT2050,2,3,,2,19909,4.14997,0.01344,2744.078,261.681,25.1,
1514,1,SBT2050,2,3,,2,19952,4.15009,0.013562,2744.238,261.681,25.1,
1514,1,SBT2050,2,3,,2,19995,4.15,0.013227,2744.397,261.681,25.1,
1514,1,SBT2050,2,3,,2,20038,4.15017,0.013437,2744.557,261.681,25.2,
1514,1,SBT2050,2,3,,2,20081,4.149796,0.013083,2744.715,261.681,25.2,
1514,1,SBT2050,2,3,,2,20124,4.15029,0.01299,2744.875,261.681,25.2,
1514,1,SBT2050,2,3,,2,20167,4.14989,0.013104,2745.032,261.681,25.2,
1514,1,SBT2050,2,3,,2,20210,4.15006,0.013054,2745.187,261.681,25.3,
1514,1,SBT2050,2,3,,2,20253,4.149832,0.013028,2745.342,261.681,25.3,
1514,1,SBT2050,2,3,,2,20296,4.14994,0.012467,2745.495,261.681,25.3,
1514,1,SBT2050,2,3,,2,20339,4.14986,0.012337,2745.644,261.681,25.2,
1514,1,SBT2050,2,3,,2,20382,4.14984,0.011886,2745.79,261.681,25.2,
1514,1,SBT2050,2,3,,2,20425,4.14974,0.01199,2745.932,261.681,25.2,
1514,1,SBT2050,2,3,,2,20468,4.14996,0.012005,2746.074,261.681,25.1,
1514,1,SBT2050,2,3,,2,20511,4.15005,0.011781,2746.214,261.681,25.1,
1514,1,SBT2050,2,3,,2,20554,4.15003,0.011895,2746.356,261.681,25.2,
1514,1,SBT2050,2,3,,2,20597,4.15001,0.011588,2746.496,261.681,25.1,
1514,1,SBT2050,2,3,,2,20640,4.15001,0.011301,2746.636,261.681,25.2,
1514,1,SBT2050,2,3,,2,20683,4.15001,0.011588,2746.774,261.681,25.2,
1514,1,SBT2050,2,3,,2,20726,4.15,0.011596,2746.912,261.681,25.2,
1514,1,SBT2050,2,3,,2,20769,4.150118,0.01139,2747.049,261.681,25.2,
1514,1,SBT2050,2,3,,2,20812,4.15001,0.010776,2747.182,261.681,25.2,
1514,1,SBT2050,2,3,,2,20855,4.15005,0.011304,2747.317,261.681,25.2,
1514,1,SBT2050,2,3,,2,20898,4.15002,0.011085,2747.451,261.681,25,
1514,1,SBT2050,2,3,,2,20941,4.15002,0.011504,2747.584,261.681,24.7,
1514,1,SBT2050,2,3,,2,20984,4.14989,0.010781,2747.716,261.681,24.6,
1514,1,SBT2050,2,3,,2,21027,4.15017,0.010682,2747.846,261.681,24.5,
1514,1,SBT2050,2,3,,2,21070,4.15006,0.01044,2747.974,261.681,24.3,
1514,1,SBT2050,2,3,,3,21112,4.14767,0,2748.022,261.681,24.2,
1514,1,SBT2050,2,3,,3,21155,4.1465,0,2748.022,261.681,24.2,
1514,1,SBT2050,2,3,,3,21198,4.146584,0,2748.022,261.681,24.2,
1514,1,SBT2050,2,3,,3,21241,4.14602,0,2748.022,261.681,24.2,
1514,1,SBT2050,2,3,,3,21284,4.146118,0,2748.022,261.681,24.2,
1514,1,SBT2050,2,3,,3,21770.486,4.14454,0,2748.022,261.681,24.2,
1514,1,SBT2050,2,3,,3,21813.486,4.14454,0,2748.022,261.681,24.3,
1514,1,SBT2050,2,3,,3,21856.486,4.14471,0,2748.022,261.681,24.4,
1514,1,SBT2050,2,3,,3,21899.486,4.14438,0,2748.022,261.681,24.5,
1514,1,SBT2050,2,3,,3,21942.486,4.14435,0,2748.022,261.681,24.5,
1514,1,SBT2050,2,3,,3,21985.486,4.14458,0,2748.022,261.681,24.6,
1514,1,SBT2050,2,3,,3,22028.486,4.14428,0,2748.022,261.681,24.7,
1514,1,SBT2050,2,3,,3,22071.486,4.14416,0,2748.022,261.681,24.7,
1514,1,SBT2050,2,3,,3,22114.486,4.14452,0,2748.022,261.681,24.8,
1514,1,SBT2050,2,3,,3,22157.486,4.14425,0,2748.022,261.681,24.9,
1514,1,SBT2050,2,3,,3,22200.486,4.14418,0,2748.022,261.681,24.9,
1514,1,SBT2050,2,3,,3,22243.486,4.14412,0,2748.022,261.681,25,
1514,1,SBT2050,2,3,,3,22286.486,4.14438,0,2748.022,261.681,25,
1514,1,SBT2050,2,3,,3,22329.486,4.14405,0,2748.022,261.681,25,
1514,1,SBT2050,2,3,,3,22372.486,4.1439,0,2748.022,261.681,25.1,
1514,1,SBT2050,2,3,,3,22415.486,4.14417,0,2748.022,261.681,25.1,
1514,1,SBT2050,2,3,,3,22458.486,4.14368,0,2748.022,261.681,25,
1514,1,SBT2050,2,3,,3,22501.486,4.14353,0,2748.022,261.681,25.1,
1514,1,SBT2050,2,3,,3,22544.486,4.14379,0,2748.022,261.681,25,
1514,1,SBT2050,2,3,,3,22587.486,4.143606,0,2748.022,261.681,25.1,
1514,1,SBT2050,2,3,,3,22630.486,4.1438,0,2748.022,261.681,25,
1514,1,SBT2050,2,3,,3,22673.486,4.14351,0,2748.022,261.681,25,
1514,1,SBT2050,2,3,,3,22716.486,4.143604,0,2748.022,261.681,24.9,
1514,1,SBT2050,2,3,,3,22759.486,4.14357,0,2748.022,261.681,25,
1514,1,SBT2050,2,3,,3,22802.486,4.14321,0,2748.022,261.681,24.9,
1514,1,SBT2050,2,3,,3,22845.486,4.14347,0,2748.022,261.681,24.9,
1514,1,SBT2050,2,3,,3,22888.486,4.14353,0,2748.022,261.681,24.9,
1514,1,SBT2050,2,3,,3,22931.486,4.14344,0,2748.022,261.681,24.9,
1514,1,SBT2050,2,3,,3,22974.486,4.143266,0,2748.022,261.681,24.9,
1514,1,SBT2050,2,3,,3,23017.486,4.14312,0,2748.022,261.681,24.9,
1514,1,SBT2050,2,3,,3,23060.486,4.1431,0,2748.022,261.681,24.9,
1514,1,SBT2050,2,3,,3,23103.486,4.14319,0,2748.022,261.681,24.9,
1514,1,SBT2050,2,3,,3,23146.486,4.14294,0,2748.022,261.681,24.9,
1514,1,SBT2050,2,3,,3,23189.486,4.142982,0,2748.022,261.681,24.9,
1514,1,SBT2050,2,3,,3,23232.486,4.14301,0,2748.022,261.681,24.9,
1514,1,SBT2050,2,3,,3,23275.486,4.142758,0,2748.022,261.681,24.9,
1514,1,SBT2050,2,3,,3,23318.486,4.14281,0,2748.022,261.681,24.9,
1514,1,SBT2050,2,3,,4,23360.486,3.82743,-2.9363,2748.022,286.302,25.2,
1514,1,SBT2050,2,3,,4,23403.486,3.79513,-2.9362,2748.022,321.37,25.8,
1514,1,SBT2050,2,3,,4,23446.486,3.78035,-2.9357,2748.022,356.438,26.5,
1514,1,SBT2050,2,3,,4,23489.486,3.7731,-2.9361,2748.022,391.507,27.2,
1514,1,SBT2050,2,3,,4,23532.486,3.76828,-2.9361,2748.022,426.575,27.8,
1514,1,SBT2050,2,3,,4,23575.486,3.76394,-2.936,2748.022,461.644,28.4,
1514,1,SBT2050,2,3,,4,23618.486,3.75955,-2.9358,2748.022,496.712,28.9,
1514,1,SBT2050,2,3,,4,23661.486,3.75522,-2.9358,2748.022,531.781,29.4,
1514,1,SBT2050,2,3,,4,23704.486,3.74988,-2.9355,2748.022,566.849,29.8,
1514,1,SBT2050,2,3,,4,23747.486,3.74402,-2.9362,2748.022,601.917,30.1,
1514,1,SBT2050,2,3,,4,23790.486,3.73685,-2.9358,2748.022,636.986,30.4,
1514,1,SBT2050,2,3,,4,23833.486,3.72911,-2.9358,2748.022,672.054,30.5,
1514,1,SBT2050,2,3,,4,23876.486,3.71833,-2.9359,2748.022,707.123,30.1,
1514,1,SBT2050,2,3,,4,23919.486,3.70789,-2.9362,2748.022,742.191,30.2,
1514,1,SBT2050,2,3,,4,23962.486,3.6981,-2.9357,2748.022,777.26,30.2,
1514,1,SBT2050,2,3,,4,24005.486,3.68693,-2.9362,2748.022,812.328,29.9,
1514,1,SBT2050,2,3,,4,24048.486,3.67539,-2.9362,2748.022,847.396,29.8,
1514,1,SBT2050,2,3,,4,24091.486,3.66373,-2.936,2748.022,882.465,29.6,
1514,1,SBT2050,2,3,,4,24134.486,3.65195,-2.936,2748.022,917.533,29.5,
1514,1,SBT2050,2,3,,4,24177.486,3.64017,-2.9357,2748.022,952.602,29.4,
1514,1,SBT2050,2,3,,4,24220.486,3.62805,-2.9358,2748.022,987.67,29.3,
1514,1,SBT2050,2,3,,4,24263.486,3.61617,-2.9359,2748.022,1022.738,29.2,
1514,1,SBT2050,2,3,,4,24306.486,3.603994,-2.936,2748.022,1057.806,29.2,
1514,1,SBT2050,2,3,,4,24349.486,3.59158,-2.9359,2748.022,1092.875,29.1,
1514,1,SBT2050,2,3,,4,24392.486,3.579462,-2.9366,2748.022,1127.943,29.1,
1514,1,SBT2050,2,3,,4,24435.486,3.5675,-2.9356,2748.022,1163.011,29.1,
1514,1,SBT2050,2,3,,4,24478.486,3.55498,-2.9357,2748.022,1198.08,29.1,
1514,1,SBT2050,2,3,,4,24521.486,3.54262,-2.9359,2748.022,1233.148,29.1,
1514,1,SBT2050,2,3,,4,24564.486,3.53002,-2.9357,2748.022,1268.217,29.1,
1514,1,SBT2050,2,3,,4,24607.486,3.51765,-2.936,2748.022,1303.285,29.1,
1514,1,SBT2050,2,3,,4,24650.486,3.50525,-2.9356,2748.022,1338.353,29.1,
1514,1,SBT2050,2,3,,4,24693.486,3.4929,-2.9359,2748.022,1373.422,29.1,
1514,1,SBT2050,2,3,,4,24736.486,3.48091,-2.936,2748.022,1408.49,29.1,
1514,1,SBT2050,2,3,,4,24779.486,3.46843,-2.9359,2748.022,1443.559,29.2,
1514,1,SBT2050,2,3,,4,24822.486,3.45649,-2.9362,2748.022,1478.627,29.1,
1514,1,SBT2050,2,3,,4,24865.486,3.44468,-2.9357,2748.022,1513.696,29.2,
1514,1,SBT2050,2,3,,4,24908.486,3.43311,-2.9359,2748.022,1548.764,29.3,
1514,1,SBT2050,2,3,,4,24951.486,3.42167,-2.9359,2748.022,1583.833,29.3,
1514,1,SBT2050,2,3,,4,24994.486,3.41014,-2.9357,2748.022,1618.901,29.3,
1514,1,SBT2050,2,3,,4,25037.486,3.39906,-2.9359,2748.022,1653.97,29.3,
1514,1,SBT2050,2,3,,4,25080.486,3.387634,-2.9362,2748.022,1689.038,29.4,
1514,1,SBT2050,2,3,,4,25123.486,3.37615,-2.936,2748.022,1724.106,29.4,
1514,1,SBT2050,2,3,,4,25166.486,3.36483,-2.9358,2748.022,1759.175,29.4,
1514,1,SBT2050,2,3,,4,25209.486,3.35315,-2.936,2748.022,1794.243,29.3,
1514,1,SBT2050,2,3,,4,25252.486,3.3419,-2.9358,2748.022,1829.312,29.4,
1514,1,SBT2050,2,3,,4,25295.486,3.33012,-2.9359,2748.022,1864.38,29.4,
1514,1,SBT2050,2,3,,4,25338.486,3.31837,-2.9361,2748.022,1899.448,29.4,
1514,1,SBT2050,2,3,,4,25381.486,3.30599,-2.9361,2748.022,1934.516,29.5,
1514,1,SBT2050,2,3,,4,25424.486,3.29376,-2.9356,2748.022,1969.585,29.5,
1514,1,SBT2050,2,3,,4,25467.486,3.28064,-2.9361,2748.022,2004.653,29.6,
1514,1,SBT2050,2,3,,4,25510.486,3.26709,-2.9364,2748.022,2039.721,29.7,
1514,1,SBT2050,2,3,,4,25553.486,3.25293,-2.9358,2748.022,2074.789,29.8,
1514,1,SBT2050,2,3,,4,25596.486,3.23826,-2.9362,2748.022,2109.857,29.9,
1514,1,SBT2050,2,3,,4,25639.486,3.22292,-2.9362,2748.022,2144.926,30,
1514,1,SBT2050,2,3,,4,25682.486,3.20636,-2.9362,2748.022,2179.994,30.1,
1514,1,SBT2050,2,3,,4,25725.486,3.189,-2.9362,2748.022,2215.062,30.2,
1514,1,SBT2050,2,3,,4,25768.486,3.16996,-2.9363,2748.022,2250.131,30.3,
1514,1,SBT2050,2,3,,4,25811.486,3.14984,-2.9357,2748.022,2285.199,30.5,
1514,1,SBT2050,2,3,,4,25854.486,3.127723,-2.936,2748.022,2320.267,30.6,
1514,1,SBT2050,2,3,,4,25897.486,3.10463,-2.9361,2748.022,2355.336,30.8,
1514,1,SBT2050,2,3,,4,25940.486,3.07893,-2.9361,2748.022,2390.404,31,
1514,1,SBT2050,2,3,,4,25983.486,3.05114,-2.936,2748.022,2425.472,31.2,
1514,1,SBT2050,2,3,,4,26026.486,3.02041,-2.936,2748.022,2460.54,31.4,
1514,1,SBT2050,2,3,,4,26069.486,2.98668,-2.9363,2748.022,2495.609,31.7,
1514,1,SBT2050,2,3,,4,26112.486,2.94827,-2.9358,2748.022,2530.677,32,
1514,1,SBT2050,2,3,,4,26155.486,2.90395,-2.9363,2748.022,2565.746,32.2,
1514,1,SBT2050,2,3,,4,26198.486,2.851175,-2.936,2748.022,2600.814,32.5,
1514,1,SBT2050,2,3,,4,26241.486,2.78609,-2.936,2748.022,2635.882,32.9,
1514,1,SBT2050,2,3,,4,26284.486,2.70661,-2.9365,2748.022,2670.951,33.5,
1514,1,SBT2050,2,3,,4,26327.486,2.60332,-2.9362,2748.022,2706.019,34.1,
1514,1,SBT2050,2,3,,4,26370.486,2.49969,-2.6758,2748.022,2740.572,34.9,
1514,1,SBT2050,2,3,,4,26413.486,2.49973,-2.1974,2748.022,2769.455,35.4,
1514,1,SBT2050,2,3,,4,26456.486,2.49981,-1.8412,2748.022,2793.503,35.5,
1514,1,SBT2050,2,3,,4,26499.486,2.49987,-1.5485,2748.022,2813.694,35.3,
1514,1,SBT2050,2,3,,4,26542.486,2.49994,-1.3057,2748.022,2830.695,34.9,
1514,1,SBT2050,2,3,,4,26585.486,2.49992,-1.1096,2748.022,2845.086,34.4,
1514,1,SBT2050,2,3,,4,26628.486,2.49981,-0.9489,2748.022,2857.347,33.7,
1514,1,SBT2050,2,3,,4,26671.486,2.49989,-0.8189,2748.022,2867.882,33.1,
1514,1,SBT2050,2,3,,4,26714.486,2.49983,-0.712,2748.022,2877.003,32.4,
1514,1,SBT2050,2,3,,4,26757.486,2.49982,-0.625,2748.022,2884.97,31.8,
1514,1,SBT2050,2,3,,4,26800.486,2.49979,-0.5545,2748.022,2892,31.2,
1514,1,SBT2050,2,3,,4,26843.486,2.499798,-0.4985,2748.022,2898.276,30.7,
1514,1,SBT2050,2,3,,4,26886.486,2.49989,-0.45067,2748.022,2903.931,30.2,
1514,1,SBT2050,2,3,,4,26929.486,2.49999,-0.41176,2748.022,2909.071,29.7,
1514,1,SBT2050,2,3,,4,26972.486,2.50007,-0.37873,2748.022,2913.784,29.3,
1514,1,SBT2050,2,3,,4,27015.486,2.499977,-0.35002,2748.022,2918.13,28.9,
1514,1,SBT2050,2,3,,4,27058.486,2.499965,-0.32572,2748.022,2922.159,28.6,
1514,1,SBT2050,2,3,,4,27101.486,2.49974,-0.30392,2748.022,2925.917,28.3,
1514,1,SBT2050,2,3,,4,27144.486,2.50004,-0.28554,2748.022,2929.438,28,
1514,1,SBT2050,2,3,,4,27187.486,2.5,-0.26861,2748.022,2932.745,27.8,
1514,1,SBT2050,2,3,,4,27230.486,2.499953,-0.25363,2748.022,2935.863,27.6,
1514,1,SBT2050,2,3,,4,27273.486,2.499977,-0.23977,2748.022,2938.808,27.4,
1514,1,SBT2050,2,3,,4,27316.486,2.49982,-0.22707,2748.022,2941.596,27.2,
1514,1,SBT2050,2,3,,4,27359.486,2.49981,-0.21522,2748.022,2944.237,27.1,
1514,1,SBT2050,2,3,,4,27402.486,2.49991,-0.20499,2748.022,2946.746,27,
1514,1,SBT2050,2,3,,4,27445.486,2.49983,-0.19484,2748.022,2949.134,26.8,
1514,1,SBT2050,2,3,,4,27488.486,2.49988,-0.18603,2748.022,2951.408,26.7,
1514,1,SBT2050,2,3,,4,27531.486,2.49994,-0.17734,2748.022,2953.577,26.6,
1514,1,SBT2050,2,3,,4,27574.486,2.49989,-0.16957,2748.022,2955.648,26.4,
1514,1,SBT2050,2,3,,4,27617.486,2.5,-0.16215,2748.022,2957.628,26.3,
1514,1,SBT2050,2,3,,4,27660.486,2.49975,-0.15524,2748.022,2959.523,26.2,
1514,1,SBT2050,2,3,,4,27703.486,2.49988,-0.1489,2748.022,2961.34,26.1,
1514,1,SBT2050,2,3,,4,27746.486,2.49989,-0.14298,2748.022,2963.084,26.1,
1514,1,SBT2050,2,3,,4,27789.486,2.49988,-0.13749,2748.022,2964.759,26,
1514,1,SBT2050,2,3,,4,27832.486,2.50002,-0.13221,2748.022,2966.37,25.9,
1514,1,SBT2050,2,3,,4,27875.486,2.49993,-0.12759,2748.022,2967.921,25.9,
1514,1,SBT2050,2,3,,4,27918.486,2.49986,-0.1229,2748.022,2969.417,25.9,
1514,1,SBT2050,2,3,,4,27961.486,2.5,-0.11864,2748.022,2970.861,25.8,
1514,1,SBT2050,2,3,,4,28004.486,2.49983,-0.11467,2748.022,2972.255,25.8,
1514,1,SBT2050,2,3,,4,28047.486,2.49992,-0.1109,2748.022,2973.603,25.8,
1514,1,SBT2050,2,3,,4,28090.486,2.49988,-0.10708,2748.022,2974.905,25.8,
1514,1,SBT2050,2,3,,4,28133.486,2.49991,-0.10343,2748.022,2976.162,25.7,
1514,1,SBT2050,2,3,,4,28176.486,2.49987,-0.0998,2748.022,2977.377,25.7,
1514,1,SBT2050,2,3,,4,28219.486,2.50002,-0.09669,2748.022,2978.552,25.7,
1514,1,SBT2050,2,3,,4,28262.486,2.49999,-0.09367,2748.022,2979.688,25.6,
1514,1,SBT2050,2,3,,4,28305.486,2.49992,-0.09043,2748.022,2980.787,25.6,
1514,1,SBT2050,2,3,,4,28348.486,2.49987,-0.08746,2748.022,2981.85,25.6,
1514,1,SBT2050,2,3,,4,28391.486,2.49999,-0.08459,2748.022,2982.877,25.6,
1514,1,SBT2050,2,3,,4,28434.486,2.499798,-0.08168,2748.022,2983.87,25.5,
1514,1,SBT2050,2,3,,4,28477.486,2.500108,-0.07943,2748.022,2984.831,25.5,
1514,1,SBT2050,2,3,,4,28520.486,2.499953,-0.07667,2748.022,2985.761,25.5,
1514,1,SBT2050,2,3,,4,28563.486,2.49992,-0.07444,2748.022,2986.662,25.5,
1514,1,SBT2050,2,3,,4,28606.486,2.49992,-0.07199,2748.022,2987.535,25.5,
1514,1,SBT2050,2,3,,4,28649.486,2.50022,-0.06997,2748.022,2988.382,25.4,
1514,1,SBT2050,2,3,,4,28692.486,2.49999,-0.06753,2748.022,2989.201,25.4,
1514,1,SBT2050,2,3,,4,28735.486,2.499953,-0.06534,2748.022,2989.995,25.4,
1514,1,SBT2050,2,3,,4,28778.486,2.5,-0.06331,2748.022,2990.765,25.4,
1514,1,SBT2050,2,3,,4,28821.486,2.49999,-0.06158,2748.022,2991.511,25.4,
1514,1,SBT2050,2,3,,4,28864.486,2.50008,-0.05967,2748.022,2992.234,25.4,
1514,1,SBT2050,2,3,,4,28907.486,2.49989,-0.05765,2748.022,2992.936,25.4,
1514,1,SBT2050,2,3,,4,28950.486,2.499953,-0.05607,2748.022,2993.616,25.4,
1514,1,SBT2050,2,3,,4,28993.486,2.49993,-0.05433,2748.022,2994.276,25.4,
1514,1,SBT2050,2,3,,4,29036.486,2.49991,-0.05271,2748.022,2994.915,25.3,
1514,1,SBT2050,2,3,,4,29079.486,2.5001,-0.05108,2748.022,2995.535,25.3,
1514,1,SBT2050,2,3,,4,29122.486,2.499965,-0.04949,2748.022,2996.135,25.3,
1514,1,SBT2050,2,3,,4,29165.486,2.50001,-0.04804,2748.022,2996.717,25.3,
1514,1,SBT2050,2,3,,4,29208.486,2.50002,-0.046378,2748.022,2997.281,25.3,
1514,1,SBT2050,2,3,,4,29251.486,2.49986,-0.044713,2748.022,2997.825,25.3,
1514,1,SBT2050,2,3,,4,29294.486,2.500132,-0.043494,2748.022,2998.351,25.3,
1514,1,SBT2050,2,3,,4,29337.486,2.49992,-0.041712,2748.022,2998.86,25.3,
1514,1,SBT2050,2,3,,4,29380.486,2.499965,-0.040342,2748.022,2999.35,25.3,
1514,1,SBT2050,2,3,,4,29423.486,2.49999,-0.038807,2748.022,2999.824,25.3,
1514,1,SBT2050,2,3,,4,29466.486,2.499953,-0.037462,2748.022,3000.28,25.3,
1514,1,SBT2050,2,3,,4,29509.486,2.499965,-0.036227,2748.022,3000.72,25.3,
1514,1,SBT2050,2,3,,4,29552.486,2.50006,-0.034947,2748.022,3001.145,25.3,
1514,1,SBT2050,2,3,,4,29595.486,2.49999,-0.033668,2748.022,3001.554,25.3,
1514,1,SBT2050,2,3,,4,29638.486,2.500108,-0.032488,2748.022,3001.949,25.3,
1514,1,SBT2050,2,3,,4,29681.486,2.49993,-0.031426,2748.022,3002.331,25.3,
1514,1,SBT2050,2,3,,4,29724.486,2.499953,-0.030212,2748.022,3002.7,25.3,
1514,1,SBT2050,2,3,,4,29767.486,2.50005,-0.029236,2748.022,3003.055,25.3,
1514,1,SBT2050,2,3,,4,29810.486,2.50005,-0.028324,2748.022,3003.398,25.3,
1514,1,SBT2050,2,3,,4,29853.486,2.49992,-0.027237,2748.022,3003.73,25.2,
1514,1,SBT2050,2,3,,4,29896.486,2.50006,-0.026291,2748.022,3004.05,25.2,
1514,1,SBT2050,2,3,,4,29939.486,2.499977,-0.025341,2748.022,3004.358,25.2,
1514,1,SBT2050,2,3,,4,29982.486,2.500108,-0.024439,2748.022,3004.655,25.1,
1514,1,SBT2050,2,3,,4,30025.486,2.50001,-0.023509,2748.022,3004.941,25.1,
1514,1,SBT2050,2,3,,4,30068.486,2.49991,-0.022554,2748.022,3005.216,25.1,
1514,1,SBT2050,2,3,,4,30111.486,2.50001,-0.02176,2748.022,3005.481,25.1,
1514,1,SBT2050,2,3,,4,30154.486,2.50012,-0.021107,2748.022,3005.736,25.1,
1514,1,SBT2050,2,3,,4,30197.486,2.49991,-0.020078,2748.022,3005.981,25.1,
1514,1,SBT2050,2,3,,4,30240.486,2.50008,-0.019352,2748.022,3006.216,25.1,
1514,1,SBT2050,2,3,,4,30283.486,2.50004,-0.01865,2748.022,3006.442,25.1,
1514,1,SBT2050,2,3,,4,30326.486,2.49994,-0.018014,2748.022,3006.66,25.1,
1514,1,SBT2050,2,3,,4,30369.486,2.50012,-0.017242,2748.022,3006.869,25.1,
1514,1,SBT2050,2,3,,4,30412.486,2.49994,-0.016478,2748.022,3007.07,25.1,
1514,1,SBT2050,2,3,,4,30455.486,2.499977,-0.015937,2748.022,3007.264,25.1,
1514,1,SBT2050,2,3,,4,30498.486,2.49993,-0.01527,2748.022,3007.451,25.1,
1514,1,SBT2050,2,3,,4,30541.486,2.49985,-0.014593,2748.022,3007.631,25.1,
1514,1,SBT2050,2,3,,4,30584.486,2.49991,-0.014404,2748.022,3007.805,25.1,
1514,1,SBT2050,2,3,,4,30627.486,2.50006,-0.013858,2748.022,3007.973,25.1,
1514,1,SBT2050,2,3,,4,30670.486,2.49973,-0.013287,2748.022,3008.135,25.1,
1514,1,SBT2050,2,3,,4,30713.486,2.5,-0.012818,2748.022,3008.292,25.1,
1514,1,SBT2050,2,3,,4,30756.486,2.50001,-0.012423,2748.022,3008.444,25.1,
1514,1,SBT2050,2,3,,4,30799.486,2.50004,-0.012014,2748.022,3008.591,25.1,
1514,1,SBT2050,2,3,,4,30842.486,2.50007,-0.011841,2748.022,3008.733,25.1,
1514,1,SBT2050,2,3,,4,30885.486,2.49993,-0.011432,2748.022,3008.871,25.1,
1514,1,SBT2050,2,3,,4,30928.486,2.50005,-0.010959,2748.022,3009.004,25.1,
1514,1,SBT2050,2,3,,4,30971.486,2.499953,-0.010556,2748.022,3009.134,25.1,
1514,1,SBT2050,2,3,,4,31014.486,2.5,-0.010389,2748.022,3009.259,25.1,
1514,1,SBT2050,2,3,,5,31056.486,2.51052,0,2748.022,3009.348,25.1,
1514,1,SBT2050,2,3,,5,31099.486,2.53489,0,2748.022,3009.348,25.1,
1514,1,SBT2050,2,3,,5,31142.486,2.554743,0,2748.022,3009.348,25.1,
1514,1,SBT2050,2,3,,5,31185.486,2.57217,0,2748.022,3009.348,25.1,
1514,1,SBT2050,2,3,,5,31228.486,2.58794,0,2748.022,3009.348,25.1,
1514,1,SBT2050,2,3,,5,31271.486,2.60203,0,2748.022,3009.348,25.1,
1514,1,SBT2050,2,3,,5,31314.486,2.61502,0,2748.022,3009.348,25.1,
1514,1,SBT2050,2,3,,5,31357.486,2.62705,0,2748.022,3009.348,25.1,
1514,1,SBT2050,2,3,,5,31400.486,2.63769,0,2748.022,3009.348,25.1,
1514,1,SBT2050,2,3,,5,31443.486,2.64767,0,2748.022,3009.348,25.1,
1514,1,SBT2050,2,3,,5,31486.486,2.65687,0,2748.022,3009.348,25.1,
1514,1,SBT2050,2,3,,5,31529.486,2.6653,0,2748.022,3009.348,25.1,
1514,1,SBT2050,2,3,,5,31572.486,2.67287,0,2748.022,3009.348,25.1,
1514,1,SBT2050,2,3,,5,31615.486,2.68037,0,2748.022,3009.348,25.1,
1514,1,SBT2050,2,3,,5,31658.486,2.68684,0,2748.022,3009.348,25.1,
1514,1,SBT2050,2,3,,5,31701.486,2.69322,0,2748.022,3009.348,25.1,
1514,1,SBT2050,2,3,,5,31744.486,2.6991,0,2748.022,3009.348,25.1,
1514,1,SBT2050,2,3,,5,31787.486,2.70446,0,2748.022,3009.348,25.2,
1514,1,SBT2050,2,3,,5,31830.486,2.70951,0,2748.022,3009.348,25.2,
1514,1,SBT2050,2,3,,5,31873.486,2.714853,0,2748.022,3009.348,25.2,
1514,1,SBT2050,2,3,,5,31916.486,2.71926,0,2748.022,3009.348,25.2,
1514,1,SBT2050,2,3,,5,31959.486,2.72355,0,2748.022,3009.348,25.2,
1514,1,SBT2050,2,3,,5,32002.486,2.72775,0,2748.022,3009.348,25.2,
1514,1,SBT2050,2,3,,5,32045.486,2.73174,0,2748.022,3009.348,25.2,
1514,1,SBT2050,2,3,,5,32088.486,2.735194,0,2748.022,3009.348,25.2,
1514,1,SBT2050,2,3,,5,32131.486,2.73905,0,2748.022,3009.348,25.2,
1514,1,SBT2050,2,3,,5,32174.486,2.74234,0,2748.022,3009.348,25.2,
1514,1,SBT2050,2,3,,5,32217.486,2.7456,0,2748.022,3009.348,25.1,
1514,1,SBT2050,2,3,,5,32260.486,2.74849,0,2748.022,3009.348,25.1,
1514,1,SBT2050,2,3,,5,32303.486,2.75147,0,2748.022,3009.348,25,
1514,1,SBT2050,2,3,,5,32346.486,2.754431,0,2748.022,3009.348,25,
1514,1,SBT2050,2,3,,5,32389.486,2.75694,0,2748.022,3009.348,25,
1514,1,SBT2050,2,3,,5,32432.486,2.759448,0,2748.022,3009.348,25,
1514,1,SBT2050,2,3,,5,32475.486,2.76199,0,2748.022,3009.348,25.1,
1514,1,SBT2050,2,3,,5,32518.486,2.76436,0,2748.022,3009.348,25,
1514,1,SBT2050,2,3,,5,32561.486,2.766664,0,2748.022,3009.348,25,
1514,1,SBT2050,2,3,,5,32604.486,2.76885,0,2748.022,3009.348,25.1,
1514,1,SBT2050,2,3,,5,32647.486,2.771001,0,2748.022,3009.348,25.1,
1514,1,SBT2050,2,3,,5,32690.486,2.77291,0,2748.022,3009.348,25.1,
1514,1,SBT2050,2,3,,5,32733.486,2.774923,0,2748.022,3009.348,25.1,
1514,1,SBT2050,2,3,,5,32776.486,2.77671,0,2748.022,3009.348,25.1,
1514,1,SBT2050,2,3,,5,32819.486,2.77864,0,2748.022,3009.348,25.1,
1514,1,SBT2050,2,3,,5,32845.657,2.77989,-0.0001,2748.022,3009.348,,