File: ORRG/Test1544.csv
Request Year:,2018,,,,,,,,,,,,
Test:,1544,,,,,,,,,,,,
Test Description:,,,,,,,,,,,,,
TestRegime Name:,Aging_Performance,,,,,,,,,,,,
TestRegime Suffix:,SHP_LC,,,,,,,,,,,,
TestRegime CellSize:,18650,,,,,,,,,,,,
TestRegime Version:,1,,,,,,,,,,,,
Number Of Cells:,1,,,,,,,,,,,,
LotID:,,,,,,,,,,,,,
Lot Description:,,,,,,,,,,,,,
Date Made:,1/21/2003 12:00 AM,,,,,,,,,,,,
Origin:,Other,,,,,,,,,,,,
Requestor:,Admin,,,,,,,,,,,,
Product ID:,Default product,,,,,,,,,,,,
Storage Temp:,R.T./AMB,,,,,,,,,,,,
Storage Delay:,0 days,,,,,,,,,,,,
Test Temp:,R.T./AMB,,,,,,,,,,,,
Start Time:,4/24/2018 6:24 AM,,,,,,,,,,,,
End Time:,4/24/2018 5:51 PM,,,,,,,,,,,,
Operator Instructions:,,,,,,,,,,,,,
Test,Cell,Rack,Shelf,Position,Cell ID,Step,Total Time (Seconds),Voltage (V),Current (A),Charge Capacity (mAh),Discharge Capacity (mAh),TC1 (Â°C),
1544,1,SBT2050,2,3,,0,1,3.37227,0,0,0,24.7,
1544,1,SBT2050,2,3,,0,55,3.37246,0,0,0,24.8,
1544,1,SBT2050,2,3,,0,109,3.372578,0,0,0,24.9,
1544,1,SBT2050,2,3,,0,163,3.37301,0,0,0,25,
1544,1,SBT2050,2,3,,0,217,3.37289,0,0,0,25,
1544,1,SBT2050,2,3,,0,271,3.373188,0,0,0,25,
1544,1,SBT2050,2,3,,1,325,2.55657,-2.9359,0,20.387,25.6,
1544,1,SBT2050,2,3,,1,379,2.49975,-1.6922,0,51.634,27.5,
1544,1,SBT2050,2,3,,1,433,2.49976,-1.413,0,74.712,28.6,
1544,1,SBT2050,2,3,,1,487,2.50005,-1.2264,0,94.437,29.2,
1544,1,SBT2050,2,3,,1,541,2.49994,-1.0769,0,111.676,29.5,
1544,1,SBT2050,2,3,,1,595,2.49976,-0.9492,0,126.847,29.6,
1544,1,SBT2050,2,3,,1,649,2.499895,-0.8405,0,140.247,29.6,
1544,1,SBT2050,2,3,,1,703,2.4998,-0.749,0,152.154,29.5,
1544,1,SBT2050,2,3,,1,757,2.49998,-0.6708,0,162.791,29.3,
1544,1,SBT2050,2,3,,1,811,2.49985,-0.6023,0,172.331,29,
1544,1,SBT2050,2,3,,1,865,2.49994,-0.544,0,180.921,28.7,
1544,1,SBT2050,2,3,,1,919,2.49997,-0.4948,0,188.704,28.5,
1544,1,SBT2050,2,3,,1,973,2.49984,-0.45304,0,195.804,28.3,
1544,1,SBT2050,2,3,,1,1027,2.49999,-0.417,0,202.322,28.1,
1544,1,SBT2050,2,3,,1,1081,2.49984,-0.38582,0,208.34,27.8,
1544,1,SBT2050,2,3,,1,1135,2.500038,-0.35831,0,213.917,27.6,
1544,1,SBT2050,2,3,,1,1189,2.49993,-0.33427,0,219.108,27.4,
1544,1,SBT2050,2,3,,1,1243,2.49991,-0.31388,0,223.967,27.2,
1544,1,SBT2050,2,3,,1,1297,2.49982,-0.29544,0,228.533,27.1,
1544,1,SBT2050,2,3,,1,1351,2.499883,-0.2793,0,232.843,27,
1544,1,SBT2050,2,3,,1,1405,2.49997,-0.26488,0,236.924,26.8,
1544,1,SBT2050,2,3,,1,1459,2.49987,-0.25178,0,240.8,26.7,
1544,1,SBT2050,2,3,,1,1513,2.49995,-0.23975,0,244.487,26.6,
1544,1,SBT2050,2,3,,1,1567,2.49993,-0.22877,0,247.999,26.5,
1544,1,SBT2050,2,3,,1,1621,2.49991,-0.2185,0,251.351,26.4,
1544,1,SBT2050,2,3,,1,1675,2.499895,-0.20967,0,254.559,26.4,
1544,1,SBT2050,2,3,,1,1729,2.50005,-0.20116,0,257.637,26.3,
1544,1,SBT2050,2,3,,1,1783,2.49981,-0.19313,0,260.594,26.2,
1544,1,SBT2050,2,3,,1,1837,2.499883,-0.18559,0,263.436,26.1,
1544,1,SBT2050,2,3,,1,1891,2.49995,-0.1787,0,266.167,26.1,
1544,1,SBT2050,2,3,,1,1945,2.49982,-0.17235,0,268.799,26,
1544,1,SBT2050,2,3,,1,1999,2.49997,-0.16646,0,271.341,26,
1544,1,SBT2050,2,3,,1,2053,2.49991,-0.16088,0,273.796,25.9,
1544,1,SBT2050,2,3,,1,2107,2.49995,-0.15538,0,276.166,25.9,
1544,1,SBT2050,2,3,,1,2161,2.50009,-0.1502,0,278.456,25.9,
1544,1,SBT2050,2,3,,1,2215,2.49979,-0.14499,0,280.671,25.8,
1544,1,SBT2050,2,3,,1,2269,2.49992,-0.14057,0,282.814,25.8,
1544,1,SBT2050,2,3,,1,2323,2.49979,-0.13602,0,284.888,25.8,
1544,1,SBT2050,2,3,,1,2377,2.49995,-0.13168,0,286.897,25.7,
1544,1,SBT2050,2,3,,1,2431,2.49992,-0.12764,0,288.842,25.7,
1544,1,SBT2050,2,3,,1,2485,2.49995,-0.12369,0,290.727,25.7,
1544,1,SBT2050,2,3,,1,2539,2.49987,-0.12002,0,292.555,25.7,
1544,1,SBT2050,2,3,,1,2593,2.5001,-0.11664,0,294.328,25.7,
1544,1,SBT2050,2,3,,1,2647,2.49985,-0.11329,0,296.051,25.6,
1544,1,SBT2050,2,3,,1,2701,2.4998,-0.11007,0,297.727,25.6,
1544,1,SBT2050,2,3,,1,2755,2.50005,-0.10695,0,299.354,25.6,
1544,1,SBT2050,2,3,,1,2809,2.50009,-0.10404,0,300.935,25.5,
1544,1,SBT2050,2,3,,1,2863,2.49997,-0.10118,0,302.472,25.6,
1544,1,SBT2050,2,3,,1,2917,2.50016,-0.09859,0,303.97,25.5,
1544,1,SBT2050,2,3,,1,2971,2.49986,-0.09588,0,305.428,25.5,
1544,1,SBT2050,2,3,,1,3025,2.500217,-0.09342,0,306.849,25.5,
1544,1,SBT2050,2,3,,1,3079,2.49998,-0.09111,0,308.233,25.4,
1544,1,SBT2050,2,3,,1,3133,2.50001,-0.08867,0,309.581,25.4,
1544,1,SBT2050,2,3,,1,3187,2.5001,-0.0867,0,310.896,25.5,
1544,1,SBT2050,2,3,,1,3241,2.49997,-0.08449,0,312.179,25.5,
1544,1,SBT2050,2,3,,1,3295,2.49998,-0.08259,0,313.432,25.5,
1544,1,SBT2050,2,3,,1,3349,2.49982,-0.0805,0,314.656,25.4,
1544,1,SBT2050,2,3,,1,3403,2.50003,-0.07853,0,315.851,25.4,
1544,1,SBT2050,2,3,,1,3457,2.49986,-0.07672,0,317.016,25.4,
1544,1,SBT2050,2,3,,1,3511,2.49979,-0.07476,0,318.152,25.4,
1544,1,SBT2050,2,3,,1,3565,2.49997,-0.07294,0,319.261,25.4,
1544,1,SBT2050,2,3,,1,3619,2.49997,-0.07132,0,320.344,25.4,
1544,1,SBT2050,2,3,,1,3673,2.50005,-0.06962,0,321.401,25.4,
1544,1,SBT2050,2,3,,1,3727,2.49995,-0.0677,0,322.431,25.3,
1544,1,SBT2050,2,3,,1,3781,2.49986,-0.06601,0,323.436,25.3,
1544,1,SBT2050,2,3,,1,3835,2.49997,-0.06444,0,324.415,25.4,
1544,1,SBT2050,2,3,,1,3889,2.49992,-0.06281,0,325.37,25.3,
1544,1,SBT2050,2,3,,1,3943,2.499895,-0.06124,0,326.302,25.3,
1544,1,SBT2050,2,3,,1,3997,2.49987,-0.0597,0,327.21,25.3,
1544,1,SBT2050,2,3,,1,4051,2.49984,-0.05828,0,328.095,25.3,
1544,1,SBT2050,2,3,,1,4105,2.50011,-0.05694,0,328.959,25.3,
1544,1,SBT2050,2,3,,1,4159,2.50007,-0.05561,0,329.803,25.3,
1544,1,SBT2050,2,3,,1,4213,2.49998,-0.05418,0,330.626,25.3,
1544,1,SBT2050,2,3,,1,4267,2.49974,-0.05271,0,331.429,25.3,
1544,1,SBT2050,2,3,,1,4321,2.50003,-0.05163,0,332.212,25.3,
1544,1,SBT2050,2,3,,1,4375,2.500038,-0.05035,0,332.976,25.3,
1544,1,SBT2050,2,3,,1,4429,2.49997,-0.04922,0,333.722,25.3,
1544,1,SBT2050,2,3,,1,4483,2.50005,-0.04803,0,334.45,25.2,
1544,1,SBT2050,2,3,,1,4537,2.49998,-0.046928,0,335.16,25.2,
1544,1,SBT2050,2,3,,1,4591,2.499883,-0.045829,0,335.854,25.2,
1544,1,SBT2050,2,3,,1,4645,2.49994,-0.044371,0,336.53,25.2,
1544,1,SBT2050,2,3,,1,4699,2.500038,-0.043328,0,337.19,25.2,
1544,1,SBT2050,2,3,,1,4753,2.50005,-0.042492,0,337.834,25.2,
1544,1,SBT2050,2,3,,1,4807,2.5,-0.041353,0,338.462,25.2,
1544,1,SBT2050,2,3,,1,4861,2.50001,-0.04037,0,339.075,25.2,
1544,1,SBT2050,2,3,,1,4915,2.49998,-0.039124,0,339.672,25.2,
1544,1,SBT2050,2,3,,1,4969,2.49997,-0.038285,0,340.254,25.2,
1544,1,SBT2050,2,3,,1,5023,2.50013,-0.037416,0,340.822,25.2,
1544,1,SBT2050,2,3,,1,5077,2.5001,-0.036484,0,341.375,25.2,
1544,1,SBT2050,2,3,,1,5131,2.5,-0.035497,0,341.916,25.2,
1544,1,SBT2050,2,3,,1,5185,2.49997,-0.034638,0,342.442,25.2,
1544,1,SBT2050,2,3,,1,5239,2.50001,-0.03373,0,342.954,25.1,
1544,1,SBT2050,2,3,,1,5293,2.500062,-0.032886,0,343.454,25.2,
1544,1,SBT2050,2,3,,1,5347,2.49998,-0.031975,0,343.94,25.2,
1544,1,SBT2050,2,3,,1,5401,2.4998,-0.031168,0,344.415,25.2,
1544,1,SBT2050,2,3,,1,5455,2.49991,-0.030316,0,344.877,25.1,
1544,1,SBT2050,2,3,,1,5509,2.500062,-0.029725,0,345.327,25.2,
1544,1,SBT2050,2,3,,1,5563,2.500193,-0.02884,0,345.766,25.1,
1544,1,SBT2050,2,3,,1,5617,2.50009,-0.028284,0,346.193,25.1,
1544,1,SBT2050,2,3,,1,5671,2.5001,-0.027347,0,346.608,25.1,
1544,1,SBT2050,2,3,,1,5725,2.50003,-0.026698,0,347.013,25.1,
1544,1,SBT2050,2,3,,1,5779,2.50001,-0.025981,0,347.407,25.1,
1544,1,SBT2050,2,3,,1,5833,2.500038,-0.025145,0,347.791,25.1,
1544,1,SBT2050,2,3,,1,5887,2.5,-0.024574,0,348.165,25.1,
1544,1,SBT2050,2,3,,1,5941,2.50017,-0.023952,0,348.529,25.1,
1544,1,SBT2050,2,3,,1,5995,2.50003,-0.023291,0,348.884,25.1,
1544,1,SBT2050,2,3,,1,6049,2.49998,-0.02264,0,349.23,25.1,
1544,1,SBT2050,2,3,,1,6103,2.49999,-0.022243,0,349.567,25.1,
1544,1,SBT2050,2,3,,1,6157,2.500062,-0.021612,0,349.896,25.1,
1544,1,SBT2050,2,3,,1,6211,2.49991,-0.021174,0,350.217,25.1,
1544,1,SBT2050,2,3,,1,6265,2.5001,-0.020635,0,350.53,25.1,
1544,1,SBT2050,2,3,,1,6319,2.49998,-0.020003,0,350.834,25.1,
1544,1,SBT2050,2,3,,1,6373,2.50011,-0.019581,0,351.131,25.1,
1544,1,SBT2050,2,3,,1,6427,2.500062,-0.019077,0,351.42,25.1,
1544,1,SBT2050,2,3,,1,6481,2.5,-0.018642,0,351.702,25.1,
1544,1,SBT2050,2,3,,1,6535,2.50003,-0.018063,0,351.976,25.1,
1544,1,SBT2050,2,3,,1,6589,2.50005,-0.017704,0,352.243,25.1,
1544,1,SBT2050,2,3,,1,6643,2.50001,-0.01702,0,352.502,25.1,
1544,1,SBT2050,2,3,,1,6697,2.50007,-0.016693,0,352.755,25.1,
1544,1,SBT2050,2,3,,1,6751,2.49998,-0.016193,0,353.001,25.1,
1544,1,SBT2050,2,3,,1,6805,2.49987,-0.015699,0,353.24,25.1,
1544,1,SBT2050,2,3,,1,6859,2.50003,-0.015389,0,353.473,25.1,
1544,1,SBT2050,2,3,,1,6913,2.499895,-0.014776,0,353.7,25.1,
1544,1,SBT2050,2,3,,1,6967,2.5,-0.01443,0,353.92,25.1,
1544,1,SBT2050,2,3,,1,7021,2.50015,-0.014298,0,354.135,25.1,
1544,1,SBT2050,2,3,,1,7075,2.49999,-0.013728,0,354.343,25.1,
1544,1,SBT2050,2,3,,1,7129,2.499883,-0.01328,0,354.546,25.1,
1544,1,SBT2050,2,3,,1,7183,2.499895,-0.013022,0,354.743,25.1,
1544,1,SBT2050,2,3,,1,7237,2.500038,-0.012645,0,354.935,25,
1544,1,SBT2050,2,3,,1,7291,2.50003,-0.012327,0,355.122,25.1,
1544,1,SBT2050,2,3,,1,7345,2.50011,-0.01199,0,355.304,25.1,
1544,1,SBT2050,2,3,,1,7399,2.49998,-0.011652,0,355.48,25.1,
1544,1,SBT2050,2,3,,1,7453,2.49992,-0.01122,0,355.653,25,
1544,1,SBT2050,2,3,,1,7507,2.49994,-0.010913,0,355.82,25,
1544,1,SBT2050,2,3,,1,7561,2.49994,-0.010709,0,355.983,25,
1544,1,SBT2050,2,3,,1,7615,2.50007,-0.01044,0,356.142,25.1,
1544,1,SBT2050,2,3,,1,7669,2.50007,-0.010179,0,356.297,25,
1544,1,SBT2050,2,3,,2,7722,3.42956,2.9358,35.576,356.324,25.3,
1544,1,SBT2050,2,3,,2,7776,3.599886,2.9358,79.616,356.324,25.9,
1544,1,SBT2050,2,3,,2,7830,3.65443,2.936,123.655,356.324,26.6,
1544,1,SBT2050,2,3,,2,7884,3.67076,2.9364,167.694,356.324,27.4,
1544,1,SBT2050,2,3,,2,7938,3.687352,2.9366,211.733,356.324,28.1,
1544,1,SBT2050,2,3,,2,7992,3.70339,2.9363,255.772,356.324,28.6,
1544,1,SBT2050,2,3,,2,8046,3.71807,2.9358,299.811,356.324,29,
1544,1,SBT2050,2,3,,2,8100,3.73035,2.9358,343.85,356.324,29.4,
1544,1,SBT2050,2,3,,2,8154,3.74077,2.936,387.889,356.324,29.7,
1544,1,SBT2050,2,3,,2,8208,3.74897,2.9361,431.928,356.324,29.8,
1544,1,SBT2050,2,3,,2,8262,3.75708,2.9356,475.967,356.324,30,
1544,1,SBT2050,2,3,,2,8316,3.76533,2.9357,520.006,356.324,30.1,
1544,1,SBT2050,2,3,,2,8370,3.77392,2.9359,564.045,356.324,30.2,
1544,1,SBT2050,2,3,,2,8424,3.78355,2.9354,608.084,356.324,30.2,
1544,1,SBT2050,2,3,,2,8478,3.792814,2.9362,652.123,356.324,30.2,
1544,1,SBT2050,2,3,,2,8532,3.80246,2.9357,696.163,356.324,30.3,
1544,1,SBT2050,2,3,,2,8586,3.81239,2.9361,740.202,356.324,30.3,
1544,1,SBT2050,2,3,,2,8640,3.823,2.9364,784.241,356.324,30.3,
1544,1,SBT2050,2,3,,2,8694,3.83313,2.9358,828.28,356.324,30.3,
1544,1,SBT2050,2,3,,2,8748,3.84425,2.9364,872.319,356.324,30.3,
1544,1,SBT2050,2,3,,2,8802,3.85591,2.9359,916.358,356.324,30.3,
1544,1,SBT2050,2,3,,2,8856,3.86786,2.9358,960.397,356.324,30.3,
1544,1,SBT2050,2,3,,2,8910,3.88068,2.9358,1004.436,356.324,30.3,
1544,1,SBT2050,2,3,,2,8964,3.89396,2.9359,1048.475,356.324,30.3,
1544,1,SBT2050,2,3,,2,9018,3.90795,2.9361,1092.515,356.324,30.4,
1544,1,SBT2050,2,3,,2,9072,3.921936,2.9353,1136.554,356.324,30.5,
1544,1,SBT2050,2,3,,2,9126,3.93624,2.9361,1180.593,356.324,30.5,
1544,1,SBT2050,2,3,,2,9180,3.951332,2.9363,1224.632,356.324,30.5,
1544,1,SBT2050,2,3,,2,9234,3.966426,2.9363,1268.671,356.324,30.6,
1544,1,SBT2050,2,3,,2,9288,3.98167,2.9357,1312.71,356.324,30.7,
1544,1,SBT2050,2,3,,2,9342,3.99711,2.9355,1356.749,356.324,30.7,
1544,1,SBT2050,2,3,,2,9396,4.013358,2.9359,1400.788,356.324,30.7,
1544,1,SBT2050,2,3,,2,9450,4.02952,2.9361,1444.827,356.324,30.8,
1544,1,SBT2050,2,3,,2,9504,4.0457,2.9361,1488.866,356.324,30.8,
1544,1,SBT2050,2,3,,2,9558,4.06158,2.9361,1532.905,356.324,30.9,
1544,1,SBT2050,2,3,,2,9612,4.07785,2.9355,1576.944,356.324,30.9,
1544,1,SBT2050,2,3,,2,9666,4.09407,2.9358,1620.983,356.324,31,
1544,1,SBT2050,2,3,,2,9720,4.11041,2.9358,1665.022,356.324,31,
1544,1,SBT2050,2,3,,2,9774,4.12684,2.9357,1709.061,356.324,31,
1544,1,SBT2050,2,3,,2,9828,4.14382,2.9362,1753.1,356.324,31.1,
1544,1,SBT2050,2,3,,2,9882,4.150104,2.7748,1796.301,356.324,31.2,
1544,1,SBT2050,2,3,,2,9936,4.15003,2.5808,1836.436,356.324,31,
1544,1,SBT2050,2,3,,2,9990,4.14994,2.4015,1873.801,356.324,30.9,
1544,1,SBT2050,2,3,,2,10044,4.15002,2.2288,1908.525,356.324,30.7,
1544,1,SBT2050,2,3,,2,10098,4.1502,2.0717,1940.775,356.324,30.4,
1544,1,SBT2050,2,3,,2,10152,4.14995,1.9256,1970.731,356.324,30.1,
1544,1,SBT2050,2,3,,2,10206,4.15001,1.7903,1998.585,356.324,29.8,
1544,1,SBT2050,2,3,,2,10260,4.150068,1.6693,2024.52,356.324,29.5,
1544,1,SBT2050,2,3,,2,10314,4.14994,1.5557,2048.693,356.324,29.2,
1544,1,SBT2050,2,3,,2,10368,4.15012,1.4558,2071.272,356.324,28.9,
1544,1,SBT2050,2,3,,2,10422,4.15001,1.3616,2092.394,356.324,28.6,
1544,1,SBT2050,2,3,,2,10476,4.14998,1.2792,2112.2,356.324,28.3,
1544,1,SBT2050,2,3,,2,10530,4.14998,1.203,2130.808,356.324,28.1,
1544,1,SBT2050,2,3,,2,10584,4.15019,1.1348,2148.338,356.324,27.9,
1544,1,SBT2050,2,3,,2,10638,4.15,1.0719,2164.877,356.324,27.6,
1544,1,SBT2050,2,3,,2,10692,4.15028,1.0116,2180.505,356.324,27.5,
1544,1,SBT2050,2,3,,2,10746,4.14997,0.9603,2195.298,356.324,27.3,
1544,1,SBT2050,2,3,,2,10800,4.14987,0.9113,2209.321,356.324,27.1,
1544,1,SBT2050,2,3,,2,10854,4.14997,0.865,2222.633,356.324,27,
1544,1,SBT2050,2,3,,2,10908,4.15001,0.823,2235.289,356.324,26.9,
1544,1,SBT2050,2,3,,2,10962,4.150056,0.7839,2247.337,356.324,26.7,
1544,1,SBT2050,2,3,,2,11016,4.15015,0.7482,2258.828,356.324,26.6,
1544,1,SBT2050,2,3,,2,11070,4.1499,0.714,2269.792,356.324,26.5,
1544,1,SBT2050,2,3,,2,11124,4.15029,0.6834,2280.269,356.324,26.4,
1544,1,SBT2050,2,3,,2,11178,4.14996,0.6537,2290.292,356.324,26.3,
1544,1,SBT2050,2,3,,2,11232,4.150056,0.627,2299.89,356.324,26.2,
1544,1,SBT2050,2,3,,2,11286,4.15002,0.6018,2309.097,356.324,26.2,
1544,1,SBT2050,2,3,,2,11340,4.15019,0.5766,2317.932,356.324,26.1,
1544,1,SBT2050,2,3,,2,11394,4.15003,0.5532,2326.406,356.324,26,
1544,1,SBT2050,2,3,,2,11448,4.15018,0.5326,2334.552,356.324,25.9,
1544,1,SBT2050,2,3,,2,11502,4.15019,0.5142,2342.4,356.324,25.9,
1544,1,SBT2050,2,3,,2,11556,4.15022,0.4943,2349.964,356.324,25.9,
1544,1,SBT2050,2,3,,2,11610,4.14994,0.4779,2357.259,356.324,25.8,
1544,1,SBT2050,2,3,,2,11664,4.150056,0.46158,2364.294,356.324,25.8,
1544,1,SBT2050,2,3,,2,11718,4.15025,0.44499,2371.082,356.324,25.7,
1544,1,SBT2050,2,3,,2,11772,4.15022,0.43051,2377.651,356.324,25.7,
1544,1,SBT2050,2,3,,2,11826,4.15012,0.41731,2384.009,356.324,25.7,
1544,1,SBT2050,2,3,,2,11880,4.1499,0.40399,2390.167,356.324,25.7,
1544,1,SBT2050,2,3,,2,11934,4.150092,0.39216,2396.132,356.324,25.7,
1544,1,SBT2050,2,3,,2,11988,4.15003,0.37969,2401.913,356.324,25.6,
1544,1,SBT2050,2,3,,2,12042,4.150092,0.36901,2407.52,356.324,25.6,
1544,1,SBT2050,2,3,,2,12096,4.14991,0.35816,2412.969,356.324,25.6,
1544,1,SBT2050,2,3,,2,12150,4.14994,0.34707,2418.257,356.324,25.5,
1544,1,SBT2050,2,3,,2,12204,4.15014,0.33774,2423.392,356.324,25.5,
1544,1,SBT2050,2,3,,2,12258,4.14996,0.32805,2428.384,356.324,25.5,
1544,1,SBT2050,2,3,,2,12312,4.15016,0.3189,2433.233,356.324,25.5,
1544,1,SBT2050,2,3,,2,12366,4.14984,0.30984,2437.951,356.324,25.5,
1544,1,SBT2050,2,3,,2,12420,4.15021,0.30112,2442.537,356.324,25.4,
1544,1,SBT2050,2,3,,2,12474,4.150092,0.29341,2447,356.324,25.4,
1544,1,SBT2050,2,3,,2,12528,4.150104,0.28605,2451.35,356.324,25.4,
1544,1,SBT2050,2,3,,2,12582,4.149746,0.27888,2455.584,356.324,25.4,
1544,1,SBT2050,2,3,,2,12636,4.14997,0.27132,2459.715,356.324,25.4,
1544,1,SBT2050,2,3,,2,12690,4.15,0.26512,2463.738,356.324,25.4,
1544,1,SBT2050,2,3,,2,12744,4.14991,0.25785,2467.661,356.324,25.4,
1544,1,SBT2050,2,3,,2,12798,4.1499,0.2512,2471.476,356.324,25.3,
1544,1,SBT2050,2,3,,2,12852,4.14995,0.24512,2475.201,356.324,25.3,
1544,1,SBT2050,2,3,,2,12906,4.15001,0.23936,2478.838,356.324,25.3,
1544,1,SBT2050,2,3,,2,12960,4.150056,0.23385,2482.384,356.324,25.3,
1544,1,SBT2050,2,3,,2,13014,4.14996,0.22839,2485.849,356.324,25.3,
1544,1,SBT2050,2,3,,2,13068,4.15003,0.22293,2489.234,356.324,25.3,
1544,1,SBT2050,2,3,,2,13122,4.14997,0.21798,2492.54,356.324,25.3,
1544,1,SBT2050,2,3,,2,13176,4.14989,0.21355,2495.776,356.324,25.3,
1544,1,SBT2050,2,3,,2,13230,4.14991,0.20889,2498.946,356.324,25.3,
1544,1,SBT2050,2,3,,2,13284,4.14987,0.20525,2502.045,356.324,25.3,
1544,1,SBT2050,2,3,,2,13338,4.14995,0.20084,2505.084,356.324,25.3,
1544,1,SBT2050,2,3,,2,13392,4.14995,0.19668,2508.061,356.324,25.3,
1544,1,SBT2050,2,3,,2,13446,4.15008,0.19263,2510.979,356.324,25.3,
1544,1,SBT2050,2,3,,2,13500,4.14989,0.18878,2513.84,356.324,25.3,
1544,1,SBT2050,2,3,,2,13554,4.14997,0.18491,2516.643,356.324,25.2,
1544,1,SBT2050,2,3,,2,13608,4.14972,0.1814,2519.387,356.324,25.2,
1544,1,SBT2050,2,3,,2,13662,4.14983,0.17813,2522.08,356.324,25.3,
1544,1,SBT2050,2,3,,2,13716,4.15018,0.17461,2524.726,356.324,25.3,
1544,1,SBT2050,2,3,,2,13770,4.150104,0.17125,2527.323,356.324,25.3,
1544,1,SBT2050,2,3,,2,13824,4.150056,0.16748,2529.867,356.324,25.2,
1544,1,SBT2050,2,3,,2,13878,4.15,0.16479,2532.361,356.324,25.3,
1544,1,SBT2050,2,3,,2,13932,4.15031,0.16171,2534.813,356.324,25.2,
1544,1,SBT2050,2,3,,2,13986,4.14988,0.15943,2537.219,356.324,25.2,
1544,1,SBT2050,2,3,,2,14040,4.15,0.15601,2539.588,356.324,25.2,
1544,1,SBT2050,2,3,,2,14094,4.15002,0.15323,2541.91,356.324,25.3,
1544,1,SBT2050,2,3,,2,14148,4.15004,0.15024,2544.187,356.324,25.3,
1544,1,SBT2050,2,3,,2,14202,4.14998,0.14783,2546.426,356.324,25.2,
1544,1,SBT2050,2,3,,2,14256,4.14971,0.14608,2548.626,356.324,25.2,
1544,1,SBT2050,2,3,,2,14310,4.14998,0.1431,2550.79,356.324,25.2,
1544,1,SBT2050,2,3,,2,14364,4.15012,0.1407,2552.919,356.324,25.2,
1544,1,SBT2050,2,3,,2,14418,4.150068,0.13813,2555.01,356.324,25.2,
1544,1,SBT2050,2,3,,2,14472,4.14998,0.13569,2557.064,356.324,25.2,
1544,1,SBT2050,2,3,,2,14526,4.14977,0.13366,2559.083,356.324,25.2,
1544,1,SBT2050,2,3,,2,14580,4.14997,0.13126,2561.067,356.324,25.2,
1544,1,SBT2050,2,3,,2,14634,4.14994,0.12923,2563.02,356.324,25.2,
1544,1,SBT2050,2,3,,2,14688,4.150104,0.12654,2564.939,356.324,25.2,
1544,1,SBT2050,2,3,,2,14742,4.14998,0.12527,2566.827,356.324,25.2,
1544,1,SBT2050,2,3,,2,14796,4.15003,0.12266,2568.686,356.324,25.2,
1544,1,SBT2050,2,3,,2,14850,4.14981,0.12046,2570.511,356.324,25.2,
1544,1,SBT2050,2,3,,2,14904,4.15014,0.11855,2572.302,356.324,25.2,
1544,1,SBT2050,2,3,,2,14958,4.15004,0.11712,2574.065,356.324,25.2,
1544,1,SBT2050,2,3,,2,15012,4.150104,0.11559,2575.811,356.324,25.2,
1544,1,SBT2050,2,3,,2,15066,4.150056,0.11382,2577.527,356.324,25.2,
1544,1,SBT2050,2,3,,2,15120,4.150092,0.11124,2579.212,356.324,25.2,
1544,1,SBT2050,2,3,,2,15174,4.14988,0.10966,2580.868,356.324,25.2,
1544,1,SBT2050,2,3,,2,15228,4.14997,0.10829,2582.504,356.324,25.2,
1544,1,SBT2050,2,3,,2,15282,4.15004,0.10656,2584.115,356.324,25.1,
1544,1,SBT2050,2,3,,2,15336,4.14988,0.10523,2585.703,356.324,25.2,
1544,1,SBT2050,2,3,,2,15390,4.15012,0.10377,2587.266,356.324,25.2,
1544,1,SBT2050,2,3,,2,15444,4.15003,0.10204,2588.809,356.324,25.2,
1544,1,SBT2050,2,3,,2,15498,4.15001,0.10002,2590.326,356.324,25.2,
1544,1,SBT2050,2,3,,2,15552,4.150104,0.09889,2591.821,356.324,25.2,
1544,1,SBT2050,2,3,,2,15606,4.15008,0.09729,2593.293,356.324,25.2,
1544,1,SBT2050,2,3,,2,15660,4.15003,0.0959,2594.74,356.324,25.1,
1544,1,SBT2050,2,3,,2,15714,4.150068,0.09475,2596.17,356.324,25.1,
1544,1,SBT2050,2,3,,2,15768,4.15001,0.09387,2597.584,356.324,25.1,
1544,1,SBT2050,2,3,,2,15822,4.150068,0.09218,2598.976,356.324,25.1,
1544,1,SBT2050,2,3,,2,15876,4.15026,0.09082,2600.348,356.324,25.2,
1544,1,SBT2050,2,3,,2,15930,4.14984,0.08957,2601.7,356.324,25.2,
1544,1,SBT2050,2,3,,2,15984,4.14992,0.08802,2603.032,356.324,25.1,
1544,1,SBT2050,2,3,,2,16038,4.1499,0.08648,2604.342,356.324,25.1,
1544,1,SBT2050,2,3,,2,16092,4.14984,0.08542,2605.636,356.324,25.1,
1544,1,SBT2050,2,3,,2,16146,4.15004,0.08461,2606.912,356.324,25.1,
1544,1,SBT2050,2,3,,2,16200,4.15004,0.08373,2608.173,356.324,25.1,
1544,1,SBT2050,2,3,,2,16254,4.14983,0.08227,2609.416,356.324,25.1,
1544,1,SBT2050,2,3,,2,16308,4.14994,0.08111,2610.641,356.324,25.1,
1544,1,SBT2050,2,3,,2,16362,4.14997,0.0796,2611.845,356.324,25.1,
1544,1,SBT2050,2,3,,2,16416,4.15013,0.07886,2613.034,356.324,25.1,
1544,1,SBT2050,2,3,,2,16470,4.15001,0.07806,2614.211,356.324,25.1,
1544,1,SBT2050,2,3,,2,16524,4.14994,0.07683,2615.374,356.324,25.1,
1544,1,SBT2050,2,3,,2,16578,4.14987,0.07561,2616.52,356.324,25.1,
1544,1,SBT2050,2,3,,2,16632,4.15004,0.07492,2617.652,356.324,25.1,
1544,1,SBT2050,2,3,,2,16686,4.15019,0.07363,2618.769,356.324,25.1,
1544,1,SBT2050,2,3,,2,16740,4.15001,0.07249,2619.865,356.324,25.1,
1544,1,SBT2050,2,3,,2,16794,4.15013,0.07184,2620.951,356.324,25.1,
1544,1,SBT2050,2,3,,2,16848,4.14971,0.07088,2622.02,356.324,25.1,
1544,1,SBT2050,2,3,,2,16902,4.14994,0.07017,2623.077,356.324,25.1,
1544,1,SBT2050,2,3,,2,16956,4.15022,0.06891,2624.121,356.324,25.1,
1544,1,SBT2050,2,3,,2,17010,4.15014,0.06839,2625.152,356.324,25.1,
1544,1,SBT2050,2,3,,2,17064,4.14997,0.06747,2626.169,356.324,25.1,
1544,1,SBT2050,2,3,,2,17118,4.149794,0.06669,2627.172,356.324,25.1,
1544,1,SBT2050,2,3,,2,17172,4.15004,0.06559,2628.161,356.324,25.1,
1544,1,SBT2050,2,3,,2,17226,4.15008,0.06481,2629.14,356.324,25.1,
1544,1,SBT2050,2,3,,2,17280,4.14987,0.06407,2630.108,356.324,25.1,
1544,1,SBT2050,2,3,,2,17334,4.15026,0.0633,2631.064,356.324,25.1,
1544,1,SBT2050,2,3,,2,17388,4.150056,0.06264,2632.008,356.324,25.1,
1544,1,SBT2050,2,3,,2,17442,4.149782,0.06176,2632.94,356.324,25.1,
1544,1,SBT2050,2,3,,2,17496,4.15019,0.06073,2633.858,356.324,25.1,
1544,1,SBT2050,2,3,,2,17550,4.14995,0.06041,2634.766,356.324,25.1,
1544,1,SBT2050,2,3,,2,17604,4.15027,0.0595,2635.664,356.324,25.1,
1544,1,SBT2050,2,3,,2,17658,4.15018,0.05841,2636.549,356.324,25.1,
1544,1,SBT2050,2,3,,2,17712,4.14994,0.05782,2637.425,356.324,25.1,
1544,1,SBT2050,2,3,,2,17766,4.15,0.05735,2638.289,356.324,25.1,
1544,1,SBT2050,2,3,,2,17820,4.14982,0.05683,2639.144,356.324,25.1,
1544,1,SBT2050,2,3,,2,17874,4.15008,0.0558,2639.987,356.324,25.1,
1544,1,SBT2050,2,3,,2,17928,4.15021,0.05527,2640.817,356.324,25.1,
1544,1,SBT2050,2,3,,2,17982,4.14992,0.05412,2641.644,356.324,25.1,
1544,1,SBT2050,2,3,,2,18036,4.150068,0.054,2642.456,356.324,25.1,
1544,1,SBT2050,2,3,,2,18090,4.14988,0.05325,2643.262,356.324,25.1,
1544,1,SBT2050,2,3,,2,18144,4.14994,0.0528,2644.058,356.324,25.1,
1544,1,SBT2050,2,3,,2,18198,4.15002,0.05189,2644.842,356.324,25.1,
1544,1,SBT2050,2,3,,2,18252,4.15015,0.05116,2645.617,356.324,25.1,
1544,1,SBT2050,2,3,,2,18306,4.14997,0.05043,2646.383,356.324,25,
1544,1,SBT2050,2,3,,2,18360,4.15019,0.04987,2647.139,356.324,25.1,
1544,1,SBT2050,2,3,,2,18414,4.14996,0.04966,2647.887,356.324,25.1,
1544,1,SBT2050,2,3,,2,18468,4.14987,0.04888,2648.626,356.324,25.1,
1544,1,SBT2050,2,3,,2,18522,4.15026,0.04815,2649.352,356.324,25.1,
1544,1,SBT2050,2,3,,2,18576,4.15015,0.047572,2650.069,356.324,25.1,
1544,1,SBT2050,2,3,,2,18630,4.14977,0.047131,2650.778,356.324,25.1,
1544,1,SBT2050,2,3,,2,18684,4.149782,0.046785,2651.482,356.324,25.1,
1544,1,SBT2050,2,3,,2,18738,4.14991,0.04644,2652.179,356.324,25.1,
1544,1,SBT2050,2,3,,2,18792,4.15003,0.045788,2652.869,356.324,25.1,
1544,1,SBT2050,2,3,,2,18846,4.15029,0.044995,2653.552,356.324,25.1,
1544,1,SBT2050,2,3,,2,18900,4.15013,0.044692,2654.226,356.324,25.1,
1544,1,SBT2050,2,3,,2,18954,4.15001,0.044239,2654.891,356.324,25.1,
1544,1,SBT2050,2,3,,2,19008,4.15003,0.043175,2655.546,356.324,25.1,
1544,1,SBT2050,2,3,,2,19062,4.150068,0.043254,2656.196,356.324,25.1,
1544,1,SBT2050,2,3,,2,19116,4.14992,0.043059,2656.842,356.324,25.1,
1544,1,SBT2050,2,3,,2,19170,4.14998,0.042151,2657.481,356.324,25.1,
1544,1,SBT2050,2,3,,2,19224,4.15008,0.041301,2658.111,356.324,25.1,
1544,1,SBT2050,2,3,,2,19278,4.15015,0.040788,2658.731,356.324,25.1,
1544,1,SBT2050,2,3,,2,19332,4.14995,0.040649,2659.342,356.324,25.1,
1544,1,SBT2050,2,3,,2,19386,4.14995,0.04029,2659.949,356.324,25.1,
1544,1,SBT2050,2,3,,2,19440,4.14984,0.039969,2660.552,356.324,25.1,
1544,1,SBT2050,2,3,,2,19494,4.14992,0.039816,2661.15,356.324,25.1,
1544,1,SBT2050,2,3,,2,19548,4.15001,0.03877,2661.739,356.324,25.1,
1544,1,SBT2050,2,3,,2,19602,4.15004,0.038258,2662.323,356.324,25.1,
1544,1,SBT2050,2,3,,2,19656,4.1502,0.037833,2662.896,356.324,25.1,
1544,1,SBT2050,2,3,,2,19710,4.150056,0.037551,2663.462,356.324,25,
1544,1,SBT2050,2,3,,2,19764,4.15015,0.037101,2664.021,356.324,25,
1544,1,SBT2050,2,3,,2,19818,4.14985,0.037024,2664.575,356.324,25,
1544,1,SBT2050,2,3,,2,19872,4.15029,0.036377,2665.127,356.324,25.1,
1544,1,SBT2050,2,3,,2,19926,4.150092,0.035966,2665.671,356.324,25.1,
1544,1,SBT2050,2,3,,2,19980,4.15029,0.035495,2666.204,356.324,25.1,
1544,1,SBT2050,2,3,,2,20034,4.149746,0.035204,2666.735,356.324,25.1,
1544,1,SBT2050,2,3,,2,20088,4.150104,0.035015,2667.26,356.324,25,
1544,1,SBT2050,2,3,,2,20142,4.149758,0.034602,2667.782,356.324,25.1,
1544,1,SBT2050,2,3,,2,20196,4.15018,0.03427,2668.298,356.324,25,
1544,1,SBT2050,2,3,,2,20250,4.15015,0.034026,2668.812,356.324,25,
1544,1,SBT2050,2,3,,2,20304,4.14994,0.033655,2669.319,356.324,25.1,
1544,1,SBT2050,2,3,,2,20358,4.15012,0.033184,2669.818,356.324,25.1,
1544,1,SBT2050,2,3,,2,20412,4.1502,0.032497,2670.309,356.324,25.1,
1544,1,SBT2050,2,3,,2,20466,4.15002,0.032403,2670.797,356.324,25,
1544,1,SBT2050,2,3,,2,20520,4.15002,0.031977,2671.28,356.324,25,
1544,1,SBT2050,2,3,,2,20574,4.14996,0.031599,2671.758,356.324,25,
1544,1,SBT2050,2,3,,2,20628,4.14994,0.03097,2672.228,356.324,25.1,
1544,1,SBT2050,2,3,,2,20682,4.14995,0.030703,2672.695,356.324,25.1,
1544,1,SBT2050,2,3,,2,20736,4.14989,0.030809,2673.155,356.324,25,
1544,1,SBT2050,2,3,,2,20790,4.14983,0.030501,2673.611,356.324,25,
1544,1,SBT2050,2,3,,2,20844,4.15001,0.030151,2674.065,356.324,25,
1544,1,SBT2050,2,3,,2,20898,4.15008,0.029765,2674.516,356.324,25.1,
1544,1,SBT2050,2,3,,2,20952,4.14985,0.029486,2674.959,356.324,25.1,
1544,1,SBT2050,2,3,,2,21006,4.15004,0.029277,2675.396,356.324,25.1,
1544,1,SBT2050,2,3,,2,21060,4.149758,0.028845,2675.829,356.324,25,
1544,1,SBT2050,2,3,,2,21114,4.15019,0.028689,2676.259,356.324,25,
1544,1,SBT2050,2,3,,2,21168,4.14997,0.027781,2676.682,356.324,25.1,
1544,1,SBT2050,2,3,,2,21222,4.14997,0.027642,2677.101,356.324,25,
1544,1,SBT2050,2,3,,2,21276,4.14992,0.027475,2677.516,356.324,25.1,
1544,1,SBT2050,2,3,,2,21330,4.150068,0.027154,2677.929,356.324,25,
1544,1,SBT2050,2,3,,2,21384,4.150068,0.027216,2678.338,356.324,25,
1544,1,SBT2050,2,3,,2,21438,4.15018,0.026843,2678.743,356.324,25,
1544,1,SBT2050,2,3,,2,21492,4.15,0.026216,2679.139,356.324,25.1,
1544,1,SBT2050,2,3,,2,21546,4.15001,0.026408,2679.534,356.324,25,
1544,1,SBT2050,2,3,,2,21600,4.14988,0.026276,2679.927,356.324,25,
1544,1,SBT2050,2,3,,2,21654,4.15004,0.025881,2680.316,356.324,25,
1544,1,SBT2050,2,3,,2,21708,4.14989,0.025838,2680.703,356.324,25.1,
1544,1,SBT2050,2,3,,2,21762,4.15004,0.025282,2681.086,356.324,25.1,
1544,1,SBT2050,2,3,,2,21816,4.14997,0.025102,2681.462,356.324,25.1,
1544,1,SBT2050,2,3,,2,21870,4.14998,0.025052,2681.836,356.324,25,
1544,1,SBT2050,2,3,,2,21924,4.15024,0.024887,2682.211,356.324,25,
1544,1,SBT2050,2,3,,2,21978,4.14985,0.024218,2682.58,356.324,25,
1544,1,SBT2050,2,3,,2,22032,4.14988,0.023858,2682.941,356.324,25,
1544,1,SBT2050,2,3,,2,22086,4.14985,0.023624,2683.301,356.324,25,
1544,1,SBT2050,2,3,,2,22140,4.14995,0.023688,2683.655,356.324,25,
1544,1,SBT2050,2,3,,2,22194,4.15004,0.023506,2684.009,356.324,25,
1544,1,SBT2050,2,3,,2,22248,4.149746,0.023398,2684.361,356.324,25,
1544,1,SBT2050,2,3,,2,22302,4.14997,0.022962,2684.707,356.324,25,
1544,1,SBT2050,2,3,,2,22356,4.150068,0.022732,2685.051,356.324,25,
1544,1,SBT2050,2,3,,2,22410,4.14982,0.022436,2685.395,356.324,25,
1544,1,SBT2050,2,3,,2,22464,4.14995,0.022206,2685.73,356.324,25.1,
1544,1,SBT2050,2,3,,2,22518,4.15015,0.021937,2686.061,356.324,25.1,
1544,1,SBT2050,2,3,,2,22572,4.15004,0.021725,2686.389,356.324,25,
1544,1,SBT2050,2,3,,2,22626,4.15019,0.021559,2686.714,356.324,25,
1544,1,SBT2050,2,3,,2,22680,4.15016,0.021446,2687.034,356.324,25,
1544,1,SBT2050,2,3,,2,22734,4.15,0.021851,2687.356,356.324,25.1,
1544,1,SBT2050,2,3,,2,22788,4.15024,0.021334,2687.676,356.324,25,
1544,1,SBT2050,2,3,,2,22842,4.150104,0.021008,2687.993,356.324,25,
1544,1,SBT2050,2,3,,2,22896,4.150056,0.020317,2688.304,356.324,25,
1544,1,SBT2050,2,3,,2,22950,4.15003,0.020364,2688.609,356.324,25,
1544,1,SBT2050,2,3,,2,23004,4.150068,0.020128,2688.916,356.324,25,
1544,1,SBT2050,2,3,,2,23058,4.1502,0.020064,2689.218,356.324,25,
1544,1,SBT2050,2,3,,2,23112,4.15001,0.019864,2689.519,356.324,25,
1544,1,SBT2050,2,3,,2,23166,4.15018,0.019543,2689.817,356.324,25.1,
1544,1,SBT2050,2,3,,2,23220,4.15,0.019046,2690.114,356.324,25,
1544,1,SBT2050,2,3,,2,23274,4.14994,0.019576,2690.408,356.324,25,
1544,1,SBT2050,2,3,,2,23328,4.14981,0.019276,2690.7,356.324,25,
1544,1,SBT2050,2,3,,2,23382,4.1502,0.018905,2690.985,356.324,25,
1544,1,SBT2050,2,3,,2,23436,4.15,0.019126,2691.272,356.324,25,
1544,1,SBT2050,2,3,,2,23490,4.149782,0.018931,2691.557,356.324,25,
1544,1,SBT2050,2,3,,2,23544,4.15001,0.018391,2691.839,356.324,25,
1544,1,SBT2050,2,3,,2,23598,4.1499,0.018647,2692.116,356.324,25,
1544,1,SBT2050,2,3,,2,23652,4.1499,0.018346,2692.391,356.324,25,
1544,1,SBT2050,2,3,,2,23706,4.15003,0.01822,2692.666,356.324,25,
1544,1,SBT2050,2,3,,2,23760,4.14998,0.018078,2692.94,356.324,25,
1544,1,SBT2050,2,3,,2,23814,4.15031,0.017964,2693.21,356.324,25,
1544,1,SBT2050,2,3,,2,23868,4.15015,0.017849,2693.48,356.324,25,
1544,1,SBT2050,2,3,,2,23922,4.14981,0.017112,2693.743,356.324,25,
1544,1,SBT2050,2,3,,2,23976,4.15004,0.017338,2694.003,356.324,25,
1544,1,SBT2050,2,3,,2,24030,4.15013,0.017059,2694.26,356.324,25,
1544,1,SBT2050,2,3,,2,24084,4.14983,0.017117,2694.516,356.324,25,
1544,1,SBT2050,2,3,,2,24138,4.15003,0.017433,2694.772,356.324,25,
1544,1,SBT2050,2,3,,2,24192,4.14981,0.017009,2695.029,356.324,25,
1544,1,SBT2050,2,3,,2,24246,4.14998,0.016714,2695.281,356.324,25,
1544,1,SBT2050,2,3,,2,24300,4.14991,0.016661,2695.529,356.324,25,
1544,1,SBT2050,2,3,,2,24354,4.15003,0.016232,2695.776,356.324,25,
1544,1,SBT2050,2,3,,2,24408,4.14977,0.016327,2696.019,356.324,25,
1544,1,SBT2050,2,3,,2,24462,4.15032,0.016039,2696.265,356.324,25,
1544,1,SBT2050,2,3,,2,24516,4.150068,0.016,2696.508,356.324,25,
1544,1,SBT2050,2,3,,2,24570,4.15008,0.015683,2696.747,356.324,25,
1544,1,SBT2050,2,3,,2,24624,4.149734,0.015738,2696.983,356.324,25,
1544,1,SBT2050,2,3,,2,24678,4.15013,0.015356,2697.216,356.324,25,
1544,1,SBT2050,2,3,,2,24732,4.14984,0.015513,2697.446,356.324,25,
1544,1,SBT2050,2,3,,2,24786,4.14991,0.015595,2697.676,356.324,25,
1544,1,SBT2050,2,3,,2,24840,4.1499,0.015463,2697.906,356.324,25,
1544,1,SBT2050,2,3,,2,24894,4.15004,0.015027,2698.134,356.324,25,
1544,1,SBT2050,2,3,,2,24948,4.14994,0.014991,2698.364,356.324,25,
1544,1,SBT2050,2,3,,2,25002,4.14996,0.014739,2698.588,356.324,25,
1544,1,SBT2050,2,3,,2,25056,4.15004,0.014784,2698.809,356.324,25,
1544,1,SBT2050,2,3,,2,25110,4.15,0.0149,2699.031,356.324,25,
1544,1,SBT2050,2,3,,2,25164,4.1499,0.014415,2699.251,356.324,25,
1544,1,SBT2050,2,3,,2,25218,4.14992,0.014442,2699.468,356.324,25,
1544,1,SBT2050,2,3,,2,25272,4.14995,0.014493,2699.685,356.324,25,
1544,1,SBT2050,2,3,,2,25326,4.15014,0.014054,2699.898,356.324,25,
1544,1,SBT2050,2,3,,2,25380,4.149782,0.014084,2700.109,356.324,25,
1544,1,SBT2050,2,3,,2,25434,4.1499,0.013857,2700.318,356.324,25,
1544,1,SBT2050,2,3,,2,25488,4.14995,0.013758,2700.525,356.324,25,
1544,1,SBT2050,2,3,,2,25542,4.14985,0.013464,2700.729,356.324,25,
1544,1,SBT2050,2,3,,2,25596,4.15,0.013552,2700.934,356.324,25,
1544,1,SBT2050,2,3,,2,25650,4.150068,0.013821,2701.141,356.324,25,
1544,1,SBT2050,2,3,,2,25704,4.15003,0.01342,2701.344,356.324,25,
1544,1,SBT2050,2,3,,2,25758,4.14997,0.013098,2701.544,356.324,25,
1544,1,SBT2050,2,3,,2,25812,4.15008,0.013245,2701.744,356.324,25,
1544,1,SBT2050,2,3,,2,25866,4.15001,0.013204,2701.942,356.324,25,
1544,1,SBT2050,2,3,,2,25920,4.15004,0.013317,2702.139,356.324,25,
1544,1,SBT2050,2,3,,2,25974,4.14981,0.012986,2702.337,356.324,25,
1544,1,SBT2050,2,3,,2,26028,4.15,0.012987,2702.534,356.324,25,
1544,1,SBT2050,2,3,,2,26082,4.150092,0.013184,2702.727,356.324,25,
1544,1,SBT2050,2,3,,2,26136,4.15003,0.013067,2702.924,356.324,25,
1544,1,SBT2050,2,3,,2,26190,4.15012,0.012643,2703.112,356.324,25,
1544,1,SBT2050,2,3,,2,26244,4.149746,0.012726,2703.3,356.324,25,
1544,1,SBT2050,2,3,,2,26298,4.14994,0.012391,2703.487,356.324,25,
1544,1,SBT2050,2,3,,2,26352,4.14997,0.013007,2703.678,356.324,25,
1544,1,SBT2050,2,3,,2,26406,4.15008,0.012252,2703.864,356.324,25,
1544,1,SBT2050,2,3,,2,26460,4.14982,0.011861,2704.046,356.324,25,
1544,1,SBT2050,2,3,,2,26514,4.15013,0.012017,2704.223,356.324,25,
1544,1,SBT2050,2,3,,2,26568,4.14984,0.011732,2704.4,356.324,25,
1544,1,SBT2050,2,3,,2,26622,4.150068,0.012061,2704.579,356.324,25,
1544,1,SBT2050,2,3,,2,26676,4.15003,0.011778,2704.757,356.324,25,
1544,1,SBT2050,2,3,,2,26730,4.150056,0.011903,2704.936,356.324,25,
1544,1,SBT2050,2,3,,2,26784,4.15002,0.011843,2705.113,356.324,25,
1544,1,SBT2050,2,3,,2,26838,4.14996,0.011134,2705.293,356.324,25,
1544,1,SBT2050,2,3,,2,26892,4.15024,0.011437,2705.463,356.324,25,
1544,1,SBT2050,2,3,,2,26946,4.149734,0.011446,2705.633,356.324,25,
1544,1,SBT2050,2,3,,2,27000,4.15003,0.011353,2705.805,356.324,25,
1544,1,SBT2050,2,3,,2,27054,4.150068,0.011447,2705.975,356.324,25,
1544,1,SBT2050,2,3,,2,27108,4.149794,0.011147,2706.145,356.324,25,
1544,1,SBT2050,2,3,,2,27162,4.14988,0.010846,2706.31,356.324,25,
1544,1,SBT2050,2,3,,2,27216,4.149758,0.010824,2706.473,356.324,25,
1544,1,SBT2050,2,3,,2,27270,4.15002,0.010671,2706.635,356.324,25,
1544,1,SBT2050,2,3,,2,27324,4.14997,0.010941,2706.797,356.324,25,
1544,1,SBT2050,2,3,,2,27378,4.15027,0.010993,2706.962,356.324,25,
1544,1,SBT2050,2,3,,2,27432,4.15008,0.01075,2707.125,356.324,25,
1544,1,SBT2050,2,3,,2,27486,4.14985,0.011026,2707.287,356.324,25,
1544,1,SBT2050,2,3,,2,27540,4.15015,0.010556,2707.446,356.324,25,
1544,1,SBT2050,2,3,,3,27593,4.14873,0,2707.488,356.324,25,
1544,1,SBT2050,2,3,,3,27647,4.14783,0,2707.488,356.324,25,
1544,1,SBT2050,2,3,,3,27701,4.14739,0,2707.488,356.324,25,
1544,1,SBT2050,2,3,,3,27755,4.14718,0,2707.488,356.324,25,
1544,1,SBT2050,2,3,,3,27809,4.14668,0,2707.488,356.324,25,
1544,1,SBT2050,2,3,,3,27863,4.14671,0,2707.488,356.324,25,
1544,1,SBT2050,2,3,,3,27917,4.14652,0,2707.488,356.324,25,
1544,1,SBT2050,2,3,,3,27971,4.146584,0,2707.488,356.324,25,
1544,1,SBT2050,2,3,,3,28025,4.14607,0,2707.488,356.324,24.9,
1544,1,SBT2050,2,3,,3,28079,4.14587,0,2707.488,356.324,25,
1544,1,SBT2050,2,3,,3,28133,4.14586,0,2707.488,356.324,25,
1544,1,SBT2050,2,3,,3,28187,4.14541,0,2707.488,356.324,25,
1544,1,SBT2050,2,3,,3,28241,4.14568,0,2707.488,356.324,25,
1544,1,SBT2050,2,3,,3,28295,4.14535,0,2707.488,356.324,25,
1544,1,SBT2050,2,3,,3,28349,4.14541,0,2707.488,356.324,25,
1544,1,SBT2050,2,3,,3,28403,4.14527,0,2707.488,356.324,25,
1544,1,SBT2050,2,3,,3,28457,4.1447,0,2707.488,356.324,25,
1544,1,SBT2050,2,3,,3,28511,4.14483,0,2707.488,356.324,25,
1544,1,SBT2050,2,3,,3,28565,4.14486,0,2707.488,356.324,25,
1544,1,SBT2050,2,3,,3,28619,4.14471,0,2707.488,356.324,25,
1544,1,SBT2050,2,3,,3,28673,4.14462,0,2707.488,356.324,25,
1544,1,SBT2050,2,3,,3,28727,4.14459,0,2707.488,356.324,25,
1544,1,SBT2050,2,3,,3,28781,4.14454,0,2707.488,356.324,25,
1544,1,SBT2050,2,3,,3,28835,4.14423,0,2707.488,356.324,25,
1544,1,SBT2050,2,3,,3,28889,4.14407,0,2707.488,356.324,25,
1544,1,SBT2050,2,3,,3,28943,4.144272,0,2707.488,356.324,25,
1544,1,SBT2050,2,3,,3,28997,4.14413,0,2707.488,356.324,25,
1544,1,SBT2050,2,3,,3,29051,4.14408,0,2707.488,356.324,25,
1544,1,SBT2050,2,3,,3,29105,4.14369,0,2707.488,356.324,25,
1544,1,SBT2050,2,3,,3,29159,4.14369,0,2707.488,356.324,25,
1544,1,SBT2050,2,3,,3,29213,4.14381,0,2707.488,356.324,25,
1544,1,SBT2050,2,3,,3,29267,4.14368,0,2707.488,356.324,25,
1544,1,SBT2050,2,3,,3,29321,4.14387,0,2707.488,356.324,25,
1544,1,SBT2050,2,3,,4,29374,3.80177,-2.936,2707.488,372.233,25.2,
1544,1,SBT2050,2,3,,4,29428,3.75063,-2.936,2707.488,416.272,26.1,
1544,1,SBT2050,2,3,,4,29482,3.73285,-2.9359,2707.488,460.311,26.9,
1544,1,SBT2050,2,3,,4,29536,3.72317,-2.9361,2707.488,504.35,27.6,
1544,1,SBT2050,2,3,,4,29590,3.71562,-2.9359,2707.488,548.39,28.2,
1544,1,SBT2050,2,3,,4,29644,3.7082,-2.9363,2707.488,592.429,28.7,
1544,1,SBT2050,2,3,,4,29698,3.69997,-2.9358,2707.488,636.468,29,
1544,1,SBT2050,2,3,,4,29752,3.69062,-2.9359,2707.488,680.508,29.2,
1544,1,SBT2050,2,3,,4,29806,3.67995,-2.9362,2707.488,724.547,29.4,
1544,1,SBT2050,2,3,,4,29860,3.66861,-2.9361,2707.488,768.587,29.5,
1544,1,SBT2050,2,3,,4,29914,3.65629,-2.9359,2707.488,812.626,29.6,
1544,1,SBT2050,2,3,,4,29968,3.64343,-2.9356,2707.488,856.665,29.7,
1544,1,SBT2050,2,3,,4,30022,3.62983,-2.9356,2707.488,900.705,29.7,
1544,1,SBT2050,2,3,,4,30076,3.61554,-2.9358,2707.488,944.744,29.7,
1544,1,SBT2050,2,3,,4,30130,3.6013,-2.9359,2707.488,988.783,29.7,
1544,1,SBT2050,2,3,,4,30184,3.586622,-2.936,2707.488,1032.823,29.7,
1544,1,SBT2050,2,3,,4,30238,3.5716,-2.9358,2707.488,1076.862,29.7,
1544,1,SBT2050,2,3,,4,30292,3.55636,-2.936,2707.488,1120.902,29.8,
1544,1,SBT2050,2,3,,4,30346,3.54128,-2.9362,2707.488,1164.941,29.8,
1544,1,SBT2050,2,3,,4,30400,3.52553,-2.9359,2707.488,1208.98,29.8,
1544,1,SBT2050,2,3,,4,30454,3.50956,-2.9359,2707.488,1253.02,29.9,
1544,1,SBT2050,2,3,,4,30508,3.49392,-2.9354,2707.488,1297.059,29.8,
1544,1,SBT2050,2,3,,4,30562,3.47802,-2.9361,2707.488,1341.098,29.9,
1544,1,SBT2050,2,3,,4,30616,3.46214,-2.936,2707.488,1385.138,29.9,
1544,1,SBT2050,2,3,,4,30670,3.446356,-2.936,2707.488,1429.177,30,
1544,1,SBT2050,2,3,,4,30724,3.43057,-2.9357,2707.488,1473.217,29.9,
1544,1,SBT2050,2,3,,4,30778,3.41456,-2.9362,2707.488,1517.256,29.9,
1544,1,SBT2050,2,3,,4,30832,3.39856,-2.9359,2707.488,1561.295,29.9,
1544,1,SBT2050,2,3,,4,30886,3.38253,-2.936,2707.488,1605.335,30,
1544,1,SBT2050,2,3,,4,30940,3.366574,-2.9361,2707.488,1649.374,30,
1544,1,SBT2050,2,3,,4,30994,3.35037,-2.9356,2707.488,1693.414,30,
1544,1,SBT2050,2,3,,4,31048,3.3345,-2.9358,2707.488,1737.453,30.1,
1544,1,SBT2050,2,3,,4,31102,3.31777,-2.9356,2707.488,1781.493,30.1,
1544,1,SBT2050,2,3,,4,31156,3.300926,-2.9356,2707.488,1825.532,30.2,
1544,1,SBT2050,2,3,,4,31210,3.28393,-2.9361,2707.488,1869.572,30.3,
1544,1,SBT2050,2,3,,4,31264,3.2662,-2.9354,2707.488,1913.611,30.4,
1544,1,SBT2050,2,3,,4,31318,3.24818,-2.9363,2707.488,1957.65,30.4,
1544,1,SBT2050,2,3,,4,31372,3.22896,-2.9357,2707.488,2001.69,30.5,
1544,1,SBT2050,2,3,,4,31426,3.20923,-2.9357,2707.488,2045.729,30.6,
1544,1,SBT2050,2,3,,4,31480,3.18811,-2.9359,2707.488,2089.768,30.8,
1544,1,SBT2050,2,3,,4,31534,3.16582,-2.9356,2707.488,2133.808,30.9,
1544,1,SBT2050,2,3,,4,31588,3.14224,-2.9362,2707.488,2177.847,31.1,
1544,1,SBT2050,2,3,,4,31642,3.11711,-2.936,2707.488,2221.887,31.3,
1544,1,SBT2050,2,3,,4,31696,3.08976,-2.9359,2707.488,2265.926,31.5,
1544,1,SBT2050,2,3,,4,31750,3.05955,-2.9365,2707.488,2309.965,31.7,
1544,1,SBT2050,2,3,,4,31804,3.02641,-2.9359,2707.488,2354.005,32,
1544,1,SBT2050,2,3,,4,31858,2.990564,-2.9358,2707.488,2398.044,32.2,
1544,1,SBT2050,2,3,,4,31912,2.94954,-2.936,2707.488,2442.084,32.6,
1544,1,SBT2050,2,3,,4,31966,2.901948,-2.9362,2707.488,2486.123,32.9,
1544,1,SBT2050,2,3,,4,32020,2.847569,-2.9362,2707.488,2530.163,33.3,
1544,1,SBT2050,2,3,,4,32074,2.784491,-2.9362,2707.488,2574.202,33.8,
1544,1,SBT2050,2,3,,4,32128,2.70414,-2.9362,2707.488,2618.241,34.3,
1544,1,SBT2050,2,3,,4,32182,2.585035,-2.936,2707.488,2662.281,35,
1544,1,SBT2050,2,3,,4,32236,2.4998,-2.4916,2707.488,2704.281,35.9,
1544,1,SBT2050,2,3,,4,32290,2.49985,-2.0191,2707.488,2737.896,36.2,
1544,1,SBT2050,2,3,,4,32344,2.49983,-1.6617,2707.488,2765.399,36,
1544,1,SBT2050,2,3,,4,32398,2.49976,-1.3737,2707.488,2788.09,35.5,
1544,1,SBT2050,2,3,,4,32452,2.499822,-1.1456,2707.488,2806.919,34.8,
1544,1,SBT2050,2,3,,4,32506,2.49983,-0.9641,2707.488,2822.684,34,
1544,1,SBT2050,2,3,,4,32560,2.49979,-0.8217,2707.488,2836.034,33.2,
1544,1,SBT2050,2,3,,4,32614,2.49989,-0.7098,2707.488,2847.484,32.4,
1544,1,SBT2050,2,3,,4,32668,2.4998,-0.6216,2707.488,2857.442,31.6,
1544,1,SBT2050,2,3,,4,32722,2.50005,-0.553,2707.488,2866.232,30.9,
1544,1,SBT2050,2,3,,4,32776,2.49983,-0.4979,2707.488,2874.098,30.3,
1544,1,SBT2050,2,3,,4,32830,2.499977,-0.45509,2707.488,2881.234,29.8,
1544,1,SBT2050,2,3,,4,32884,2.49988,-0.4199,2707.488,2887.787,29.3,
1544,1,SBT2050,2,3,,4,32938,2.49988,-0.39116,2707.488,2893.864,28.9,
1544,1,SBT2050,2,3,,4,32992,2.49983,-0.36655,2707.488,2899.544,28.5,
1544,1,SBT2050,2,3,,4,33046,2.49993,-0.34584,2707.488,2904.886,28.2,
1544,1,SBT2050,2,3,,4,33100,2.4998,-0.32824,2707.488,2909.94,27.9,
1544,1,SBT2050,2,3,,4,33154,2.49993,-0.31259,2707.488,2914.746,27.7,
1544,1,SBT2050,2,3,,4,33208,2.49995,-0.29962,2707.488,2919.338,27.5,
1544,1,SBT2050,2,3,,4,33262,2.49988,-0.28767,2707.488,2923.739,27.3,
1544,1,SBT2050,2,3,,4,33316,2.49995,-0.27651,2707.488,2927.966,27.2,
1544,1,SBT2050,2,3,,4,33370,2.499977,-0.26606,2707.488,2932.033,27,
1544,1,SBT2050,2,3,,4,33424,2.49987,-0.25683,2707.488,2935.956,26.9,
1544,1,SBT2050,2,3,,4,33478,2.49987,-0.24822,2707.488,2939.746,26.8,
1544,1,SBT2050,2,3,,4,33532,2.49988,-0.24045,2707.488,2943.412,26.7,
1544,1,SBT2050,2,3,,4,33586,2.49995,-0.2326,2707.488,2946.96,26.6,
1544,1,SBT2050,2,3,,4,33640,2.499989,-0.22544,2707.488,2950.395,26.6,
1544,1,SBT2050,2,3,,4,33694,2.50007,-0.21855,2707.488,2953.725,26.5,
1544,1,SBT2050,2,3,,4,33748,2.49981,-0.21229,2707.488,2956.959,26.4,
1544,1,SBT2050,2,3,,4,33802,2.50004,-0.20645,2707.488,2960.099,26.4,
1544,1,SBT2050,2,3,,4,33856,2.49988,-0.20008,2707.488,2963.149,26.3,
1544,1,SBT2050,2,3,,4,33910,2.499965,-0.19453,2707.488,2966.111,26.3,
1544,1,SBT2050,2,3,,4,33964,2.49975,-0.18907,2707.488,2968.989,26.3,
1544,1,SBT2050,2,3,,4,34018,2.49993,-0.18385,2707.488,2971.786,26.2,
1544,1,SBT2050,2,3,,4,34072,2.5001,-0.17881,2707.488,2974.507,26.2,
1544,1,SBT2050,2,3,,4,34126,2.49995,-0.17385,2707.488,2977.153,26.1,
1544,1,SBT2050,2,3,,4,34180,2.49983,-0.16876,2707.488,2979.722,26,
1544,1,SBT2050,2,3,,4,34234,2.4998,-0.16378,2707.488,2982.217,26,
1544,1,SBT2050,2,3,,4,34288,2.50007,-0.15913,2707.488,2984.637,26,
1544,1,SBT2050,2,3,,4,34342,2.49993,-0.15405,2707.488,2986.985,26,
1544,1,SBT2050,2,3,,4,34396,2.49985,-0.14943,2707.488,2989.262,26,
1544,1,SBT2050,2,3,,4,34450,2.49995,-0.14473,2707.488,2991.47,25.9,
1544,1,SBT2050,2,3,,4,34504,2.49989,-0.14015,2707.488,2993.607,25.9,
1544,1,SBT2050,2,3,,4,34558,2.49985,-0.13569,2707.488,2995.675,25.9,
1544,1,SBT2050,2,3,,4,34612,2.49988,-0.13108,2707.488,2997.677,25.8,
1544,1,SBT2050,2,3,,4,34666,2.49983,-0.12718,2707.488,2999.614,25.8,
1544,1,SBT2050,2,3,,4,34720,2.50012,-0.12309,2707.488,3001.489,25.8,
1544,1,SBT2050,2,3,,4,34774,2.50001,-0.11902,2707.488,3003.304,25.8,
1544,1,SBT2050,2,3,,4,34828,2.49991,-0.11528,2707.488,3005.059,25.8,
1544,1,SBT2050,2,3,,4,34882,2.49995,-0.11149,2707.488,3006.759,25.7,
1544,1,SBT2050,2,3,,4,34936,2.49989,-0.10788,2707.488,3008.405,25.7,
1544,1,SBT2050,2,3,,4,34990,2.499977,-0.10446,2707.488,3010,25.7,
1544,1,SBT2050,2,3,,4,35044,2.50001,-0.10122,2707.488,3011.544,25.6,
1544,1,SBT2050,2,3,,4,35098,2.49995,-0.09784,2707.488,3013.037,25.6,
1544,1,SBT2050,2,3,,4,35152,2.49995,-0.09485,2707.488,3014.482,25.6,
1544,1,SBT2050,2,3,,4,35206,2.49991,-0.09165,2707.488,3015.879,25.6,
1544,1,SBT2050,2,3,,4,35260,2.49981,-0.08855,2707.488,3017.23,25.6,
1544,1,SBT2050,2,3,,4,35314,2.499977,-0.08575,2707.488,3018.539,25.6,
1544,1,SBT2050,2,3,,4,35368,2.49987,-0.08284,2707.488,3019.804,25.5,
1544,1,SBT2050,2,3,,4,35422,2.49976,-0.08004,2707.488,3021.027,25.5,
1544,1,SBT2050,2,3,,4,35476,2.49977,-0.07762,2707.488,3022.21,25.5,
1544,1,SBT2050,2,3,,4,35530,2.50011,-0.07499,2707.488,3023.355,25.5,
1544,1,SBT2050,2,3,,4,35584,2.50006,-0.07267,2707.488,3024.463,25.5,
1544,1,SBT2050,2,3,,4,35638,2.49995,-0.07038,2707.488,3025.534,25.5,
1544,1,SBT2050,2,3,,4,35692,2.5,-0.06803,2707.488,3026.571,25.4,
1544,1,SBT2050,2,3,,4,35746,2.49992,-0.06577,2707.488,3027.574,25.4,
1544,1,SBT2050,2,3,,4,35800,2.49992,-0.06369,2707.488,3028.546,25.4,
1544,1,SBT2050,2,3,,4,35854,2.50004,-0.06172,2707.488,3029.488,25.4,
1544,1,SBT2050,2,3,,4,35908,2.50012,-0.05983,2707.488,3030.401,25.4,
1544,1,SBT2050,2,3,,4,35962,2.50008,-0.05829,2707.488,3031.287,25.4,
1544,1,SBT2050,2,3,,4,36016,2.50001,-0.05658,2707.488,3032.148,25.3,
1544,1,SBT2050,2,3,,4,36070,2.49994,-0.055,2707.488,3032.984,25.3,
1544,1,SBT2050,2,3,,4,36124,2.49994,-0.05361,2707.488,3033.798,25.3,
1544,1,SBT2050,2,3,,4,36178,2.49993,-0.05189,2707.488,3034.588,25.3,
1544,1,SBT2050,2,3,,4,36232,2.499977,-0.05047,2707.488,3035.356,25.3,
1544,1,SBT2050,2,3,,4,36286,2.49993,-0.04904,2707.488,3036.102,25.3,
1544,1,SBT2050,2,3,,4,36340,2.499989,-0.04765,2707.488,3036.827,25.3,
1544,1,SBT2050,2,3,,4,36394,2.50001,-0.046312,2707.488,3037.532,25.3,
1544,1,SBT2050,2,3,,4,36448,2.499989,-0.04498,2707.488,3038.217,25.3,
1544,1,SBT2050,2,3,,4,36502,2.499965,-0.043596,2707.488,3038.882,25.2,
1544,1,SBT2050,2,3,,4,36556,2.49993,-0.042622,2707.488,3039.529,25.3,
1544,1,SBT2050,2,3,,4,36610,2.500132,-0.041278,2707.488,3040.157,25.3,
1544,1,SBT2050,2,3,,4,36664,2.50006,-0.040129,2707.488,3040.768,25.3,
1544,1,SBT2050,2,3,,4,36718,2.50005,-0.03893,2707.488,3041.361,25.3,
1544,1,SBT2050,2,3,,4,36772,2.50006,-0.037778,2707.488,3041.937,25.2,
1544,1,SBT2050,2,3,,4,36826,2.50002,-0.036804,2707.488,3042.497,25.2,
1544,1,SBT2050,2,3,,4,36880,2.50001,-0.0356,2707.488,3043.04,25.2,
1544,1,SBT2050,2,3,,4,36934,2.50002,-0.034865,2707.488,3043.568,25.3,
1544,1,SBT2050,2,3,,4,36988,2.50001,-0.033622,2707.488,3044.08,25.2,
1544,1,SBT2050,2,3,,4,37042,2.49994,-0.032689,2707.488,3044.578,25.2,
1544,1,SBT2050,2,3,,4,37096,2.499977,-0.031632,2707.488,3045.06,25.2,
1544,1,SBT2050,2,3,,4,37150,2.499977,-0.030702,2707.488,3045.528,25.2,
1544,1,SBT2050,2,3,,4,37204,2.49993,-0.029794,2707.488,3045.981,25.2,
1544,1,SBT2050,2,3,,4,37258,2.50008,-0.028786,2707.488,3046.421,25.2,
1544,1,SBT2050,2,3,,4,37312,2.50002,-0.028072,2707.488,3046.848,25.2,
1544,1,SBT2050,2,3,,4,37366,2.50007,-0.027149,2707.488,3047.261,25.2,
1544,1,SBT2050,2,3,,4,37420,2.50007,-0.026216,2707.488,3047.662,25.2,
1544,1,SBT2050,2,3,,4,37474,2.49992,-0.025387,2707.488,3048.05,25.2,
1544,1,SBT2050,2,3,,4,37528,2.49994,-0.024688,2707.488,3048.426,25.2,
1544,1,SBT2050,2,3,,4,37582,2.49993,-0.023782,2707.488,3048.79,25.2,
1544,1,SBT2050,2,3,,4,37636,2.49992,-0.023162,2707.488,3049.144,25.2,
1544,1,SBT2050,2,3,,4,37690,2.499977,-0.022516,2707.488,3049.487,25.1,
1544,1,SBT2050,2,3,,4,37744,2.500132,-0.022052,2707.488,3049.82,25.2,
1544,1,SBT2050,2,3,,4,37798,2.499977,-0.021252,2707.488,3050.143,25.2,
1544,1,SBT2050,2,3,,4,37852,2.50004,-0.020681,2707.488,3050.458,25.2,
1544,1,SBT2050,2,3,,4,37906,2.500144,-0.020143,2707.488,3050.763,25.1,
1544,1,SBT2050,2,3,,4,37960,2.50011,-0.019609,2707.488,3051.06,25.1,
1544,1,SBT2050,2,3,,4,38014,2.499822,-0.019017,2707.488,3051.349,25.2,
1544,1,SBT2050,2,3,,4,38068,2.499965,-0.018488,2707.488,3051.63,25.1,
1544,1,SBT2050,2,3,,4,38122,2.50001,-0.01805,2707.488,3051.904,25.1,
1544,1,SBT2050,2,3,,4,38176,2.49987,-0.017516,2707.488,3052.171,25.1,
1544,1,SBT2050,2,3,,4,38230,2.49977,-0.016874,2707.488,3052.43,25.1,
1544,1,SBT2050,2,3,,4,38284,2.50001,-0.016655,2707.488,3052.683,25.1,
1544,1,SBT2050,2,3,,4,38338,2.5,-0.016045,2707.488,3052.929,25.1,
1544,1,SBT2050,2,3,,4,38392,2.500132,-0.015754,2707.488,3053.169,25.1,
1544,1,SBT2050,2,3,,4,38446,2.49993,-0.015507,2707.488,3053.403,25.1,
1544,1,SBT2050,2,3,,4,38500,2.49989,-0.014985,2707.488,3053.631,25.1,
1544,1,SBT2050,2,3,,4,38554,2.49985,-0.014561,2707.488,3053.854,25.1,
1544,1,SBT2050,2,3,,4,38608,2.50007,-0.014397,2707.488,3054.071,25.1,
1544,1,SBT2050,2,3,,4,38662,2.50006,-0.013938,2707.488,3054.284,25.1,
1544,1,SBT2050,2,3,,4,38716,2.49987,-0.013479,2707.488,3054.491,25.1,
1544,1,SBT2050,2,3,,4,38770,2.49988,-0.013447,2707.488,3054.693,25.1,
1544,1,SBT2050,2,3,,4,38824,2.49994,-0.012865,2707.488,3054.891,25.1,
1544,1,SBT2050,2,3,,4,38878,2.50005,-0.01276,2707.488,3055.083,25.1,
1544,1,SBT2050,2,3,,4,38932,2.50005,-0.012369,2707.488,3055.271,25.1,
1544,1,SBT2050,2,3,,4,38986,2.49985,-0.011997,2707.488,3055.455,25.1,
1544,1,SBT2050,2,3,,4,39040,2.50005,-0.011753,2707.488,3055.635,25.1,
1544,1,SBT2050,2,3,,4,39094,2.50016,-0.011701,2707.488,3055.81,25.1,
1544,1,SBT2050,2,3,,4,39148,2.5,-0.011195,2707.488,3055.981,25.1,
1544,1,SBT2050,2,3,,4,39202,2.49985,-0.011133,2707.488,3056.148,25.1,
1544,1,SBT2050,2,3,,4,39256,2.499822,-0.010755,2707.488,3056.312,25.1,
1544,1,SBT2050,2,3,,4,39310,2.50012,-0.010631,2707.488,3056.472,25.1,
1544,1,SBT2050,2,3,,4,39364,2.499977,-0.010272,2707.488,3056.628,25.1,
1544,1,SBT2050,2,3,,5,39417,2.52435,0,2707.488,3056.69,25.1,
1544,1,SBT2050,2,3,,5,39471,2.5525,0,2707.488,3056.69,25,
1544,1,SBT2050,2,3,,5,39525,2.575846,0,2707.488,3056.69,25.1,
1544,1,SBT2050,2,3,,5,39579,2.597211,0,2707.488,3056.69,25.1,
1544,1,SBT2050,2,3,,5,39633,2.61576,0,2707.488,3056.69,25.1,
1544,1,SBT2050,2,3,,5,39687,2.63245,0,2707.488,3056.69,25.1,
1544,1,SBT2050,2,3,,5,39741,2.64692,0,2707.488,3056.69,25,
1544,1,SBT2050,2,3,,5,39795,2.66018,0,2707.488,3056.69,25,
1544,1,SBT2050,2,3,,5,39849,2.67182,0,2707.488,3056.69,25,
1544,1,SBT2050,2,3,,5,39903,2.68218,0,2707.488,3056.69,25.1,
1544,1,SBT2050,2,3,,5,39957,2.691963,0,2707.488,3056.69,25,
1544,1,SBT2050,2,3,,5,40011,2.700426,0,2707.488,3056.69,25.1,
1544,1,SBT2050,2,3,,5,40065,2.7083,0,2707.488,3056.69,25,
1544,1,SBT2050,2,3,,5,40119,2.715641,0,2707.488,3056.69,25.1,
1544,1,SBT2050,2,3,,5,40173,2.72207,0,2707.488,3056.69,25,
1544,1,SBT2050,2,3,,5,40227,2.728012,0,2707.488,3056.69,25,
1544,1,SBT2050,2,3,,5,40281,2.73365,0,2707.488,3056.69,25,
1544,1,SBT2050,2,3,,5,40335,2.73899,0,2707.488,3056.69,25,
1544,1,SBT2050,2,3,,5,40389,2.743721,0,2707.488,3056.69,25.1,
1544,1,SBT2050,2,3,,5,40443,2.74795,0,2707.488,3056.69,25,
1544,1,SBT2050,2,3,,5,40497,2.75228,0,2707.488,3056.69,25,
1544,1,SBT2050,2,3,,5,40551,2.75607,0,2707.488,3056.69,25,
1544,1,SBT2050,2,3,,5,40605,2.75949,0,2707.488,3056.69,25,
1544,1,SBT2050,2,3,,5,40659,2.763147,0,2707.488,3056.69,25,
1544,1,SBT2050,2,3,,5,40713,2.76626,0,2707.488,3056.69,25,
1544,1,SBT2050,2,3,,5,40767,2.76919,0,2707.488,3056.69,25,
1544,1,SBT2050,2,3,,5,40821,2.772,0,2707.488,3056.69,25,
1544,1,SBT2050,2,3,,5,40875,2.77465,0,2707.488,3056.69,25,
1544,1,SBT2050,2,3,,5,40929,2.777176,0,2707.488,3056.69,25,
1544,1,SBT2050,2,3,,5,40983,2.77944,0,2707.488,3056.69,25,
1544,1,SBT2050,2,3,,5,41037,2.78196,0,2707.488,3056.69,25.1,
1544,1,SBT2050,2,3,,5,41091,2.7841,0,2707.488,3056.69,25,
1544,1,SBT2050,2,3,,5,41145,2.78616,0,2707.488,3056.69,25,
1544,1,SBT2050,2,3,,5,41185.662,2.787274,-9.9E-05,2707.488,3056.69,,