File: ORRG/Test1469.csv
Request Year:,2018,,,,,,,,,,,,
Test:,1469,,,,,,,,,,,,
Test Description:,,,,,,,,,,,,,
TestRegime Name:,Aging_Performance,,,,,,,,,,,,
TestRegime Suffix:,SHP_LC,,,,,,,,,,,,
TestRegime CellSize:,18650,,,,,,,,,,,,
TestRegime Version:,1,,,,,,,,,,,,
Number Of Cells:,1,,,,,,,,,,,,
LotID:,,,,,,,,,,,,,
Lot Description:,,,,,,,,,,,,,
Date Made:,1/21/2003 12:00 AM,,,,,,,,,,,,
Origin:,Other,,,,,,,,,,,,
Requestor:,Admin,,,,,,,,,,,,
Product ID:,Default product,,,,,,,,,,,,
Storage Temp:,R.T./AMB,,,,,,,,,,,,
Storage Delay:,0 days,,,,,,,,,,,,
Test Temp:,R.T./AMB,,,,,,,,,,,,
Start Time:,4/7/2018 6:06 PM,,,,,,,,,,,,
End Time:,4/8/2018 12:51 AM,,,,,,,,,,,,
Operator Instructions:,,,,,,,,,,,,,
Test,Cell,Rack,Shelf,Position,Cell ID,Step,Total Time (Seconds),Voltage (V),Current (A),Charge Capacity (mAh),Discharge Capacity (mAh),TC1 (Â°C),
1469,1,SBT2050,2,3,,0,1,3.328833,0,0,0,24.9,
1469,1,SBT2050,2,3,,0,33,3.32881,0,0,0,24.9,
1469,1,SBT2050,2,3,,0,65,3.328727,0,0,0,24.9,
1469,1,SBT2050,2,3,,0,97,3.3289,0,0,0,25,
1469,1,SBT2050,2,3,,0,129,3.32898,0,0,0,25,
1469,1,SBT2050,2,3,,0,161,3.32922,0,0,0,25.1,
1469,1,SBT2050,2,3,,0,193,3.329128,0,0,0,25.1,
1469,1,SBT2050,2,3,,0,225,3.32901,0,0,0,25.2,
1469,1,SBT2050,2,3,,0,257,3.32929,0,0,0,25.2,
1469,1,SBT2050,2,3,,0,289,3.32916,0,0,0,25.2,
1469,1,SBT2050,2,3,,1,321,2.49788,-2.3042,0,16.75,25.6,
1469,1,SBT2050,2,3,,1,353,2.49958,-1.5122,0,32.44,26.8,
1469,1,SBT2050,2,3,,1,385,2.49968,-1.3068,0,44.875,27.6,
1469,1,SBT2050,2,3,,1,417,2.499911,-1.1721,0,55.86,28.1,
1469,1,SBT2050,2,3,,1,449,2.49973,-1.0656,0,65.792,28.4,
1469,1,SBT2050,2,3,,1,481,2.499911,-0.9687,0,74.83,28.7,
1469,1,SBT2050,2,3,,1,513,2.4998,-0.8809,0,83.042,28.8,
1469,1,SBT2050,2,3,,1,545,2.499911,-0.8059,0,90.526,28.9,
1469,1,SBT2050,2,3,,1,577,2.499923,-0.7407,0,97.397,28.9,
1469,1,SBT2050,2,3,,1,609,2.499923,-0.6842,0,103.728,28.9,
1469,1,SBT2050,2,3,,1,641,2.49979,-0.632,0,109.575,28.9,
1469,1,SBT2050,2,3,,1,673,2.49985,-0.5861,0,114.987,28.8,
1469,1,SBT2050,2,3,,1,705,2.49997,-0.5439,0,120.006,28.8,
1469,1,SBT2050,2,3,,1,737,2.499935,-0.5053,0,124.667,28.7,
1469,1,SBT2050,2,3,,1,769,2.49984,-0.46869,0,129.002,28.6,
1469,1,SBT2050,2,3,,1,801,2.499935,-0.43782,0,133.033,28.4,
1469,1,SBT2050,2,3,,1,833,2.499935,-0.40949,0,136.797,28.3,
1469,1,SBT2050,2,3,,1,865,2.49984,-0.38399,0,140.322,28.2,
1469,1,SBT2050,2,3,,1,897,2.49998,-0.36109,0,143.63,28,
1469,1,SBT2050,2,3,,1,929,2.49985,-0.33973,0,146.741,27.9,
1469,1,SBT2050,2,3,,1,961,2.49982,-0.32026,0,149.673,27.8,
1469,1,SBT2050,2,3,,1,993,2.49999,-0.30239,0,152.44,27.7,
1469,1,SBT2050,2,3,,1,1025,2.499756,-0.28593,0,155.056,27.5,
1469,1,SBT2050,2,3,,1,1057,2.4997,-0.27078,0,157.529,27.4,
1469,1,SBT2050,2,3,,1,1089,2.499911,-0.25629,0,159.87,27.3,
1469,1,SBT2050,2,3,,1,1121,2.4999,-0.24267,0,162.088,27.2,
1469,1,SBT2050,2,3,,1,1153,2.49983,-0.23048,0,164.19,27.1,
1469,1,SBT2050,2,3,,1,1185,2.50001,-0.21887,0,166.187,27,
1469,1,SBT2050,2,3,,1,1217,2.49998,-0.20823,0,168.084,26.9,
1469,1,SBT2050,2,3,,1,1249,2.499923,-0.19756,0,169.886,26.8,
1469,1,SBT2050,2,3,,1,1281,2.499601,-0.18734,0,171.598,26.7,
1469,1,SBT2050,2,3,,1,1313,2.49989,-0.17791,0,173.222,26.6,
1469,1,SBT2050,2,3,,1,1345,2.4999,-0.1685,0,174.761,26.5,
1469,1,SBT2050,2,3,,1,1377,2.49996,-0.15899,0,176.216,26.5,
1469,1,SBT2050,2,3,,1,1409,2.49986,-0.14979,0,177.589,26.4,
1469,1,SBT2050,2,3,,1,1441,2.499935,-0.14081,0,178.88,26.3,
1469,1,SBT2050,2,3,,1,1473,2.49968,-0.13181,0,180.091,26.3,
1469,1,SBT2050,2,3,,1,1505,2.49971,-0.12288,0,181.223,26.2,
1469,1,SBT2050,2,3,,1,1537,2.500066,-0.11426,0,182.276,26.1,
1469,1,SBT2050,2,3,,1,1569,2.49989,-0.10557,0,183.254,26.1,
1469,1,SBT2050,2,3,,1,1601,2.49998,-0.09758,0,184.158,26,
1469,1,SBT2050,2,3,,1,1633,2.49988,-0.08951,0,184.989,25.9,
1469,1,SBT2050,2,3,,1,1665,2.49983,-0.08129,0,185.749,25.9,
1469,1,SBT2050,2,3,,1,1697,2.4999,-0.07357,0,186.437,25.9,
1469,1,SBT2050,2,3,,1,1729,2.499923,-0.066,0,187.058,25.8,
1469,1,SBT2050,2,3,,1,1761,2.4999,-0.05902,0,187.613,25.8,
1469,1,SBT2050,2,3,,1,1793,2.49982,-0.05236,0,188.107,25.8,
1469,1,SBT2050,2,3,,1,1825,2.49997,-0.046504,0,188.545,25.7,
1469,1,SBT2050,2,3,,1,1857,2.49997,-0.041121,0,188.934,25.7,
1469,1,SBT2050,2,3,,1,1889,2.49995,-0.036658,0,189.279,25.6,
1469,1,SBT2050,2,3,,1,1921,2.49998,-0.033091,0,189.588,25.6,
1469,1,SBT2050,2,3,,1,1953,2.499935,-0.029728,0,189.866,25.6,
1469,1,SBT2050,2,3,,1,1985,2.50001,-0.027211,0,190.118,25.5,
1469,1,SBT2050,2,3,,1,2017,2.50001,-0.025059,0,190.35,25.5,
1469,1,SBT2050,2,3,,1,2049,2.4998,-0.023266,0,190.565,25.5,
1469,1,SBT2050,2,3,,1,2081,2.499935,-0.021861,0,190.766,25.5,
1469,1,SBT2050,2,3,,1,2113,2.50013,-0.02058,0,190.955,25.5,
1469,1,SBT2050,2,3,,1,2145,2.499768,-0.019613,0,191.134,25.4,
1469,1,SBT2050,2,3,,1,2177,2.499911,-0.018754,0,191.305,25.4,
1469,1,SBT2050,2,3,,1,2209,2.499911,-0.018154,0,191.469,25.4,
1469,1,SBT2050,2,3,,1,2241,2.4999,-0.017522,0,191.627,25.4,
1469,1,SBT2050,2,3,,1,2273,2.49995,-0.016922,0,191.78,25.4,
1469,1,SBT2050,2,3,,1,2305,2.499911,-0.016258,0,191.928,25.4,
1469,1,SBT2050,2,3,,1,2337,2.50003,-0.015956,0,192.073,25.4,
1469,1,SBT2050,2,3,,1,2369,2.50014,-0.015612,0,192.213,25.3,
1469,1,SBT2050,2,3,,1,2401,2.49974,-0.015248,0,192.35,25.3,
1469,1,SBT2050,2,3,,1,2433,2.500066,-0.014965,0,192.485,25.3,
1469,1,SBT2050,2,3,,1,2465,2.49986,-0.014482,0,192.616,25.3,
1469,1,SBT2050,2,3,,1,2497,2.50009,-0.014392,0,192.745,25.3,
1469,1,SBT2050,2,3,,1,2529,2.500078,-0.014169,0,192.872,25.3,
1469,1,SBT2050,2,3,,1,2561,2.50011,-0.013824,0,192.996,25.3,
1469,1,SBT2050,2,3,,1,2593,2.50015,-0.013572,0,193.119,25.3,
1469,1,SBT2050,2,3,,1,2625,2.50005,-0.013465,0,193.239,25.3,
1469,1,SBT2050,2,3,,1,2657,2.49985,-0.013104,0,193.358,25.3,
1469,1,SBT2050,2,3,,1,2689,2.50003,-0.013018,0,193.475,25.3,
1469,1,SBT2050,2,3,,1,2721,2.50004,-0.012933,0,193.589,25.3,
1469,1,SBT2050,2,3,,1,2753,2.50009,-0.012686,0,193.703,25.3,
1469,1,SBT2050,2,3,,1,2785,2.500066,-0.012437,0,193.814,25.3,
1469,1,SBT2050,2,3,,1,2817,2.49997,-0.012251,0,193.924,25.3,
1469,1,SBT2050,2,3,,1,2849,2.49999,-0.012152,0,194.033,25.3,
1469,1,SBT2050,2,3,,1,2881,2.50004,-0.011826,0,194.14,25.3,
1469,1,SBT2050,2,3,,1,2913,2.49999,-0.011784,0,194.245,25.3,
1469,1,SBT2050,2,3,,1,2945,2.50013,-0.011649,0,194.349,25.3,
1469,1,SBT2050,2,3,,1,2977,2.50016,-0.01152,0,194.451,25.3,
1469,1,SBT2050,2,3,,1,3009,2.50002,-0.011258,0,194.552,25.3,
1469,1,SBT2050,2,3,,1,3041,2.49996,-0.011097,0,194.652,25.3,
1469,1,SBT2050,2,3,,1,3073,2.50011,-0.010976,0,194.75,25.3,
1469,1,SBT2050,2,3,,1,3105,2.49995,-0.010737,0,194.847,25.3,
1469,1,SBT2050,2,3,,1,3137,2.50019,-0.010768,0,194.943,25.3,
1469,1,SBT2050,2,3,,1,3169,2.50001,-0.010591,0,195.038,25.2,
1469,1,SBT2050,2,3,,1,3201,2.49996,-0.010412,0,195.131,25.2,
1469,1,SBT2050,2,3,,1,3233,2.49989,-0.010308,0,195.224,25.3,
1469,1,SBT2050,2,3,,1,3265,2.49983,-0.010238,0,195.315,25.3,
1469,1,SBT2050,2,3,,2,3296,3.21339,2.9359,15.328,195.349,25.3,
1469,1,SBT2050,2,3,,2,3328,3.37902,2.9358,41.426,195.349,25.5,
1469,1,SBT2050,2,3,,2,3360,3.47314,2.9362,67.523,195.349,25.7,
1469,1,SBT2050,2,3,,2,3392,3.5362,2.9357,93.621,195.349,26.1,
1469,1,SBT2050,2,3,,2,3424,3.57438,2.9359,119.718,195.349,26.4,
1469,1,SBT2050,2,3,,2,3456,3.58527,2.9361,145.816,195.349,26.7,
1469,1,SBT2050,2,3,,2,3488,3.59031,2.9363,171.913,195.349,27.1,
1469,1,SBT2050,2,3,,2,3520,3.59597,2.9356,198.01,195.349,27.4,
1469,1,SBT2050,2,3,,2,3552,3.60246,2.9362,224.108,195.349,27.7,
1469,1,SBT2050,2,3,,2,3584,3.60947,2.936,250.205,195.349,28,
1469,1,SBT2050,2,3,,2,3616,3.61598,2.9362,276.303,195.349,28.2,
1469,1,SBT2050,2,3,,2,3648,3.622496,2.9361,302.4,195.349,28.5,
1469,1,SBT2050,2,3,,2,3680,3.62853,2.9359,328.497,195.349,28.6,
1469,1,SBT2050,2,3,,2,3712,3.63479,2.9356,354.595,195.349,28.8,
1469,1,SBT2050,2,3,,2,3744,3.64127,2.9359,380.692,195.349,28.9,
1469,1,SBT2050,2,3,,2,3776,3.64709,2.9363,406.789,195.349,29,
1469,1,SBT2050,2,3,,2,3808,3.65308,2.9366,432.887,195.349,29.1,
1469,1,SBT2050,2,3,,2,3840,3.65842,2.9362,458.984,195.349,29.1,
1469,1,SBT2050,2,3,,2,3872,3.66329,2.936,485.082,195.349,29.2,
1469,1,SBT2050,2,3,,2,3904,3.66759,2.9359,511.179,195.349,29.2,
1469,1,SBT2050,2,3,,2,3936,3.67222,2.936,537.276,195.349,29.3,
1469,1,SBT2050,2,3,,2,3968,3.676598,2.9362,563.374,195.349,29.3,
1469,1,SBT2050,2,3,,2,4000,3.68068,2.9361,589.471,195.349,29.3,
1469,1,SBT2050,2,3,,2,4032,3.685322,2.9358,615.569,195.349,29.3,
1469,1,SBT2050,2,3,,2,4064,3.68976,2.9355,641.666,195.349,29.3,
1469,1,SBT2050,2,3,,2,4096,3.695024,2.9356,667.763,195.349,29.3,
1469,1,SBT2050,2,3,,2,4128,3.7001,2.9359,693.861,195.349,29.3,
1469,1,SBT2050,2,3,,2,4160,3.70558,2.9359,719.958,195.349,29.2,
1469,1,SBT2050,2,3,,2,4192,3.7109,2.9359,746.055,195.349,29.3,
1469,1,SBT2050,2,3,,2,4224,3.71647,2.9358,772.153,195.349,29.3,
1469,1,SBT2050,2,3,,2,4256,3.72191,2.9354,798.25,195.349,29.3,
1469,1,SBT2050,2,3,,2,4288,3.72713,2.9362,824.347,195.349,29.3,
1469,1,SBT2050,2,3,,2,4320,3.73273,2.9358,850.445,195.349,29.3,
1469,1,SBT2050,2,3,,2,4352,3.73814,2.9356,876.542,195.349,29.3,
1469,1,SBT2050,2,3,,2,4384,3.743496,2.9361,902.639,195.349,29.3,
1469,1,SBT2050,2,3,,2,4416,3.749068,2.9359,928.736,195.349,29.2,
1469,1,SBT2050,2,3,,2,4448,3.7547,2.9357,954.834,195.349,29.3,
1469,1,SBT2050,2,3,,2,4480,3.75987,2.9355,980.931,195.349,29.3,
1469,1,SBT2050,2,3,,2,4512,3.76551,2.9358,1007.029,195.349,29.3,
1469,1,SBT2050,2,3,,2,4544,3.77126,2.936,1033.126,195.349,29.3,
1469,1,SBT2050,2,3,,2,4576,3.77721,2.9359,1059.224,195.349,29.3,
1469,1,SBT2050,2,3,,2,4608,3.78313,2.9358,1085.321,195.349,29.3,
1469,1,SBT2050,2,3,,2,4640,3.78914,2.9361,1111.418,195.349,29.3,
1469,1,SBT2050,2,3,,2,4672,3.79505,2.9362,1137.516,195.349,29.3,
1469,1,SBT2050,2,3,,2,4704,3.80129,2.9365,1163.613,195.349,29.3,
1469,1,SBT2050,2,3,,2,4736,3.80782,2.936,1189.71,195.349,29.3,
1469,1,SBT2050,2,3,,2,4768,3.81422,2.9361,1215.808,195.349,29.4,
1469,1,SBT2050,2,3,,2,4800,3.82084,2.9357,1241.905,195.349,29.4,
1469,1,SBT2050,2,3,,2,4832,3.82794,2.9363,1268.002,195.349,29.4,
1469,1,SBT2050,2,3,,2,4864,3.83492,2.9361,1294.1,195.349,29.4,
1469,1,SBT2050,2,3,,2,4896,3.84215,2.9361,1320.197,195.349,29.4,
1469,1,SBT2050,2,3,,2,4928,3.84991,2.9359,1346.294,195.349,29.4,
1469,1,SBT2050,2,3,,2,4960,3.85745,2.9357,1372.392,195.349,29.5,
1469,1,SBT2050,2,3,,2,4992,3.86574,2.9361,1398.489,195.349,29.5,
1469,1,SBT2050,2,3,,2,5024,3.8737,2.9358,1424.587,195.349,29.5,
1469,1,SBT2050,2,3,,2,5056,3.88163,2.9361,1450.684,195.349,29.6,
1469,1,SBT2050,2,3,,2,5088,3.89022,2.9359,1476.781,195.349,29.6,
1469,1,SBT2050,2,3,,2,5120,3.89906,2.936,1502.878,195.349,29.7,
1469,1,SBT2050,2,3,,2,5152,3.90815,2.936,1528.976,195.349,29.7,
1469,1,SBT2050,2,3,,2,5184,3.91688,2.9357,1555.073,195.349,29.7,
1469,1,SBT2050,2,3,,2,5216,3.92613,2.9358,1581.17,195.349,29.7,
1469,1,SBT2050,2,3,,2,5248,3.93536,2.9359,1607.268,195.349,29.7,
1469,1,SBT2050,2,3,,2,5280,3.94484,2.9359,1633.365,195.349,29.7,
1469,1,SBT2050,2,3,,2,5312,3.95388,2.9358,1659.462,195.349,29.8,
1469,1,SBT2050,2,3,,2,5344,3.96359,2.9356,1685.56,195.349,29.8,
1469,1,SBT2050,2,3,,2,5376,3.97269,2.9356,1711.657,195.349,29.8,
1469,1,SBT2050,2,3,,2,5408,3.98247,2.9361,1737.755,195.349,29.8,
1469,1,SBT2050,2,3,,2,5440,3.99209,2.9361,1763.852,195.349,29.9,
1469,1,SBT2050,2,3,,2,5472,4.00108,2.9359,1789.949,195.349,29.9,
1469,1,SBT2050,2,3,,2,5504,4.01044,2.9356,1816.047,195.349,29.9,
1469,1,SBT2050,2,3,,2,5536,4.020198,2.9358,1842.144,195.349,29.9,
1469,1,SBT2050,2,3,,2,5568,4.02941,2.9362,1868.242,195.349,29.9,
1469,1,SBT2050,2,3,,2,5600,4.0388,2.9359,1894.339,195.349,29.9,
1469,1,SBT2050,2,3,,2,5632,4.04841,2.9356,1920.436,195.349,30,
1469,1,SBT2050,2,3,,2,5664,4.0577,2.9358,1946.534,195.349,30,
1469,1,SBT2050,2,3,,2,5696,4.06691,2.9361,1972.631,195.349,30,
1469,1,SBT2050,2,3,,2,5728,4.07577,2.936,1998.728,195.349,30,
1469,1,SBT2050,2,3,,2,5760,4.08527,2.9362,2024.826,195.349,30.1,
1469,1,SBT2050,2,3,,2,5792,4.09457,2.9362,2050.923,195.349,30.1,
1469,1,SBT2050,2,3,,2,5824,4.10432,2.9358,2077.02,195.349,30.1,
1469,1,SBT2050,2,3,,2,5856,4.11367,2.9353,2103.118,195.349,30.1,
1469,1,SBT2050,2,3,,2,5888,4.12282,2.9359,2129.215,195.349,30.1,
1469,1,SBT2050,2,3,,2,5920,4.13232,2.9361,2155.313,195.349,30.1,
1469,1,SBT2050,2,3,,2,5952,4.141256,2.9358,2181.41,195.349,30.2,
1469,1,SBT2050,2,3,,2,5984,4.15003,2.9166,2207.5,195.349,30.2,
1469,1,SBT2050,2,3,,2,6016,4.15003,2.723,2232.499,195.349,30.2,
1469,1,SBT2050,2,3,,2,6048,4.15022,2.5637,2255.971,195.349,30.1,
1469,1,SBT2050,2,3,,2,6080,4.150196,2.415,2278.098,195.349,30,
1469,1,SBT2050,2,3,,2,6112,4.15024,2.2749,2298.941,195.349,29.9,
1469,1,SBT2050,2,3,,2,6144,4.15024,2.1379,2318.555,195.349,29.8,
1469,1,SBT2050,2,3,,2,6176,4.15037,2.0146,2337.009,195.349,29.7,
1469,1,SBT2050,2,3,,2,6208,4.15001,1.8958,2354.383,195.349,29.5,
1469,1,SBT2050,2,3,,2,6240,4.15004,1.7834,2370.734,195.349,29.3,
1469,1,SBT2050,2,3,,2,6272,4.15008,1.6824,2386.134,195.349,29.1,
1469,1,SBT2050,2,3,,2,6304,4.15012,1.5849,2400.649,195.349,29,
1469,1,SBT2050,2,3,,2,6336,4.15002,1.4953,2414.333,195.349,28.8,
1469,1,SBT2050,2,3,,2,6368,4.150172,1.4114,2427.242,195.349,28.6,
1469,1,SBT2050,2,3,,2,6400,4.15015,1.3322,2439.427,195.349,28.4,
1469,1,SBT2050,2,3,,2,6432,4.15027,1.2611,2450.953,195.349,28.2,
1469,1,SBT2050,2,3,,2,6464,4.15016,1.1936,2461.857,195.349,28.1,
1469,1,SBT2050,2,3,,2,6496,4.15005,1.132,2472.187,195.349,27.9,
1469,1,SBT2050,2,3,,2,6528,4.15015,1.0773,2482.002,195.349,27.8,
1469,1,SBT2050,2,3,,2,6560,4.14999,1.0249,2491.331,195.349,27.6,
1469,1,SBT2050,2,3,,2,6592,4.15002,0.9775,2500.217,195.349,27.5,
1469,1,SBT2050,2,3,,2,6624,4.15011,0.931,2508.692,195.349,27.3,
1469,1,SBT2050,2,3,,2,6656,4.15011,0.89,2516.788,195.349,27.2,
1469,1,SBT2050,2,3,,2,6688,4.15011,0.8516,2524.528,195.349,27.1,
1469,1,SBT2050,2,3,,2,6720,4.15005,0.8159,2531.948,195.349,27,
1469,1,SBT2050,2,3,,2,6752,4.15027,0.7842,2539.06,195.349,26.9,
1469,1,SBT2050,2,3,,2,6784,4.15008,0.7538,2545.896,195.349,26.8,
1469,1,SBT2050,2,3,,2,6816,4.15004,0.7263,2552.468,195.349,26.7,
1469,1,SBT2050,2,3,,2,6848,4.150208,0.6976,2558.795,195.349,26.7,
1469,1,SBT2050,2,3,,2,6880,4.15008,0.6731,2564.885,195.349,26.6,
1469,1,SBT2050,2,3,,2,6912,4.150184,0.6503,2570.763,195.349,26.5,
1469,1,SBT2050,2,3,,2,6944,4.15008,0.6277,2576.433,195.349,26.4,
1469,1,SBT2050,2,3,,2,6976,4.15024,0.6061,2581.919,195.349,26.3,
1469,1,SBT2050,2,3,,2,7008,4.149874,0.5876,2587.227,195.349,26.2,
1469,1,SBT2050,2,3,,2,7040,4.15012,0.5697,2592.368,195.349,26.2,
1469,1,SBT2050,2,3,,2,7072,4.15003,0.5522,2597.353,195.349,26.1,
1469,1,SBT2050,2,3,,2,7104,4.15006,0.5361,2602.189,195.349,26.1,
1469,1,SBT2050,2,3,,2,7136,4.14992,0.522,2606.888,195.349,26.1,
1469,1,SBT2050,2,3,,2,7168,4.15001,0.5056,2611.453,195.349,26.1,
1469,1,SBT2050,2,3,,2,7200,4.1499,0.4931,2615.893,195.349,26,
1469,1,SBT2050,2,3,,2,7232,4.15028,0.4798,2620.211,195.349,26,
1469,1,SBT2050,2,3,,2,7264,4.15022,0.46622,2624.41,195.349,25.9,
1469,1,SBT2050,2,3,,2,7296,4.14985,0.45522,2628.501,195.349,25.9,
1469,1,SBT2050,2,3,,2,7328,4.15002,0.44412,2632.492,195.349,25.8,
1469,1,SBT2050,2,3,,2,7360,4.14996,0.43265,2636.387,195.349,25.8,
1469,1,SBT2050,2,3,,2,7392,4.14975,0.42264,2640.186,195.349,25.8,
1469,1,SBT2050,2,3,,2,7424,4.15001,0.41273,2643.897,195.349,25.8,
1469,1,SBT2050,2,3,,2,7456,4.15002,0.40275,2647.514,195.349,25.8,
1469,1,SBT2050,2,3,,2,7488,4.150172,0.39308,2651.053,195.349,25.7,
1469,1,SBT2050,2,3,,2,7520,4.14979,0.38439,2654.51,195.349,25.8,
1469,1,SBT2050,2,3,,2,7552,4.15005,0.37591,2657.889,195.349,25.7,
1469,1,SBT2050,2,3,,2,7584,4.149886,0.36739,2661.191,195.349,25.7,
1469,1,SBT2050,2,3,,2,7616,4.14985,0.35917,2664.419,195.349,25.7,
1469,1,SBT2050,2,3,,2,7648,4.14983,0.35094,2667.575,195.349,25.7,
1469,1,SBT2050,2,3,,2,7680,4.14977,0.34365,2670.661,195.349,25.6,
1469,1,SBT2050,2,3,,2,7712,4.14983,0.33646,2673.679,195.349,25.6,
1469,1,SBT2050,2,3,,2,7744,4.14992,0.32904,2676.645,195.349,25.6,
1469,1,SBT2050,2,3,,2,7776,4.14975,0.32341,2679.538,195.349,25.6,
1469,1,SBT2050,2,3,,2,7808,4.1501,0.31522,2682.371,195.349,25.6,
1469,1,SBT2050,2,3,,2,7840,4.1499,0.30901,2685.143,195.349,25.6,
1469,1,SBT2050,2,3,,2,7872,4.149874,0.30278,2687.864,195.349,25.6,
1469,1,SBT2050,2,3,,2,7904,4.14991,0.29662,2690.528,195.349,25.5,
1469,1,SBT2050,2,3,,2,7936,4.15008,0.28928,2693.125,195.349,25.5,
1469,1,SBT2050,2,3,,2,7968,4.14992,0.28345,2695.67,195.349,25.5,
1469,1,SBT2050,2,3,,2,8000,4.149838,0.27737,2698.163,195.349,25.5,
1469,1,SBT2050,2,3,,2,8032,4.15006,0.27208,2700.605,195.349,25.5,
1469,1,SBT2050,2,3,,2,8064,4.15008,0.26675,2702.998,195.349,25.5,
1469,1,SBT2050,2,3,,2,8096,4.15011,0.26141,2705.346,195.349,25.5,
1469,1,SBT2050,2,3,,2,8128,4.149874,0.2558,2707.646,195.349,25.5,
1469,1,SBT2050,2,3,,2,8160,4.15012,0.25073,2709.896,195.349,25.5,
1469,1,SBT2050,2,3,,2,8192,4.15015,0.24463,2712.101,195.349,25.5,
1469,1,SBT2050,2,3,,2,8224,4.149838,0.2404,2714.259,195.349,25.4,
1469,1,SBT2050,2,3,,2,8256,4.15006,0.23553,2716.374,195.349,25.4,
1469,1,SBT2050,2,3,,2,8288,4.14998,0.23074,2718.445,195.349,25.4,
1469,1,SBT2050,2,3,,2,8320,4.15005,0.2261,2720.477,195.349,25.4,
1469,1,SBT2050,2,3,,2,8352,4.14993,0.22136,2722.469,195.349,25.4,
1469,1,SBT2050,2,3,,2,8384,4.14996,0.21759,2724.414,195.349,25.4,
1469,1,SBT2050,2,3,,2,8416,4.14973,0.21256,2726.326,195.349,25.4,
1469,1,SBT2050,2,3,,2,8448,4.15012,0.20824,2728.197,195.349,25.4,
1469,1,SBT2050,2,3,,2,8480,4.14999,0.20445,2730.033,195.349,25.4,
1469,1,SBT2050,2,3,,2,8512,4.15003,0.20088,2731.834,195.349,25.3,
1469,1,SBT2050,2,3,,2,8544,4.15027,0.19648,2733.6,195.349,25.3,
1469,1,SBT2050,2,3,,2,8576,4.150172,0.19293,2735.331,195.349,25.4,
1469,1,SBT2050,2,3,,2,8608,4.15004,0.18963,2737.031,195.349,25.3,
1469,1,SBT2050,2,3,,2,8640,4.15002,0.18532,2738.697,195.349,25.4,
1469,1,SBT2050,2,3,,2,8672,4.15011,0.18097,2740.327,195.349,25.4,
1469,1,SBT2050,2,3,,2,8704,4.1504,0.17784,2741.922,195.349,25.3,
1469,1,SBT2050,2,3,,2,8736,4.149838,0.1742,2743.484,195.349,25.3,
1469,1,SBT2050,2,3,,2,8768,4.14983,0.171,2745.017,195.349,25.3,
1469,1,SBT2050,2,3,,2,8800,4.15012,0.16783,2746.52,195.349,25.3,
1469,1,SBT2050,2,3,,2,8832,4.14996,0.16449,2747.998,195.349,25.3,
1469,1,SBT2050,2,3,,2,8864,4.15001,0.16121,2749.446,195.349,25.3,
1469,1,SBT2050,2,3,,2,8896,4.15022,0.15839,2750.867,195.349,25.3,
1469,1,SBT2050,2,3,,2,8928,4.14992,0.15569,2752.262,195.349,25.3,
1469,1,SBT2050,2,3,,2,8960,4.1499,0.15201,2753.626,195.349,25.3,
1469,1,SBT2050,2,3,,2,8992,4.15015,0.14903,2754.966,195.349,25.3,
1469,1,SBT2050,2,3,,2,9024,4.14979,0.14648,2756.28,195.349,25.3,
1469,1,SBT2050,2,3,,2,9056,4.15027,0.14333,2757.569,195.349,25.3,
1469,1,SBT2050,2,3,,2,9088,4.15005,0.14058,2758.832,195.349,25.3,
1469,1,SBT2050,2,3,,2,9120,4.15024,0.13814,2760.069,195.349,25.3,
1469,1,SBT2050,2,3,,2,9152,4.14999,0.13596,2761.289,195.349,25.3,
1469,1,SBT2050,2,3,,2,9184,4.15015,0.13297,2762.485,195.349,25.3,
1469,1,SBT2050,2,3,,2,9216,4.14998,0.13188,2763.66,195.349,25.3,
1469,1,SBT2050,2,3,,2,9248,4.15002,0.12827,2764.818,195.349,25.3,
1469,1,SBT2050,2,3,,2,9280,4.15012,0.12648,2765.95,195.349,25.3,
1469,1,SBT2050,2,3,,2,9312,4.150184,0.12367,2767.062,195.349,25.3,
1469,1,SBT2050,2,3,,2,9344,4.15024,0.12088,2768.148,195.349,25.3,
1469,1,SBT2050,2,3,,2,9376,4.150172,0.11904,2769.215,195.349,25.3,
1469,1,SBT2050,2,3,,2,9408,4.1499,0.11716,2770.263,195.349,25.3,
1469,1,SBT2050,2,3,,2,9440,4.150208,0.11482,2771.299,195.349,25.3,
1469,1,SBT2050,2,3,,2,9472,4.15004,0.11241,2772.308,195.349,25.3,
1469,1,SBT2050,2,3,,2,9504,4.14995,0.11038,2773.296,195.349,25.3,
1469,1,SBT2050,2,3,,2,9536,4.14992,0.10868,2774.269,195.349,25.2,
1469,1,SBT2050,2,3,,2,9568,4.1501,0.10612,2775.224,195.349,25.2,
1469,1,SBT2050,2,3,,2,9600,4.150208,0.10431,2776.16,195.349,25.3,
1469,1,SBT2050,2,3,,2,9632,4.15015,0.10225,2777.079,195.349,25.3,
1469,1,SBT2050,2,3,,2,9664,4.14993,0.10016,2777.979,195.349,25.3,
1469,1,SBT2050,2,3,,2,9696,4.15004,0.09805,2778.86,195.349,25.3,
1469,1,SBT2050,2,3,,2,9728,4.15006,0.09717,2779.729,195.349,25.3,
1469,1,SBT2050,2,3,,2,9760,4.1501,0.09521,2780.584,195.349,25.3,
1469,1,SBT2050,2,3,,2,9792,4.14998,0.09327,2781.422,195.349,25.3,
1469,1,SBT2050,2,3,,2,9824,4.15002,0.09125,2782.244,195.349,25.3,
1469,1,SBT2050,2,3,,2,9856,4.150184,0.09002,2783.048,195.349,25.3,
1469,1,SBT2050,2,3,,2,9888,4.14996,0.08855,2783.842,195.349,25.2,
1469,1,SBT2050,2,3,,2,9920,4.14985,0.08799,2784.627,195.349,25.2,
1469,1,SBT2050,2,3,,2,9952,4.150184,0.08558,2785.396,195.349,25.3,
1469,1,SBT2050,2,3,,2,9984,4.150172,0.08377,2786.148,195.349,25.3,
1469,1,SBT2050,2,3,,2,10016,4.1501,0.08241,2786.884,195.349,25.3,
1469,1,SBT2050,2,3,,2,10048,4.149874,0.08048,2787.61,195.349,25.3,
1469,1,SBT2050,2,3,,2,10080,4.15008,0.07927,2788.319,195.349,25.3,
1469,1,SBT2050,2,3,,2,10112,4.149838,0.0776,2789.016,195.349,25.3,
1469,1,SBT2050,2,3,,2,10144,4.14978,0.07675,2789.701,195.349,25.2,
1469,1,SBT2050,2,3,,2,10176,4.15024,0.07513,2790.376,195.349,25.2,
1469,1,SBT2050,2,3,,2,10208,4.1501,0.07431,2791.039,195.349,25.2,
1469,1,SBT2050,2,3,,2,10240,4.1503,0.07264,2791.694,195.349,25.3,
1469,1,SBT2050,2,3,,2,10272,4.14993,0.07185,2792.336,195.349,25.3,
1469,1,SBT2050,2,3,,2,10304,4.150172,0.07023,2792.967,195.349,25.2,
1469,1,SBT2050,2,3,,2,10336,4.15006,0.06935,2793.588,195.349,25.3,
1469,1,SBT2050,2,3,,2,10368,4.150208,0.06815,2794.199,195.349,25.2,
1469,1,SBT2050,2,3,,2,10400,4.15001,0.06669,2794.8,195.349,25.3,
1469,1,SBT2050,2,3,,2,10432,4.15008,0.06554,2795.39,195.349,25.2,
1469,1,SBT2050,2,3,,2,10464,4.15036,0.06457,2795.971,195.349,25.2,
1469,1,SBT2050,2,3,,2,10496,4.14977,0.06332,2796.539,195.349,25.2,
1469,1,SBT2050,2,3,,2,10528,4.14985,0.06284,2797.101,195.349,25.2,
1469,1,SBT2050,2,3,,2,10560,4.15028,0.06087,2797.647,195.349,25.2,
1469,1,SBT2050,2,3,,2,10592,4.15002,0.0603,2798.188,195.349,25.2,
1469,1,SBT2050,2,3,,2,10624,4.15014,0.0593,2798.72,195.349,25.2,
1469,1,SBT2050,2,3,,2,10656,4.15011,0.05867,2799.244,195.349,25.2,
1469,1,SBT2050,2,3,,2,10688,4.15002,0.05786,2799.761,195.349,25.2,
1469,1,SBT2050,2,3,,2,10720,4.1499,0.05669,2800.27,195.349,25.2,
1469,1,SBT2050,2,3,,2,10752,4.150184,0.0556,2800.77,195.349,25.2,
1469,1,SBT2050,2,3,,2,10784,4.149886,0.05446,2801.256,195.349,25.2,
1469,1,SBT2050,2,3,,2,10816,4.15009,0.05377,2801.735,195.349,25.2,
1469,1,SBT2050,2,3,,2,10848,4.150172,0.05296,2802.211,195.349,25.2,
1469,1,SBT2050,2,3,,2,10880,4.150172,0.05213,2802.679,195.349,25.2,
1469,1,SBT2050,2,3,,2,10912,4.15012,0.05176,2803.141,195.349,25.2,
1469,1,SBT2050,2,3,,2,10944,4.14993,0.05022,2803.596,195.349,25.2,
1469,1,SBT2050,2,3,,2,10976,4.14992,0.04966,2804.042,195.349,25.2,
1469,1,SBT2050,2,3,,2,11008,4.15003,0.04911,2804.48,195.349,25.2,
1469,1,SBT2050,2,3,,2,11040,4.15006,0.04852,2804.914,195.349,25.2,
1469,1,SBT2050,2,3,,2,11072,4.15005,0.0477,2805.344,195.349,25.2,
1469,1,SBT2050,2,3,,2,11104,4.15009,0.046676,2805.767,195.349,25.2,
1469,1,SBT2050,2,3,,2,11136,4.15009,0.045586,2806.178,195.349,25.2,
1469,1,SBT2050,2,3,,2,11168,4.14996,0.045133,2806.581,195.349,25.2,
1469,1,SBT2050,2,3,,2,11200,4.1501,0.04449,2806.978,195.349,25.2,
1469,1,SBT2050,2,3,,2,11232,4.14983,0.043688,2807.37,195.349,25.2,
1469,1,SBT2050,2,3,,2,11264,4.15014,0.042773,2807.753,195.349,25.2,
1469,1,SBT2050,2,3,,2,11296,4.14974,0.042509,2808.131,195.349,25.2,
1469,1,SBT2050,2,3,,2,11328,4.15016,0.041674,2808.505,195.349,25.2,
1469,1,SBT2050,2,3,,2,11360,4.14996,0.041486,2808.873,195.349,25.2,
1469,1,SBT2050,2,3,,2,11392,4.14996,0.04095,2809.242,195.349,25.2,
1469,1,SBT2050,2,3,,2,11424,4.150196,0.04048,2809.603,195.349,25.2,
1469,1,SBT2050,2,3,,2,11456,4.14998,0.039363,2809.957,195.349,25.2,
1469,1,SBT2050,2,3,,2,11488,4.15002,0.03891,2810.307,195.349,25.2,
1469,1,SBT2050,2,3,,2,11520,4.15008,0.038034,2810.65,195.349,25.2,
1469,1,SBT2050,2,3,,2,11552,4.1498,0.037612,2810.985,195.349,25.2,
1469,1,SBT2050,2,3,,2,11584,4.14999,0.037238,2811.318,195.349,25.2,
1469,1,SBT2050,2,3,,2,11616,4.14978,0.036118,2811.645,195.349,25.2,
1469,1,SBT2050,2,3,,2,11648,4.15022,0.035851,2811.967,195.349,25.2,
1469,1,SBT2050,2,3,,2,11680,4.15006,0.035253,2812.283,195.349,25.3,
1469,1,SBT2050,2,3,,2,11712,4.14974,0.034945,2812.595,195.349,25.3,
1469,1,SBT2050,2,3,,2,11744,4.15005,0.034137,2812.902,195.349,25.2,
1469,1,SBT2050,2,3,,2,11776,4.14966,0.033463,2813.202,195.349,25.2,
1469,1,SBT2050,2,3,,2,11808,4.1501,0.03307,2813.498,195.349,25.2,
1469,1,SBT2050,2,3,,2,11840,4.1499,0.032794,2813.79,195.349,25.2,
1469,1,SBT2050,2,3,,2,11872,4.14992,0.032205,2814.078,195.349,25.3,
1469,1,SBT2050,2,3,,2,11904,4.1499,0.031483,2814.361,195.349,25.2,
1469,1,SBT2050,2,3,,2,11936,4.15003,0.031473,2814.641,195.349,25.2,
1469,1,SBT2050,2,3,,2,11968,4.15006,0.031167,2814.917,195.349,25.3,
1469,1,SBT2050,2,3,,2,12000,4.1499,0.031185,2815.191,195.349,25.3,
1469,1,SBT2050,2,3,,2,12032,4.15016,0.030574,2815.465,195.349,25.2,
1469,1,SBT2050,2,3,,2,12064,4.14995,0.0305,2815.737,195.349,25.2,
1469,1,SBT2050,2,3,,2,12096,4.15002,0.028908,2816.002,195.349,25.2,
1469,1,SBT2050,2,3,,2,12128,4.15003,0.029527,2816.261,195.349,25.2,
1469,1,SBT2050,2,3,,2,12160,4.149886,0.028407,2816.519,195.349,25.2,
1469,1,SBT2050,2,3,,2,12192,4.14991,0.028313,2816.769,195.349,25.2,
1469,1,SBT2050,2,3,,2,12224,4.15011,0.027937,2817.02,195.349,25.2,
1469,1,SBT2050,2,3,,2,12256,4.14991,0.02799,2817.27,195.349,25.2,
1469,1,SBT2050,2,3,,2,12288,4.149886,0.027099,2817.515,195.349,25.2,
1469,1,SBT2050,2,3,,2,12320,4.15012,0.026399,2817.753,195.349,25.2,
1469,1,SBT2050,2,3,,2,12352,4.15014,0.026323,2817.989,195.349,25.2,
1469,1,SBT2050,2,3,,2,12384,4.15012,0.026671,2818.225,195.349,25.2,
1469,1,SBT2050,2,3,,2,12416,4.15002,0.026453,2818.46,195.349,25.2,
1469,1,SBT2050,2,3,,2,12448,4.150208,0.025177,2818.691,195.349,25.2,
1469,1,SBT2050,2,3,,2,12480,4.15012,0.024759,2818.914,195.349,25.2,
1469,1,SBT2050,2,3,,2,12512,4.15011,0.024819,2819.136,195.349,25.2,
1469,1,SBT2050,2,3,,2,12544,4.14985,0.024794,2819.354,195.349,25.2,
1469,1,SBT2050,2,3,,2,12576,4.15006,0.024366,2819.572,195.349,25.2,
1469,1,SBT2050,2,3,,2,12608,4.14993,0.023889,2819.787,195.349,25.2,
1469,1,SBT2050,2,3,,2,12640,4.14991,0.02348,2819.996,195.349,25.2,
1469,1,SBT2050,2,3,,2,12672,4.15004,0.022816,2820.203,195.349,25.2,
1469,1,SBT2050,2,3,,2,12704,4.14996,0.022149,2820.403,195.349,25.2,
1469,1,SBT2050,2,3,,2,12736,4.150184,0.022304,2820.601,195.349,25.2,
1469,1,SBT2050,2,3,,2,12768,4.15012,0.021785,2820.796,195.349,25.2,
1469,1,SBT2050,2,3,,2,12800,4.15012,0.021772,2820.992,195.349,25.2,
1469,1,SBT2050,2,3,,2,12832,4.14992,0.022491,2821.191,195.349,25.2,
1469,1,SBT2050,2,3,,2,12864,4.15012,0.021061,2821.385,195.349,25.2,
1469,1,SBT2050,2,3,,2,12896,4.15024,0.021353,2821.573,195.349,25.2,
1469,1,SBT2050,2,3,,2,12928,4.150196,0.020682,2821.76,195.349,25.2,
1469,1,SBT2050,2,3,,2,12960,4.15006,0.0209,2821.942,195.349,25.2,
1469,1,SBT2050,2,3,,2,12992,4.15001,0.020574,2822.124,195.349,25.2,
1469,1,SBT2050,2,3,,2,13024,4.14998,0.02018,2822.303,195.349,25.2,
1469,1,SBT2050,2,3,,2,13056,4.149862,0.019432,2822.479,195.349,25.2,
1469,1,SBT2050,2,3,,2,13088,4.15008,0.019491,2822.652,195.349,25.2,
1469,1,SBT2050,2,3,,2,13120,4.15032,0.01933,2822.826,195.349,25.2,
1469,1,SBT2050,2,3,,2,13152,4.15001,0.019442,2822.998,195.349,25.2,
1469,1,SBT2050,2,3,,2,13184,4.14991,0.018789,2823.167,195.349,25.2,
1469,1,SBT2050,2,3,,2,13216,4.15005,0.018145,2823.331,195.349,25.2,
1469,1,SBT2050,2,3,,2,13248,4.15006,0.018298,2823.494,195.349,25.2,
1469,1,SBT2050,2,3,,2,13280,4.149862,0.018442,2823.658,195.349,25.2,
1469,1,SBT2050,2,3,,2,13312,4.15026,0.01799,2823.821,195.349,25.3,
1469,1,SBT2050,2,3,,2,13344,4.150172,0.017623,2823.978,195.349,25.2,
1469,1,SBT2050,2,3,,2,13376,4.15014,0.016858,2824.13,195.349,25.2,
1469,1,SBT2050,2,3,,2,13408,4.15015,0.017138,2824.28,195.349,25.2,
1469,1,SBT2050,2,3,,2,13440,4.15015,0.016914,2824.429,195.349,25.2,
1469,1,SBT2050,2,3,,2,13472,4.14992,0.017223,2824.584,195.349,25.2,
1469,1,SBT2050,2,3,,2,13504,4.14978,0.01717,2824.734,195.349,25.2,
1469,1,SBT2050,2,3,,2,13536,4.149886,0.016787,2824.882,195.349,25.2,
1469,1,SBT2050,2,3,,2,13568,4.15006,0.016426,2825.03,195.349,25.2,
1469,1,SBT2050,2,3,,2,13600,4.14979,0.015329,2825.172,195.349,25.2,
1469,1,SBT2050,2,3,,2,13632,4.14997,0.015805,2825.309,195.349,25.2,
1469,1,SBT2050,2,3,,2,13664,4.15014,0.016669,2825.455,195.349,25.2,
1469,1,SBT2050,2,3,,2,13696,4.15026,0.015638,2825.599,195.349,25.2,
1469,1,SBT2050,2,3,,2,13728,4.1503,0.014727,2825.733,195.349,25.2,
1469,1,SBT2050,2,3,,2,13760,4.14993,0.014524,2825.862,195.349,25.2,
1469,1,SBT2050,2,3,,2,13792,4.14997,0.014623,2825.992,195.349,25.2,
1469,1,SBT2050,2,3,,2,13824,4.14997,0.014691,2826.121,195.349,25.2,
1469,1,SBT2050,2,3,,2,13856,4.15004,0.01493,2826.252,195.349,25.2,
1469,1,SBT2050,2,3,,2,13888,4.15022,0.013898,2826.38,195.349,25.2,
1469,1,SBT2050,2,3,,2,13920,4.149886,0.014321,2826.506,195.349,25.2,
1469,1,SBT2050,2,3,,2,13952,4.150172,0.013797,2826.632,195.349,25.2,
1469,1,SBT2050,2,3,,2,13984,4.14998,0.014647,2826.759,195.349,25.2,
1469,1,SBT2050,2,3,,2,14016,4.14996,0.013487,2826.882,195.349,25.2,
1469,1,SBT2050,2,3,,2,14048,4.15002,0.013772,2827.006,195.349,25.2,
1469,1,SBT2050,2,3,,2,14080,4.14978,0.013813,2827.128,195.349,25.2,
1469,1,SBT2050,2,3,,2,14112,4.149886,0.013497,2827.248,195.349,25.2,
1469,1,SBT2050,2,3,,2,14144,4.14991,0.012751,2827.365,195.349,25.2,
1469,1,SBT2050,2,3,,2,14176,4.1501,0.013327,2827.48,195.349,25.2,
1469,1,SBT2050,2,3,,2,14208,4.14998,0.012895,2827.595,195.349,25.2,
1469,1,SBT2050,2,3,,2,14240,4.1499,0.012507,2827.706,195.349,25.2,
1469,1,SBT2050,2,3,,2,14272,4.15008,0.013169,2827.818,195.349,25.2,
1469,1,SBT2050,2,3,,2,14304,4.149862,0.013049,2827.932,195.349,25.2,
1469,1,SBT2050,2,3,,2,14336,4.15003,0.012596,2828.044,195.349,25.2,
1469,1,SBT2050,2,3,,2,14368,4.14992,0.01233,2828.153,195.349,25.2,
1469,1,SBT2050,2,3,,2,14400,4.14977,0.01276,2828.265,195.349,25.2,
1469,1,SBT2050,2,3,,2,14432,4.15006,0.01172,2828.374,195.349,25.2,
1469,1,SBT2050,2,3,,2,14464,4.14998,0.011226,2828.474,195.349,25.2,
1469,1,SBT2050,2,3,,2,14496,4.14979,0.011505,2828.575,195.349,25.2,
1469,1,SBT2050,2,3,,2,14528,4.14998,0.01117,2828.676,195.349,25.2,
1469,1,SBT2050,2,3,,2,14560,4.15012,0.011996,2828.777,195.349,25.2,
1469,1,SBT2050,2,3,,2,14592,4.15009,0.011491,2828.881,195.349,25.2,
1469,1,SBT2050,2,3,,2,14624,4.14999,0.011132,2828.979,195.349,25.2,
1469,1,SBT2050,2,3,,2,14656,4.14985,0.011707,2829.081,195.349,25.2,
1469,1,SBT2050,2,3,,2,14688,4.15005,0.011434,2829.184,195.349,25.2,
1469,1,SBT2050,2,3,,2,14720,4.15015,0.011049,2829.284,195.349,25.2,
1469,1,SBT2050,2,3,,3,14751,4.14902,0,2829.329,195.349,25.2,
1469,1,SBT2050,2,3,,3,14783,4.148704,0,2829.329,195.349,25.2,
1469,1,SBT2050,2,3,,3,14815,4.14896,0,2829.329,195.349,25.2,
1469,1,SBT2050,2,3,,3,14847,4.14883,0,2829.329,195.349,25.2,
1469,1,SBT2050,2,3,,3,14879,4.14872,0,2829.329,195.349,25.2,
1469,1,SBT2050,2,3,,3,14911,4.1487,0,2829.329,195.349,25.1,
1469,1,SBT2050,2,3,,3,14943,4.14822,0,2829.329,195.349,25.2,
1469,1,SBT2050,2,3,,3,14975,4.14829,0,2829.329,195.349,25.2,
1469,1,SBT2050,2,3,,3,15007,4.14829,0,2829.329,195.349,25.2,
1469,1,SBT2050,2,3,,3,15039,4.14825,0,2829.329,195.349,25.2,
1469,1,SBT2050,2,3,,3,15071,4.148074,0,2829.329,195.349,25.2,
1469,1,SBT2050,2,3,,3,15103,4.14842,0,2829.329,195.349,25.2,
1469,1,SBT2050,2,3,,3,15135,4.14841,0,2829.329,195.349,25.2,
1469,1,SBT2050,2,3,,3,15167,4.147966,0,2829.329,195.349,25.2,
1469,1,SBT2050,2,3,,3,15199,4.14779,0,2829.329,195.349,25.2,
1469,1,SBT2050,2,3,,3,15231,4.14774,0,2829.329,195.349,25.2,
1469,1,SBT2050,2,3,,3,15263,4.14784,0,2829.329,195.349,25.2,
1469,1,SBT2050,2,3,,3,15295,4.14816,0,2829.329,195.349,25.2,
1469,1,SBT2050,2,3,,3,15327,4.14779,0,2829.329,195.349,25.2,
1469,1,SBT2050,2,3,,3,15359,4.147806,0,2829.329,195.349,25.2,
1469,1,SBT2050,2,3,,3,15391,4.14808,0,2829.329,195.349,25.2,
1469,1,SBT2050,2,3,,3,15423,4.147456,0,2829.329,195.349,25.2,
1469,1,SBT2050,2,3,,3,15455,4.14765,0,2829.329,195.349,25.2,
1469,1,SBT2050,2,3,,3,15487,4.147532,0,2829.329,195.349,25.2,
1469,1,SBT2050,2,3,,3,15519,4.1474,0,2829.329,195.349,25.2,
1469,1,SBT2050,2,3,,3,15551,4.147398,0,2829.329,195.349,25.2,
1469,1,SBT2050,2,3,,3,15583,4.14752,0,2829.329,195.349,25.2,
1469,1,SBT2050,2,3,,3,15615,4.147508,0,2829.329,195.349,25.2,
1469,1,SBT2050,2,3,,3,15647,4.14725,0,2829.329,195.349,25.2,
1469,1,SBT2050,2,3,,3,15679,4.14729,0,2829.329,195.349,25.2,
1469,1,SBT2050,2,3,,3,15711,4.147268,0,2829.329,195.349,25.2,
1469,1,SBT2050,2,3,,3,15743,4.14744,0,2829.329,195.349,25.2,
1469,1,SBT2050,2,3,,3,15775,4.14717,0,2829.329,195.349,25.2,
1469,1,SBT2050,2,3,,3,15807,4.146942,0,2829.329,195.349,25.2,
1469,1,SBT2050,2,3,,3,15839,4.14725,0,2829.329,195.349,25.2,
1469,1,SBT2050,2,3,,3,15871,4.14754,0,2829.329,195.349,25.2,
1469,1,SBT2050,2,3,,3,15903,4.14712,0,2829.329,195.349,25.2,
1469,1,SBT2050,2,3,,3,15935,4.147112,0,2829.329,195.349,25.2,
1469,1,SBT2050,2,3,,3,15967,4.14677,0,2829.329,195.349,25.2,
1469,1,SBT2050,2,3,,3,15999,4.147202,0,2829.329,195.349,25.2,
1469,1,SBT2050,2,3,,3,16031,4.14725,0,2829.329,195.349,25.2,
1469,1,SBT2050,2,3,,3,16063,4.1474,0,2829.329,195.349,25.2,
1469,1,SBT2050,2,3,,3,16095,4.14732,0,2829.329,195.349,25.2,
1469,1,SBT2050,2,3,,3,16127,4.14699,0,2829.329,195.349,25.2,
1469,1,SBT2050,2,3,,3,16159,4.146808,0,2829.329,195.349,25.2,
1469,1,SBT2050,2,3,,3,16191,4.14689,0,2829.329,195.349,25.2,
1469,1,SBT2050,2,3,,3,16223,4.14658,0,2829.329,195.349,25.2,
1469,1,SBT2050,2,3,,3,16255,4.14704,0,2829.329,195.349,25.2,
1469,1,SBT2050,2,3,,3,16287,4.1469,0,2829.329,195.349,25.2,
1469,1,SBT2050,2,3,,3,16319,4.14673,0,2829.329,195.349,25.2,
1469,1,SBT2050,2,3,,3,16351,4.146866,0,2829.329,195.349,25.2,
1469,1,SBT2050,2,3,,3,16383,4.1468,0,2829.329,195.349,25.2,
1469,1,SBT2050,2,3,,3,16415,4.14697,0,2829.329,195.349,25.2,
1469,1,SBT2050,2,3,,3,16447,4.14682,0,2829.329,195.349,25.2,
1469,1,SBT2050,2,3,,3,16479,4.14671,0,2829.329,195.349,25.2,
1469,1,SBT2050,2,3,,3,16511,4.1466,0,2829.329,195.349,25.2,
1469,1,SBT2050,2,3,,4,16542,3.93899,-2.9359,2829.329,200.951,25.2,
1469,1,SBT2050,2,3,,4,16574,3.89693,-2.936,2829.329,227.048,25.6,
1469,1,SBT2050,2,3,,4,16606,3.87937,-2.9365,2829.329,253.145,25.9,
1469,1,SBT2050,2,3,,4,16638,3.86977,-2.9357,2829.329,279.242,26.3,
1469,1,SBT2050,2,3,,4,16670,3.86359,-2.9362,2829.329,305.34,26.6,
1469,1,SBT2050,2,3,,4,16702,3.85878,-2.9359,2829.329,331.437,26.9,
1469,1,SBT2050,2,3,,4,16734,3.85415,-2.9357,2829.329,357.535,27.2,
1469,1,SBT2050,2,3,,4,16766,3.8497,-2.9362,2829.329,383.632,27.4,
1469,1,SBT2050,2,3,,4,16798,3.844574,-2.9359,2829.329,409.729,27.6,
1469,1,SBT2050,2,3,,4,16830,3.8395,-2.9362,2829.329,435.827,27.8,
1469,1,SBT2050,2,3,,4,16862,3.83397,-2.9364,2829.329,461.924,27.9,
1469,1,SBT2050,2,3,,4,16894,3.82795,-2.9358,2829.329,488.021,28.1,
1469,1,SBT2050,2,3,,4,16926,3.821,-2.936,2829.329,514.119,28.1,
1469,1,SBT2050,2,3,,4,16958,3.81397,-2.9361,2829.329,540.216,28.2,
1469,1,SBT2050,2,3,,4,16990,3.8065,-2.9358,2829.329,566.313,28.3,
1469,1,SBT2050,2,3,,4,17022,3.79851,-2.9356,2829.329,592.41,28.4,
1469,1,SBT2050,2,3,,4,17054,3.79061,-2.9357,2829.329,618.508,28.4,
1469,1,SBT2050,2,3,,4,17086,3.78282,-2.936,2829.329,644.605,28.4,
1469,1,SBT2050,2,3,,4,17118,3.77419,-2.9362,2829.329,670.703,28.4,
1469,1,SBT2050,2,3,,4,17150,3.76628,-2.9359,2829.329,696.8,28.5,
1469,1,SBT2050,2,3,,4,17182,3.75803,-2.9362,2829.329,722.897,28.5,
1469,1,SBT2050,2,3,,4,17214,3.74991,-2.9358,2829.329,748.995,28.5,
1469,1,SBT2050,2,3,,4,17246,3.74182,-2.9359,2829.329,775.092,28.4,
1469,1,SBT2050,2,3,,4,17278,3.73368,-2.9361,2829.329,801.189,28.4,
1469,1,SBT2050,2,3,,4,17310,3.72592,-2.9361,2829.329,827.286,28.5,
1469,1,SBT2050,2,3,,4,17342,3.71766,-2.9354,2829.329,853.384,28.4,
1469,1,SBT2050,2,3,,4,17374,3.70965,-2.9361,2829.329,879.481,28.4,
1469,1,SBT2050,2,3,,4,17406,3.70143,-2.9362,2829.329,905.578,28.4,
1469,1,SBT2050,2,3,,4,17438,3.69374,-2.9357,2829.329,931.676,28.4,
1469,1,SBT2050,2,3,,4,17470,3.68539,-2.9358,2829.329,957.773,28.5,
1469,1,SBT2050,2,3,,4,17502,3.67715,-2.9359,2829.329,983.87,28.4,
1469,1,SBT2050,2,3,,4,17534,3.66912,-2.936,2829.329,1009.968,28.4,
1469,1,SBT2050,2,3,,4,17566,3.66058,-2.9362,2829.329,1036.065,28.4,
1469,1,SBT2050,2,3,,4,17598,3.65201,-2.9355,2829.329,1062.162,28.4,
1469,1,SBT2050,2,3,,4,17630,3.643194,-2.936,2829.329,1088.26,28.5,
1469,1,SBT2050,2,3,,4,17662,3.63442,-2.9362,2829.329,1114.357,28.5,
1469,1,SBT2050,2,3,,4,17694,3.62558,-2.9359,2829.329,1140.454,28.5,
1469,1,SBT2050,2,3,,4,17726,3.61668,-2.9362,2829.329,1166.551,28.5,
1469,1,SBT2050,2,3,,4,17758,3.60775,-2.9359,2829.329,1192.649,28.5,
1469,1,SBT2050,2,3,,4,17790,3.59816,-2.9359,2829.329,1218.746,28.5,
1469,1,SBT2050,2,3,,4,17822,3.58881,-2.9356,2829.329,1244.844,28.6,
1469,1,SBT2050,2,3,,4,17854,3.57922,-2.936,2829.329,1270.941,28.6,
1469,1,SBT2050,2,3,,4,17886,3.57035,-2.9357,2829.329,1297.038,28.6,
1469,1,SBT2050,2,3,,4,17918,3.56108,-2.936,2829.329,1323.135,28.6,
1469,1,SBT2050,2,3,,4,17950,3.55182,-2.9366,2829.329,1349.233,28.6,
1469,1,SBT2050,2,3,,4,17982,3.54253,-2.9359,2829.329,1375.33,28.6,
1469,1,SBT2050,2,3,,4,18014,3.53329,-2.9364,2829.329,1401.427,28.7,
1469,1,SBT2050,2,3,,4,18046,3.52452,-2.9358,2829.329,1427.524,28.7,
1469,1,SBT2050,2,3,,4,18078,3.5155,-2.9359,2829.329,1453.622,28.7,
1469,1,SBT2050,2,3,,4,18110,3.50692,-2.9363,2829.329,1479.719,28.7,
1469,1,SBT2050,2,3,,4,18142,3.498504,-2.9363,2829.329,1505.816,28.7,
1469,1,SBT2050,2,3,,4,18174,3.49006,-2.9362,2829.329,1531.914,28.7,
1469,1,SBT2050,2,3,,4,18206,3.48171,-2.9359,2829.329,1558.011,28.7,
1469,1,SBT2050,2,3,,4,18238,3.47377,-2.9365,2829.329,1584.108,28.8,
1469,1,SBT2050,2,3,,4,18270,3.46568,-2.9361,2829.329,1610.205,28.8,
1469,1,SBT2050,2,3,,4,18302,3.458022,-2.9358,2829.329,1636.303,28.8,
1469,1,SBT2050,2,3,,4,18334,3.450208,-2.9356,2829.329,1662.4,28.8,
1469,1,SBT2050,2,3,,4,18366,3.44302,-2.9362,2829.329,1688.497,28.8,
1469,1,SBT2050,2,3,,4,18398,3.435518,-2.9362,2829.329,1714.594,28.9,
1469,1,SBT2050,2,3,,4,18430,3.42849,-2.9359,2829.329,1740.692,28.9,
1469,1,SBT2050,2,3,,4,18462,3.42119,-2.9363,2829.329,1766.789,28.9,
1469,1,SBT2050,2,3,,4,18494,3.41388,-2.9363,2829.329,1792.886,28.9,
1469,1,SBT2050,2,3,,4,18526,3.406902,-2.9361,2829.329,1818.983,28.9,
1469,1,SBT2050,2,3,,4,18558,3.39979,-2.9356,2829.329,1845.081,28.9,
1469,1,SBT2050,2,3,,4,18590,3.392718,-2.9356,2829.329,1871.178,29,
1469,1,SBT2050,2,3,,4,18622,3.38592,-2.9362,2829.329,1897.275,29,
1469,1,SBT2050,2,3,,4,18654,3.37872,-2.9357,2829.329,1923.373,29,
1469,1,SBT2050,2,3,,4,18686,3.3713,-2.936,2829.329,1949.47,29.1,
1469,1,SBT2050,2,3,,4,18718,3.364176,-2.9361,2829.329,1975.567,29.1,
1469,1,SBT2050,2,3,,4,18750,3.35679,-2.9361,2829.329,2001.664,29.1,
1469,1,SBT2050,2,3,,4,18782,3.34933,-2.9361,2829.329,2027.762,29.2,
1469,1,SBT2050,2,3,,4,18814,3.34151,-2.9358,2829.329,2053.859,29.2,
1469,1,SBT2050,2,3,,4,18846,3.333265,-2.9357,2829.329,2079.956,29.2,
1469,1,SBT2050,2,3,,4,18878,3.32526,-2.9355,2829.329,2106.053,29.2,
1469,1,SBT2050,2,3,,4,18910,3.31678,-2.9356,2829.329,2132.151,29.3,
1469,1,SBT2050,2,3,,4,18942,3.308009,-2.9357,2829.329,2158.248,29.3,
1469,1,SBT2050,2,3,,4,18974,3.298631,-2.9359,2829.329,2184.345,29.4,
1469,1,SBT2050,2,3,,4,19006,3.28898,-2.9355,2829.329,2210.442,29.4,
1469,1,SBT2050,2,3,,4,19038,3.27873,-2.9362,2829.329,2236.54,29.5,
1469,1,SBT2050,2,3,,4,19070,3.268115,-2.9359,2829.329,2262.637,29.5,
1469,1,SBT2050,2,3,,4,19102,3.25643,-2.9358,2829.329,2288.734,29.6,
1469,1,SBT2050,2,3,,4,19134,3.24427,-2.9353,2829.329,2314.831,29.6,
1469,1,SBT2050,2,3,,4,19166,3.23162,-2.9356,2829.329,2340.929,29.7,
1469,1,SBT2050,2,3,,4,19198,3.21799,-2.9358,2829.329,2367.026,29.8,
1469,1,SBT2050,2,3,,4,19230,3.20309,-2.9362,2829.329,2393.123,29.9,
1469,1,SBT2050,2,3,,4,19262,3.187488,-2.9356,2829.329,2419.221,30,
1469,1,SBT2050,2,3,,4,19294,3.1704,-2.9364,2829.329,2445.318,30.1,
1469,1,SBT2050,2,3,,4,19326,3.15169,-2.9354,2829.329,2471.415,30.2,
1469,1,SBT2050,2,3,,4,19358,3.13124,-2.9358,2829.329,2497.512,30.3,
1469,1,SBT2050,2,3,,4,19390,3.10876,-2.9361,2829.329,2523.61,30.5,
1469,1,SBT2050,2,3,,4,19422,3.08427,-2.9361,2829.329,2549.707,30.6,
1469,1,SBT2050,2,3,,4,19454,3.057271,-2.9359,2829.329,2575.804,30.8,
1469,1,SBT2050,2,3,,4,19486,3.0269,-2.9361,2829.329,2601.902,31,
1469,1,SBT2050,2,3,,4,19518,2.99324,-2.9361,2829.329,2627.999,31.2,
1469,1,SBT2050,2,3,,4,19550,2.95494,-2.9357,2829.329,2654.096,31.5,
1469,1,SBT2050,2,3,,4,19582,2.911098,-2.9364,2829.329,2680.194,31.8,
1469,1,SBT2050,2,3,,4,19614,2.86039,-2.9357,2829.329,2706.291,32.1,
1469,1,SBT2050,2,3,,4,19646,2.80046,-2.936,2829.329,2732.388,32.5,
1469,1,SBT2050,2,3,,4,19678,2.729114,-2.9357,2829.329,2758.485,33,
1469,1,SBT2050,2,3,,4,19710,2.64359,-2.9364,2829.329,2784.583,33.4,
1469,1,SBT2050,2,3,,4,19742,2.539545,-2.9362,2829.329,2810.68,34.1,
1469,1,SBT2050,2,3,,4,19774,2.499871,-2.5496,2829.329,2835.404,34.9,
1469,1,SBT2050,2,3,,4,19806,2.49984,-2.2205,2829.329,2856.531,35.3,
1469,1,SBT2050,2,3,,4,19838,2.49974,-1.9506,2829.329,2875.045,35.5,
1469,1,SBT2050,2,3,,4,19870,2.49985,-1.7114,2829.329,2891.296,35.5,
1469,1,SBT2050,2,3,,4,19902,2.49986,-1.4975,2829.329,2905.539,35.3,
1469,1,SBT2050,2,3,,4,19934,2.499716,-1.3085,2829.329,2917.99,35.1,
1469,1,SBT2050,2,3,,4,19966,2.49975,-1.1432,2829.329,2928.869,34.7,
1469,1,SBT2050,2,3,,4,19998,2.49986,-1.0001,2829.329,2938.379,34.3,
1469,1,SBT2050,2,3,,4,20030,2.49974,-0.8789,2829.329,2946.717,33.8,
1469,1,SBT2050,2,3,,4,20062,2.49976,-0.7744,2829.329,2954.05,33.3,
1469,1,SBT2050,2,3,,4,20094,2.49969,-0.685,2829.329,2960.528,32.8,
1469,1,SBT2050,2,3,,4,20126,2.49978,-0.6089,2829.329,2966.271,32.3,
1469,1,SBT2050,2,3,,4,20158,2.4998,-0.5425,2829.329,2971.38,31.9,
1469,1,SBT2050,2,3,,4,20190,2.49986,-0.4859,2829.329,2975.944,31.4,
1469,1,SBT2050,2,3,,4,20222,2.49991,-0.43506,2829.329,2980.027,30.9,
1469,1,SBT2050,2,3,,4,20254,2.49979,-0.39232,2829.329,2983.698,30.4,
1469,1,SBT2050,2,3,,4,20286,2.499716,-0.35471,2829.329,2987.017,30.1,
1469,1,SBT2050,2,3,,4,20318,2.49995,-0.32285,2829.329,2990.028,29.7,
1469,1,SBT2050,2,3,,4,20350,2.49964,-0.29451,2829.329,2992.769,29.3,
1469,1,SBT2050,2,3,,4,20382,2.49981,-0.26875,2829.329,2995.27,29,
1469,1,SBT2050,2,3,,4,20414,2.499716,-0.24573,2829.329,2997.554,28.7,
1469,1,SBT2050,2,3,,4,20446,2.49981,-0.22443,2829.329,2999.641,28.4,
1469,1,SBT2050,2,3,,4,20478,2.49967,-0.20485,2829.329,3001.548,28.2,
1469,1,SBT2050,2,3,,4,20510,2.49958,-0.18697,2829.329,3003.29,27.9,
1469,1,SBT2050,2,3,,4,20542,2.49969,-0.17009,2829.329,3004.875,27.7,
1469,1,SBT2050,2,3,,4,20574,2.499704,-0.15447,2829.329,3006.316,27.4,
1469,1,SBT2050,2,3,,4,20606,2.49968,-0.13991,2829.329,3007.623,27.3,
1469,1,SBT2050,2,3,,4,20638,2.4998,-0.12633,2829.329,3008.806,27.1,
1469,1,SBT2050,2,3,,4,20670,2.499871,-0.11429,2829.329,3009.875,27,
1469,1,SBT2050,2,3,,4,20702,2.49974,-0.10238,2829.329,3010.837,26.8,
1469,1,SBT2050,2,3,,4,20734,2.49976,-0.09127,2829.329,3011.696,26.7,
1469,1,SBT2050,2,3,,4,20766,2.49994,-0.08085,2829.329,3012.46,26.5,
1469,1,SBT2050,2,3,,4,20798,2.49978,-0.07087,2829.329,3013.133,26.4,
1469,1,SBT2050,2,3,,4,20830,2.49981,-0.06199,2829.329,3013.722,26.3,
1469,1,SBT2050,2,3,,4,20862,2.49978,-0.05374,2829.329,3014.236,26.2,
1469,1,SBT2050,2,3,,4,20894,2.499704,-0.04685,2829.329,3014.682,26.1,
1469,1,SBT2050,2,3,,4,20926,2.50005,-0.041239,2829.329,3015.073,26.1,
1469,1,SBT2050,2,3,,4,20958,2.49992,-0.036509,2829.329,3015.416,26,
1469,1,SBT2050,2,3,,4,20990,2.49985,-0.032581,2829.329,3015.722,25.9,
1469,1,SBT2050,2,3,,4,21022,2.49986,-0.029327,2829.329,3015.996,25.8,
1469,1,SBT2050,2,3,,4,21054,2.49992,-0.026998,2829.329,3016.247,25.8,
1469,1,SBT2050,2,3,,4,21086,2.50006,-0.025088,2829.329,3016.478,25.7,
1469,1,SBT2050,2,3,,4,21118,2.49999,-0.023468,2829.329,3016.693,25.7,
1469,1,SBT2050,2,3,,4,21150,2.50013,-0.022227,2829.329,3016.896,25.6,
1469,1,SBT2050,2,3,,4,21182,2.49994,-0.021043,2829.329,3017.088,25.6,
1469,1,SBT2050,2,3,,4,21214,2.50006,-0.020321,2829.329,3017.271,25.6,
1469,1,SBT2050,2,3,,4,21246,2.50013,-0.019367,2829.329,3017.447,25.5,
1469,1,SBT2050,2,3,,4,21278,2.4998,-0.01877,2829.329,3017.617,25.5,
1469,1,SBT2050,2,3,,4,21310,2.5,-0.018258,2829.329,3017.782,25.5,
1469,1,SBT2050,2,3,,4,21342,2.49992,-0.017714,2829.329,3017.941,25.5,
1469,1,SBT2050,2,3,,4,21374,2.49992,-0.017255,2829.329,3018.097,25.5,
1469,1,SBT2050,2,3,,4,21406,2.50005,-0.016936,2829.329,3018.249,25.4,
1469,1,SBT2050,2,3,,4,21438,2.50001,-0.016503,2829.329,3018.397,25.4,
1469,1,SBT2050,2,3,,4,21470,2.50011,-0.016142,2829.329,3018.542,25.4,
1469,1,SBT2050,2,3,,4,21502,2.50005,-0.015841,2829.329,3018.684,25.4,
1469,1,SBT2050,2,3,,4,21534,2.49989,-0.015562,2829.329,3018.823,25.4,
1469,1,SBT2050,2,3,,4,21566,2.49985,-0.015266,2829.329,3018.96,25.4,
1469,1,SBT2050,2,3,,4,21598,2.49993,-0.014925,2829.329,3019.095,25.4,
1469,1,SBT2050,2,3,,4,21630,2.49995,-0.014889,2829.329,3019.227,25.4,
1469,1,SBT2050,2,3,,4,21662,2.49997,-0.014433,2829.329,3019.357,25.3,
1469,1,SBT2050,2,3,,4,21694,2.49995,-0.014389,2829.329,3019.485,25.3,
1469,1,SBT2050,2,3,,4,21726,2.50005,-0.014069,2829.329,3019.611,25.3,
1469,1,SBT2050,2,3,,4,21758,2.49995,-0.013973,2829.329,3019.736,25.3,
1469,1,SBT2050,2,3,,4,21790,2.50007,-0.013707,2829.329,3019.858,25.3,
1469,1,SBT2050,2,3,,4,21822,2.49993,-0.013391,2829.329,3019.979,25.3,
1469,1,SBT2050,2,3,,4,21854,2.49998,-0.013388,2829.329,3020.098,25.3,
1469,1,SBT2050,2,3,,4,21886,2.49998,-0.013038,2829.329,3020.215,25.3,
1469,1,SBT2050,2,3,,4,21918,2.49997,-0.012829,2829.329,3020.331,25.3,
1469,1,SBT2050,2,3,,4,21950,2.50007,-0.012763,2829.329,3020.445,25.3,
1469,1,SBT2050,2,3,,4,21982,2.49999,-0.012552,2829.329,3020.558,25.3,
1469,1,SBT2050,2,3,,4,22014,2.49997,-0.012393,2829.329,3020.669,25.3,
1469,1,SBT2050,2,3,,4,22046,2.5001,-0.012326,2829.329,3020.779,25.3,
1469,1,SBT2050,2,3,,4,22078,2.49999,-0.012084,2829.329,3020.887,25.3,
1469,1,SBT2050,2,3,,4,22110,2.50001,-0.011884,2829.329,3020.994,25.3,
1469,1,SBT2050,2,3,,4,22142,2.49994,-0.011679,2829.329,3021.099,25.3,
1469,1,SBT2050,2,3,,4,22174,2.50011,-0.011771,2829.329,3021.203,25.3,
1469,1,SBT2050,2,3,,4,22206,2.49999,-0.011439,2829.329,3021.306,25.3,
1469,1,SBT2050,2,3,,4,22238,2.499883,-0.011362,2829.329,3021.408,25.3,
1469,1,SBT2050,2,3,,4,22270,2.49997,-0.011168,2829.329,3021.508,25.3,
1469,1,SBT2050,2,3,,4,22302,2.500038,-0.011086,2829.329,3021.607,25.2,
1469,1,SBT2050,2,3,,4,22334,2.49979,-0.010792,2829.329,3021.706,25.3,
1469,1,SBT2050,2,3,,4,22366,2.50015,-0.01088,2829.329,3021.802,25.3,
1469,1,SBT2050,2,3,,4,22398,2.49993,-0.010609,2829.329,3021.898,25.3,
1469,1,SBT2050,2,3,,4,22430,2.49999,-0.010454,2829.329,3021.993,25.3,
1469,1,SBT2050,2,3,,4,22462,2.50006,-0.010589,2829.329,3022.086,25.3,
1469,1,SBT2050,2,3,,4,22494,2.50006,-0.010463,2829.329,3022.178,25.2,
1469,1,SBT2050,2,3,,5,22525,2.502028,0,2829.329,3022.265,25.2,
1469,1,SBT2050,2,3,,5,22557,2.52685,0,2829.329,3022.265,25.2,
1469,1,SBT2050,2,3,,5,22589,2.54514,0,2829.329,3022.265,25.3,
1469,1,SBT2050,2,3,,5,22621,2.56133,0,2829.329,3022.265,25.3,
1469,1,SBT2050,2,3,,5,22653,2.575969,0,2829.329,3022.265,25.3,
1469,1,SBT2050,2,3,,5,22685,2.58977,0,2829.329,3022.265,25.3,
1469,1,SBT2050,2,3,,5,22717,2.60203,0,2829.329,3022.265,25.3,
1469,1,SBT2050,2,3,,5,22749,2.61386,0,2829.329,3022.265,25.2,
1469,1,SBT2050,2,3,,5,22781,2.6246,0,2829.329,3022.265,25.2,
1469,1,SBT2050,2,3,,5,22813,2.63459,0,2829.329,3022.265,25.2,
1469,1,SBT2050,2,3,,5,22845,2.643996,0,2829.329,3022.265,25.2,
1469,1,SBT2050,2,3,,5,22877,2.65286,0,2829.329,3022.265,25.2,
1469,1,SBT2050,2,3,,5,22909,2.66055,0,2829.329,3022.265,25.2,
1469,1,SBT2050,2,3,,5,22941,2.66805,0,2829.329,3022.265,25.2,
1469,1,SBT2050,2,3,,5,22973,2.675,0,2829.329,3022.265,25.2,
1469,1,SBT2050,2,3,,5,23005,2.68154,0,2829.329,3022.265,25.2,
1469,1,SBT2050,2,3,,5,23037,2.68789,0,2829.329,3022.265,25.2,
1469,1,SBT2050,2,3,,5,23069,2.69348,0,2829.329,3022.265,25.2,
1469,1,SBT2050,2,3,,5,23101,2.69935,0,2829.329,3022.265,25.2,
1469,1,SBT2050,2,3,,5,23133,2.70462,0,2829.329,3022.265,25.2,
1469,1,SBT2050,2,3,,5,23165,2.70953,0,2829.329,3022.265,25.2,
1469,1,SBT2050,2,3,,5,23197,2.7143,0,2829.329,3022.265,25.2,
1469,1,SBT2050,2,3,,5,23229,2.71866,0,2829.329,3022.265,25.2,
1469,1,SBT2050,2,3,,5,23261,2.72293,0,2829.329,3022.265,25.2,
1469,1,SBT2050,2,3,,5,23293,2.72731,0,2829.329,3022.265,25.2,
1469,1,SBT2050,2,3,,5,23325,2.73075,0,2829.329,3022.265,25.2,
1469,1,SBT2050,2,3,,5,23357,2.73452,0,2829.329,3022.265,25.2,
1469,1,SBT2050,2,3,,5,23389,2.73813,0,2829.329,3022.265,25.2,
1469,1,SBT2050,2,3,,5,23421,2.74171,0,2829.329,3022.265,25.2,
1469,1,SBT2050,2,3,,5,23453,2.74452,0,2829.329,3022.265,25.2,
1469,1,SBT2050,2,3,,5,23485,2.74779,0,2829.329,3022.265,25.2,
1469,1,SBT2050,2,3,,5,23517,2.75069,0,2829.329,3022.265,25.2,
1469,1,SBT2050,2,3,,5,23549,2.75336,0,2829.329,3022.265,25.2,
1469,1,SBT2050,2,3,,5,23581,2.75606,0,2829.329,3022.265,25.2,
1469,1,SBT2050,2,3,,5,23613,2.75872,0,2829.329,3022.265,25.2,
1469,1,SBT2050,2,3,,5,23645,2.76136,0,2829.329,3022.265,25.2,
1469,1,SBT2050,2,3,,5,23677,2.76385,0,2829.329,3022.265,25.2,
1469,1,SBT2050,2,3,,5,23709,2.76617,0,2829.329,3022.265,25.2,
1469,1,SBT2050,2,3,,5,23741,2.76824,0,2829.329,3022.265,25.2,
1469,1,SBT2050,2,3,,5,23773,2.770346,0,2829.329,3022.265,25.2,
1469,1,SBT2050,2,3,,5,23805,2.772567,0,2829.329,3022.265,25.2,
1469,1,SBT2050,2,3,,5,23837,2.77453,0,2829.329,3022.265,25.2,
1469,1,SBT2050,2,3,,5,23869,2.77636,0,2829.329,3022.265,25.2,
1469,1,SBT2050,2,3,,5,23901,2.77824,0,2829.329,3022.265,25.2,
1469,1,SBT2050,2,3,,5,23933,2.78009,0,2829.329,3022.265,25.2,
1469,1,SBT2050,2,3,,5,23965,2.78178,0,2829.329,3022.265,25.2,
1469,1,SBT2050,2,3,,5,23997,2.78345,0,2829.329,3022.265,25.2,
1469,1,SBT2050,2,3,,5,24029,2.785022,0,2829.329,3022.265,25.2,
1469,1,SBT2050,2,3,,5,24061,2.78654,0,2829.329,3022.265,25.2,
1469,1,SBT2050,2,3,,5,24093,2.7882,0,2829.329,3022.265,25.2,
1469,1,SBT2050,2,3,,5,24125,2.78974,0,2829.329,3022.265,25.2,
1469,1,SBT2050,2,3,,5,24157,2.79132,0,2829.329,3022.265,25.2,
1469,1,SBT2050,2,3,,5,24189,2.79258,0,2829.329,3022.265,25.2,
1469,1,SBT2050,2,3,,5,24221,2.79421,0,2829.329,3022.265,25.2,
1469,1,SBT2050,2,3,,5,24253,2.79535,0,2829.329,3022.265,25.2,
1469,1,SBT2050,2,3,,5,24285,2.79657,0,2829.329,3022.265,25.2,
1469,1,SBT2050,2,3,,5,24317,2.79808,0,2829.329,3022.265,25.2,
1469,1,SBT2050,2,3,,5,24324.21,2.79846,-0.0001,2829.329,3022.265,,