File: ORRG/Test1582.csv
Request Year:,2018,,,,,,,,,,,,
Test:,1582,,,,,,,,,,,,
Test Description:,,,,,,,,,,,,,
TestRegime Name:,Dchg_1C,,,,,,,,,,,,
TestRegime Suffix:,SHP_LC,,,,,,,,,,,,
TestRegime CellSize:,18650,,,,,,,,,,,,
TestRegime Version:,1,,,,,,,,,,,,
Number Of Cells:,1,,,,,,,,,,,,
LotID:,,,,,,,,,,,,,
Lot Description:,,,,,,,,,,,,,
Date Made:,1/21/2003 12:00 AM,,,,,,,,,,,,
Origin:,Other,,,,,,,,,,,,
Requestor:,Admin,,,,,,,,,,,,
Product ID:,Default product,,,,,,,,,,,,
Storage Temp:,R.T./AMB,,,,,,,,,,,,
Storage Delay:,0 days,,,,,,,,,,,,
Test Temp:,R.T./AMB,,,,,,,,,,,,
Start Time:,4/28/2018 2:12 PM,,,,,,,,,,,,
End Time:,4/28/2018 2:58 PM,,,,,,,,,,,,
Operator Instructions:,,,,,,,,,,,,,
Test,Cell,Rack,Shelf,Position,Cell ID,Step,Total Time (Seconds),Voltage (V),Current (A),Charge Capacity (mAh),Discharge Capacity (mAh),TC1 (Â°C),
1582,1,SBT2050,2,3,,0,1,4.01384,0,0,0,28.6,
1582,1,SBT2050,2,3,,0,5,4.013598,0,0,0,28.6,
1582,1,SBT2050,2,3,,0,9,4.013554,0,0,0,28.6,
1582,1,SBT2050,2,3,,0,13,4.01351,0,0,0,28.6,
1582,1,SBT2050,2,3,,0,17,4.01368,0,0,0,28.6,
1582,1,SBT2050,2,3,,0,21,4.01336,0,0,0,28.6,
1582,1,SBT2050,2,3,,0,25,4.01344,0,0,0,28.6,
1582,1,SBT2050,2,3,,0,29,4.01338,0,0,0,28.5,
1582,1,SBT2050,2,3,,0,33,4.01346,0,0,0,28.5,
1582,1,SBT2050,2,3,,0,37,4.01336,0,0,0,28.5,
1582,1,SBT2050,2,3,,0,41,4.01349,0,0,0,28.5,
1582,1,SBT2050,2,3,,0,45,4.01336,0,0,0,28.5,
1582,1,SBT2050,2,3,,0,49,4.01339,0,0,0,28.5,
1582,1,SBT2050,2,3,,0,53,4.01341,0,0,0,28.5,
1582,1,SBT2050,2,3,,0,57,4.01344,0,0,0,28.5,
1582,1,SBT2050,2,3,,1,61,3.849556,-2.6998,0,0.749,28.5,
1582,1,SBT2050,2,3,,1,65,3.82669,-2.7001,0,3.749,28.5,
1582,1,SBT2050,2,3,,1,69,3.81405,-2.6999,0,6.749,28.5,
1582,1,SBT2050,2,3,,1,73,3.804334,-2.6998,0,9.749,28.5,
1582,1,SBT2050,2,3,,1,77,3.79631,-2.6998,0,12.748,28.5,
1582,1,SBT2050,2,3,,1,81,3.79004,-2.7,0,15.748,28.6,
1582,1,SBT2050,2,3,,1,85,3.78442,-2.7001,0,18.748,28.6,
1582,1,SBT2050,2,3,,1,89,3.77935,-2.7001,0,21.748,28.6,
1582,1,SBT2050,2,3,,1,93,3.77513,-2.7001,0,24.748,28.6,
1582,1,SBT2050,2,3,,1,97,3.77148,-2.6998,0,27.748,28.7,
1582,1,SBT2050,2,3,,1,101,3.76764,-2.7001,0,30.748,28.6,
1582,1,SBT2050,2,3,,1,105,3.76418,-2.7,0,33.748,28.7,
1582,1,SBT2050,2,3,,1,109,3.76141,-2.6998,0,36.748,28.7,
1582,1,SBT2050,2,3,,1,113,3.75842,-2.7003,0,39.748,28.7,
1582,1,SBT2050,2,3,,1,117,3.75566,-2.6997,0,42.748,28.7,
1582,1,SBT2050,2,3,,1,121,3.75299,-2.6998,0,45.748,28.7,
1582,1,SBT2050,2,3,,1,125,3.7505,-2.6998,0,48.748,28.8,
1582,1,SBT2050,2,3,,1,129,3.748232,-2.6998,0,51.748,28.8,
1582,1,SBT2050,2,3,,1,133,3.745886,-2.6997,0,54.747,28.8,
1582,1,SBT2050,2,3,,1,137,3.74364,-2.7,0,57.747,28.8,
1582,1,SBT2050,2,3,,1,141,3.74147,-2.7001,0,60.747,28.8,
1582,1,SBT2050,2,3,,1,145,3.73975,-2.7002,0,63.747,28.8,
1582,1,SBT2050,2,3,,1,149,3.73766,-2.6995,0,66.747,28.8,
1582,1,SBT2050,2,3,,1,153,3.73574,-2.6998,0,69.747,28.8,
1582,1,SBT2050,2,3,,1,157,3.73407,-2.6997,0,72.747,28.8,
1582,1,SBT2050,2,3,,1,161,3.7321,-2.7001,0,75.747,28.9,
1582,1,SBT2050,2,3,,1,165,3.73013,-2.7001,0,78.747,28.9,
1582,1,SBT2050,2,3,,1,169,3.72876,-2.6999,0,81.747,28.9,
1582,1,SBT2050,2,3,,1,173,3.72702,-2.6999,0,84.747,28.9,
1582,1,SBT2050,2,3,,1,177,3.72524,-2.6997,0,87.747,28.9,
1582,1,SBT2050,2,3,,1,181,3.72376,-2.7,0,90.747,28.9,
1582,1,SBT2050,2,3,,1,185,3.72216,-2.6998,0,93.747,28.9,
1582,1,SBT2050,2,3,,1,189,3.72038,-2.7,0,96.746,28.9,
1582,1,SBT2050,2,3,,1,193,3.7191,-2.6997,0,99.746,28.9,
1582,1,SBT2050,2,3,,1,197,3.71757,-2.6997,0,102.746,28.9,
1582,1,SBT2050,2,3,,1,201,3.71601,-2.7001,0,105.746,28.9,
1582,1,SBT2050,2,3,,1,205,3.7146,-2.6996,0,108.746,29,
1582,1,SBT2050,2,3,,1,209,3.71308,-2.6999,0,111.746,29,
1582,1,SBT2050,2,3,,1,213,3.71185,-2.7005,0,114.746,29,
1582,1,SBT2050,2,3,,1,217,3.71053,-2.7001,0,117.746,29,
1582,1,SBT2050,2,3,,1,221,3.70905,-2.6997,0,120.746,29,
1582,1,SBT2050,2,3,,1,225,3.70742,-2.6998,0,123.746,29,
1582,1,SBT2050,2,3,,1,229,3.70625,-2.7,0,126.746,29,
1582,1,SBT2050,2,3,,1,233,3.70475,-2.7003,0,129.746,29,
1582,1,SBT2050,2,3,,1,237,3.7033,-2.6998,0,132.746,29,
1582,1,SBT2050,2,3,,1,241,3.70208,-2.7001,0,135.746,29,
1582,1,SBT2050,2,3,,1,245,3.70084,-2.7,0,138.746,29,
1582,1,SBT2050,2,3,,1,249,3.69963,-2.7001,0,141.745,29,
1582,1,SBT2050,2,3,,1,253,3.69839,-2.7001,0,144.745,29.1,
1582,1,SBT2050,2,3,,1,257,3.69699,-2.7,0,147.745,29,
1582,1,SBT2050,2,3,,1,261,3.69578,-2.6998,0,150.745,29,
1582,1,SBT2050,2,3,,1,265,3.69436,-2.7006,0,153.745,29,
1582,1,SBT2050,2,3,,1,269,3.693258,-2.6998,0,156.745,29,
1582,1,SBT2050,2,3,,1,273,3.69188,-2.7004,0,159.745,29.1,
1582,1,SBT2050,2,3,,1,277,3.690404,-2.6999,0,162.745,29.1,
1582,1,SBT2050,2,3,,1,281,3.68926,-2.7002,0,165.745,29.1,
1582,1,SBT2050,2,3,,1,285,3.68813,-2.7002,0,168.745,29.1,
1582,1,SBT2050,2,3,,1,289,3.68711,-2.6999,0,171.745,29.1,
1582,1,SBT2050,2,3,,1,293,3.68597,-2.6995,0,174.745,29.1,
1582,1,SBT2050,2,3,,1,297,3.68458,-2.7,0,177.745,29.1,
1582,1,SBT2050,2,3,,1,301,3.68335,-2.7,0,180.745,29.1,
1582,1,SBT2050,2,3,,1,305,3.68226,-2.7,0,183.745,29.1,
1582,1,SBT2050,2,3,,1,309,3.68094,-2.7002,0,186.745,29.1,
1582,1,SBT2050,2,3,,1,313,3.67984,-2.6994,0,189.745,29.1,
1582,1,SBT2050,2,3,,1,317,3.67878,-2.7003,0,192.745,29.1,
1582,1,SBT2050,2,3,,1,321,3.67749,-2.6998,0,195.745,29.1,
1582,1,SBT2050,2,3,,1,325,3.67658,-2.7003,0,198.744,29.1,
1582,1,SBT2050,2,3,,1,329,3.67508,-2.6997,0,201.744,29.1,
1582,1,SBT2050,2,3,,1,333,3.674076,-2.7,0,204.744,29.1,
1582,1,SBT2050,2,3,,1,337,3.67293,-2.7001,0,207.744,29.1,
1582,1,SBT2050,2,3,,1,341,3.67157,-2.7,0,210.744,29.1,
1582,1,SBT2050,2,3,,1,345,3.67046,-2.6999,0,213.744,29.1,
1582,1,SBT2050,2,3,,1,349,3.669434,-2.6998,0,216.744,29.1,
1582,1,SBT2050,2,3,,1,353,3.6683,-2.7002,0,219.744,29.1,
1582,1,SBT2050,2,3,,1,357,3.66718,-2.7001,0,222.744,29.1,
1582,1,SBT2050,2,3,,1,361,3.666132,-2.7001,0,225.744,29.1,
1582,1,SBT2050,2,3,,1,365,3.66487,-2.6998,0,228.744,29.1,
1582,1,SBT2050,2,3,,1,369,3.6637,-2.6998,0,231.744,29.1,
1582,1,SBT2050,2,3,,1,373,3.66274,-2.7,0,234.744,29.1,
1582,1,SBT2050,2,3,,1,377,3.66135,-2.7,0,237.744,29.1,
1582,1,SBT2050,2,3,,1,381,3.66045,-2.7002,0,240.744,29.1,
1582,1,SBT2050,2,3,,1,385,3.6595,-2.7002,0,243.744,29.1,
1582,1,SBT2050,2,3,,1,389,3.657866,-2.6994,0,246.744,29.1,
1582,1,SBT2050,2,3,,1,393,3.65682,-2.7001,0,249.744,29.1,
1582,1,SBT2050,2,3,,1,397,3.65583,-2.7001,0,252.743,29.1,
1582,1,SBT2050,2,3,,1,401,3.65495,-2.6997,0,255.743,29.1,
1582,1,SBT2050,2,3,,1,405,3.65362,-2.6999,0,258.743,29.1,
1582,1,SBT2050,2,3,,1,409,3.65276,-2.7001,0,261.743,29.1,
1582,1,SBT2050,2,3,,1,413,3.65142,-2.7001,0,264.743,29.1,
1582,1,SBT2050,2,3,,1,417,3.65026,-2.6996,0,267.743,29.1,
1582,1,SBT2050,2,3,,1,421,3.649332,-2.6999,0,270.743,29.1,
1582,1,SBT2050,2,3,,1,425,3.648174,-2.6999,0,273.743,29.1,
1582,1,SBT2050,2,3,,1,429,3.64699,-2.6999,0,276.743,29.1,
1582,1,SBT2050,2,3,,1,433,3.646086,-2.6998,0,279.743,29.1,
1582,1,SBT2050,2,3,,1,437,3.64484,-2.7001,0,282.743,29.1,
1582,1,SBT2050,2,3,,1,441,3.64399,-2.7,0,285.743,29.2,
1582,1,SBT2050,2,3,,1,445,3.64257,-2.7001,0,288.743,29.1,
1582,1,SBT2050,2,3,,1,449,3.641652,-2.6998,0,291.743,29.1,
1582,1,SBT2050,2,3,,1,453,3.64061,-2.6998,0,294.743,29.1,
1582,1,SBT2050,2,3,,1,457,3.63954,-2.7002,0,297.743,29.1,
1582,1,SBT2050,2,3,,1,461,3.63812,-2.7,0,300.742,29.2,
1582,1,SBT2050,2,3,,1,465,3.637206,-2.6998,0,303.742,29.2,
1582,1,SBT2050,2,3,,1,469,3.63596,-2.7,0,306.742,29.2,
1582,1,SBT2050,2,3,,1,473,3.6352,-2.6994,0,309.742,29.1,
1582,1,SBT2050,2,3,,1,477,3.63406,-2.7002,0,312.742,29.1,
1582,1,SBT2050,2,3,,1,481,3.63284,-2.6999,0,315.742,29.2,
1582,1,SBT2050,2,3,,1,485,3.631982,-2.6997,0,318.742,29.2,
1582,1,SBT2050,2,3,,1,489,3.63083,-2.6997,0,321.742,29.2,
1582,1,SBT2050,2,3,,1,493,3.62968,-2.6998,0,324.742,29.1,
1582,1,SBT2050,2,3,,1,497,3.628532,-2.7001,0,327.742,29.1,
1582,1,SBT2050,2,3,,1,501,3.62753,-2.6999,0,330.742,29.2,
1582,1,SBT2050,2,3,,1,505,3.62647,-2.7004,0,333.742,29.2,
1582,1,SBT2050,2,3,,1,509,3.62537,-2.7001,0,336.742,29.2,
1582,1,SBT2050,2,3,,1,513,3.62449,-2.7,0,339.742,29.2,
1582,1,SBT2050,2,3,,1,517,3.62319,-2.6999,0,342.742,29.2,
1582,1,SBT2050,2,3,,1,521,3.62228,-2.7003,0,345.742,29.2,
1582,1,SBT2050,2,3,,1,525,3.62103,-2.6998,0,348.742,29.2,
1582,1,SBT2050,2,3,,1,529,3.62025,-2.7,0,351.742,29.1,
1582,1,SBT2050,2,3,,1,533,3.61917,-2.6999,0,354.741,29.1,
1582,1,SBT2050,2,3,,1,537,3.61784,-2.6999,0,357.741,29.2,
1582,1,SBT2050,2,3,,1,541,3.6168,-2.6998,0,360.741,29.1,
1582,1,SBT2050,2,3,,1,545,3.61577,-2.7001,0,363.741,29.2,
1582,1,SBT2050,2,3,,1,549,3.61456,-2.7004,0,366.741,29.2,
1582,1,SBT2050,2,3,,1,553,3.61339,-2.7001,0,369.741,29.1,
1582,1,SBT2050,2,3,,1,557,3.61246,-2.6998,0,372.741,29.2,
1582,1,SBT2050,2,3,,1,561,3.61157,-2.7001,0,375.741,29.1,
1582,1,SBT2050,2,3,,1,565,3.61035,-2.7005,0,378.741,29.1,
1582,1,SBT2050,2,3,,1,569,3.6092,-2.6999,0,381.741,29.1,
1582,1,SBT2050,2,3,,1,573,3.60846,-2.7,0,384.741,29.2,
1582,1,SBT2050,2,3,,1,577,3.60715,-2.6995,0,387.741,29.2,
1582,1,SBT2050,2,3,,1,581,3.60611,-2.7007,0,390.741,29.2,
1582,1,SBT2050,2,3,,1,585,3.60487,-2.7001,0,393.741,29.2,
1582,1,SBT2050,2,3,,1,589,3.603586,-2.6999,0,396.741,29.2,
1582,1,SBT2050,2,3,,1,593,3.60273,-2.6998,0,399.741,29.2,
1582,1,SBT2050,2,3,,1,597,3.6014,-2.7002,0,402.741,29.2,
1582,1,SBT2050,2,3,,1,601,3.60038,-2.6998,0,405.741,29.2,
1582,1,SBT2050,2,3,,1,605,3.59935,-2.6999,0,408.741,29.2,
1582,1,SBT2050,2,3,,1,609,3.5984,-2.6998,0,411.74,29.2,
1582,1,SBT2050,2,3,,1,613,3.59727,-2.7001,0,414.74,29.2,
1582,1,SBT2050,2,3,,1,617,3.59633,-2.6996,0,417.74,29.2,
1582,1,SBT2050,2,3,,1,621,3.59543,-2.7001,0,420.74,29.1,
1582,1,SBT2050,2,3,,1,625,3.59413,-2.6999,0,423.74,29.2,
1582,1,SBT2050,2,3,,1,629,3.593132,-2.7002,0,426.74,29.2,
1582,1,SBT2050,2,3,,1,633,3.591948,-2.6998,0,429.74,29.2,
1582,1,SBT2050,2,3,,1,637,3.59103,-2.7,0,432.74,29.2,
1582,1,SBT2050,2,3,,1,641,3.58976,-2.7,0,435.74,29.2,
1582,1,SBT2050,2,3,,1,645,3.58859,-2.6994,0,438.74,29.2,
1582,1,SBT2050,2,3,,1,649,3.58779,-2.6995,0,441.74,29.2,
1582,1,SBT2050,2,3,,1,653,3.58662,-2.7003,0,444.74,29.2,
1582,1,SBT2050,2,3,,1,657,3.58563,-2.7001,0,447.74,29.2,
1582,1,SBT2050,2,3,,1,661,3.58455,-2.7,0,450.74,29.2,
1582,1,SBT2050,2,3,,1,665,3.58334,-2.6998,0,453.74,29.2,
1582,1,SBT2050,2,3,,1,669,3.58225,-2.6998,0,456.74,29.2,
1582,1,SBT2050,2,3,,1,673,3.58091,-2.7,0,459.74,29.2,
1582,1,SBT2050,2,3,,1,677,3.57995,-2.6998,0,462.74,29.2,
1582,1,SBT2050,2,3,,1,681,3.57878,-2.6997,0,465.739,29.2,
1582,1,SBT2050,2,3,,1,685,3.57797,-2.7001,0,468.739,29.2,
1582,1,SBT2050,2,3,,1,689,3.57684,-2.7001,0,471.739,29.2,
1582,1,SBT2050,2,3,,1,693,3.57588,-2.7001,0,474.739,29.2,
1582,1,SBT2050,2,3,,1,697,3.57457,-2.6999,0,477.739,29.2,
1582,1,SBT2050,2,3,,1,701,3.57349,-2.6999,0,480.739,29.2,
1582,1,SBT2050,2,3,,1,705,3.57239,-2.6995,0,483.739,29.2,
1582,1,SBT2050,2,3,,1,709,3.57125,-2.6999,0,486.739,29.2,
1582,1,SBT2050,2,3,,1,713,3.57012,-2.7001,0,489.739,29.2,
1582,1,SBT2050,2,3,,1,717,3.56895,-2.7001,0,492.739,29.2,
1582,1,SBT2050,2,3,,1,721,3.56805,-2.6996,0,495.739,29.2,
1582,1,SBT2050,2,3,,1,725,3.56717,-2.7002,0,498.739,29.2,
1582,1,SBT2050,2,3,,1,729,3.566142,-2.7002,0,501.739,29.2,
1582,1,SBT2050,2,3,,1,733,3.5648,-2.7001,0,504.739,29.2,
1582,1,SBT2050,2,3,,1,737,3.56375,-2.7001,0,507.739,29.2,
1582,1,SBT2050,2,3,,1,741,3.56259,-2.7003,0,510.739,29.2,
1582,1,SBT2050,2,3,,1,745,3.56154,-2.7,0,513.739,29.2,
1582,1,SBT2050,2,3,,1,749,3.56031,-2.7003,0,516.739,29.2,
1582,1,SBT2050,2,3,,1,753,3.55916,-2.6998,0,519.739,29.2,
1582,1,SBT2050,2,3,,1,757,3.55795,-2.6996,0,522.738,29.2,
1582,1,SBT2050,2,3,,1,761,3.55695,-2.6999,0,525.738,29.2,
1582,1,SBT2050,2,3,,1,765,3.55589,-2.7001,0,528.738,29.2,
1582,1,SBT2050,2,3,,1,769,3.55478,-2.7002,0,531.738,29.2,
1582,1,SBT2050,2,3,,1,773,3.5536,-2.7003,0,534.738,29.2,
1582,1,SBT2050,2,3,,1,777,3.5528,-2.7,0,537.738,29.2,
1582,1,SBT2050,2,3,,1,781,3.55159,-2.7002,0,540.738,29.2,
1582,1,SBT2050,2,3,,1,785,3.550518,-2.7002,0,543.738,29.2,
1582,1,SBT2050,2,3,,1,789,3.549266,-2.6997,0,546.738,29.2,
1582,1,SBT2050,2,3,,1,793,3.548292,-2.7,0,549.738,29.2,
1582,1,SBT2050,2,3,,1,797,3.54721,-2.6999,0,552.738,29.2,
1582,1,SBT2050,2,3,,1,801,3.545764,-2.6999,0,555.738,29.2,
1582,1,SBT2050,2,3,,1,805,3.54471,-2.6998,0,558.738,29.2,
1582,1,SBT2050,2,3,,1,809,3.54366,-2.6999,0,561.738,29.2,
1582,1,SBT2050,2,3,,1,813,3.54282,-2.6999,0,564.738,29.2,
1582,1,SBT2050,2,3,,1,817,3.54147,-2.7002,0,567.738,29.2,
1582,1,SBT2050,2,3,,1,821,3.54037,-2.7002,0,570.738,29.2,
1582,1,SBT2050,2,3,,1,825,3.539228,-2.6999,0,573.738,29.2,
1582,1,SBT2050,2,3,,1,829,3.538138,-2.7001,0,576.738,29.2,
1582,1,SBT2050,2,3,,1,833,3.53696,-2.7002,0,579.737,29.2,
1582,1,SBT2050,2,3,,1,837,3.53595,-2.6999,0,582.737,29.2,
1582,1,SBT2050,2,3,,1,841,3.53476,-2.6999,0,585.737,29.2,
1582,1,SBT2050,2,3,,1,845,3.533524,-2.6998,0,588.737,29.2,
1582,1,SBT2050,2,3,,1,849,3.53229,-2.6997,0,591.737,29.1,
1582,1,SBT2050,2,3,,1,853,3.53135,-2.7,0,594.737,29.2,
1582,1,SBT2050,2,3,,1,857,3.53016,-2.7001,0,597.737,29.2,
1582,1,SBT2050,2,3,,1,861,3.52906,-2.6996,0,600.737,29.2,
1582,1,SBT2050,2,3,,1,865,3.52778,-2.6998,0,603.737,29.2,
1582,1,SBT2050,2,3,,1,869,3.52687,-2.6999,0,606.737,29.2,
1582,1,SBT2050,2,3,,1,873,3.52566,-2.6999,0,609.737,29.2,
1582,1,SBT2050,2,3,,1,877,3.52457,-2.6999,0,612.737,29.2,
1582,1,SBT2050,2,3,,1,881,3.52356,-2.6999,0,615.737,29.2,
1582,1,SBT2050,2,3,,1,885,3.5226,-2.7003,0,618.737,29.2,
1582,1,SBT2050,2,3,,1,889,3.52128,-2.6996,0,621.737,29.2,
1582,1,SBT2050,2,3,,1,893,3.52021,-2.7,0,624.737,29.2,
1582,1,SBT2050,2,3,,1,897,3.51909,-2.6996,0,627.737,29.2,
1582,1,SBT2050,2,3,,1,901,3.517736,-2.7,0,630.737,29.2,
1582,1,SBT2050,2,3,,1,905,3.51691,-2.6999,0,633.736,29.2,
1582,1,SBT2050,2,3,,1,909,3.51566,-2.7,0,636.736,29.2,
1582,1,SBT2050,2,3,,1,913,3.51458,-2.6996,0,639.736,29.2,
1582,1,SBT2050,2,3,,1,917,3.51345,-2.7,0,642.736,29.2,
1582,1,SBT2050,2,3,,1,921,3.51262,-2.7001,0,645.736,29.2,
1582,1,SBT2050,2,3,,1,925,3.511428,-2.7001,0,648.736,29.2,
1582,1,SBT2050,2,3,,1,929,3.51011,-2.7001,0,651.736,29.2,
1582,1,SBT2050,2,3,,1,933,3.50886,-2.7002,0,654.736,29.2,
1582,1,SBT2050,2,3,,1,937,3.50786,-2.6998,0,657.736,29.2,
1582,1,SBT2050,2,3,,1,941,3.50632,-2.7001,0,660.736,29.2,
1582,1,SBT2050,2,3,,1,945,3.5053,-2.6999,0,663.736,29.2,
1582,1,SBT2050,2,3,,1,949,3.504258,-2.6998,0,666.736,29.2,
1582,1,SBT2050,2,3,,1,953,3.50295,-2.6999,0,669.736,29.2,
1582,1,SBT2050,2,3,,1,957,3.50214,-2.6998,0,672.736,29.2,
1582,1,SBT2050,2,3,,1,961,3.50087,-2.7001,0,675.736,29.2,
1582,1,SBT2050,2,3,,1,965,3.49972,-2.6998,0,678.736,29.2,
1582,1,SBT2050,2,3,,1,969,3.49855,-2.6995,0,681.736,29.2,
1582,1,SBT2050,2,3,,1,973,3.49754,-2.7001,0,684.735,29.2,
1582,1,SBT2050,2,3,,1,977,3.49622,-2.7,0,687.735,29.2,
1582,1,SBT2050,2,3,,1,981,3.49533,-2.6997,0,690.735,29.2,
1582,1,SBT2050,2,3,,1,985,3.49444,-2.6997,0,693.735,29.2,
1582,1,SBT2050,2,3,,1,989,3.493138,-2.6999,0,696.735,29.2,
1582,1,SBT2050,2,3,,1,993,3.49215,-2.7,0,699.735,29.2,
1582,1,SBT2050,2,3,,1,997,3.49091,-2.6998,0,702.735,29.2,
1582,1,SBT2050,2,3,,1,1001,3.48965,-2.6995,0,705.735,29.2,
1582,1,SBT2050,2,3,,1,1005,3.48864,-2.6999,0,708.735,29.2,
1582,1,SBT2050,2,3,,1,1009,3.48758,-2.6999,0,711.735,29.2,
1582,1,SBT2050,2,3,,1,1013,3.4865,-2.7001,0,714.735,29.2,
1582,1,SBT2050,2,3,,1,1017,3.4852,-2.7001,0,717.735,29.3,
1582,1,SBT2050,2,3,,1,1021,3.48434,-2.6998,0,720.735,29.2,
1582,1,SBT2050,2,3,,1,1025,3.48288,-2.7001,0,723.735,29.3,
1582,1,SBT2050,2,3,,1,1029,3.48183,-2.7002,0,726.735,29.3,
1582,1,SBT2050,2,3,,1,1033,3.48082,-2.6999,0,729.735,29.3,
1582,1,SBT2050,2,3,,1,1037,3.47963,-2.6999,0,732.735,29.3,
1582,1,SBT2050,2,3,,1,1041,3.478492,-2.7001,0,735.735,29.3,
1582,1,SBT2050,2,3,,1,1045,3.47731,-2.7002,0,738.735,29.3,
1582,1,SBT2050,2,3,,1,1049,3.47621,-2.6998,0,741.735,29.3,
1582,1,SBT2050,2,3,,1,1053,3.47496,-2.6999,0,744.734,29.3,
1582,1,SBT2050,2,3,,1,1057,3.47404,-2.6999,0,747.734,29.2,
1582,1,SBT2050,2,3,,1,1061,3.47283,-2.7001,0,750.734,29.3,
1582,1,SBT2050,2,3,,1,1065,3.471632,-2.6999,0,753.734,29.3,
1582,1,SBT2050,2,3,,1,1069,3.470522,-2.7001,0,756.734,29.2,
1582,1,SBT2050,2,3,,1,1073,3.4695,-2.7001,0,759.734,29.3,
1582,1,SBT2050,2,3,,1,1077,3.46837,-2.7,0,762.734,29.3,
1582,1,SBT2050,2,3,,1,1081,3.46762,-2.7001,0,765.734,29.2,
1582,1,SBT2050,2,3,,1,1085,3.46627,-2.6997,0,768.734,29.3,
1582,1,SBT2050,2,3,,1,1089,3.465106,-2.7002,0,771.734,29.3,
1582,1,SBT2050,2,3,,1,1093,3.46403,-2.6998,0,774.734,29.3,
1582,1,SBT2050,2,3,,1,1097,3.462722,-2.6998,0,777.734,29.3,
1582,1,SBT2050,2,3,,1,1101,3.46174,-2.7,0,780.734,29.3,
1582,1,SBT2050,2,3,,1,1105,3.46071,-2.7,0,783.734,29.3,
1582,1,SBT2050,2,3,,1,1109,3.45949,-2.6997,0,786.734,29.2,
1582,1,SBT2050,2,3,,1,1113,3.45862,-2.7001,0,789.734,29.2,
1582,1,SBT2050,2,3,,1,1117,3.45721,-2.7,0,792.733,29.2,
1582,1,SBT2050,2,3,,1,1121,3.45613,-2.6998,0,795.733,29.2,
1582,1,SBT2050,2,3,,1,1125,3.45517,-2.6998,0,798.733,29.2,
1582,1,SBT2050,2,3,,1,1129,3.45393,-2.6996,0,801.733,29.2,
1582,1,SBT2050,2,3,,1,1133,3.45279,-2.6999,0,804.733,29.2,
1582,1,SBT2050,2,3,,1,1137,3.45161,-2.6999,0,807.733,29.2,
1582,1,SBT2050,2,3,,1,1141,3.45053,-2.6995,0,810.733,29.3,
1582,1,SBT2050,2,3,,1,1145,3.449402,-2.6999,0,813.733,29.2,
1582,1,SBT2050,2,3,,1,1149,3.448158,-2.7002,0,816.733,29.2,
1582,1,SBT2050,2,3,,1,1153,3.447172,-2.7001,0,819.733,29.3,
1582,1,SBT2050,2,3,,1,1157,3.44603,-2.7002,0,822.733,29.3,
1582,1,SBT2050,2,3,,1,1161,3.444808,-2.7,0,825.733,29.2,
1582,1,SBT2050,2,3,,1,1165,3.44384,-2.6999,0,828.733,29.3,
1582,1,SBT2050,2,3,,1,1169,3.442502,-2.6996,0,831.733,29.3,
1582,1,SBT2050,2,3,,1,1173,3.44125,-2.7001,0,834.733,29.2,
1582,1,SBT2050,2,3,,1,1177,3.44024,-2.6999,0,837.733,29.3,
1582,1,SBT2050,2,3,,1,1181,3.43912,-2.7001,0,840.733,29.3,
1582,1,SBT2050,2,3,,1,1185,3.43793,-2.7004,0,843.733,29.2,
1582,1,SBT2050,2,3,,1,1189,3.43715,-2.7001,0,846.733,29.2,
1582,1,SBT2050,2,3,,1,1193,3.43603,-2.6999,0,849.733,29.3,
1582,1,SBT2050,2,3,,1,1197,3.434834,-2.6998,0,852.733,29.3,
1582,1,SBT2050,2,3,,1,1201,3.43392,-2.7001,0,855.732,29.3,
1582,1,SBT2050,2,3,,1,1205,3.43275,-2.6998,0,858.732,29.3,
1582,1,SBT2050,2,3,,1,1209,3.43149,-2.7001,0,861.732,29.3,
1582,1,SBT2050,2,3,,1,1213,3.430352,-2.7,0,864.732,29.3,
1582,1,SBT2050,2,3,,1,1217,3.429382,-2.7001,0,867.732,29.2,
1582,1,SBT2050,2,3,,1,1221,3.42813,-2.7001,0,870.732,29.2,
1582,1,SBT2050,2,3,,1,1225,3.4271,-2.6995,0,873.732,29.3,
1582,1,SBT2050,2,3,,1,1229,3.42603,-2.7002,0,876.732,29.3,
1582,1,SBT2050,2,3,,1,1233,3.42509,-2.6998,0,879.732,29.3,
1582,1,SBT2050,2,3,,1,1237,3.423882,-2.7004,0,882.732,29.3,
1582,1,SBT2050,2,3,,1,1241,3.42296,-2.7003,0,885.732,29.3,
1582,1,SBT2050,2,3,,1,1245,3.4217,-2.7002,0,888.732,29.3,
1582,1,SBT2050,2,3,,1,1249,3.42061,-2.7002,0,891.732,29.3,
1582,1,SBT2050,2,3,,1,1253,3.41971,-2.7,0,894.732,29.3,
1582,1,SBT2050,2,3,,1,1257,3.41852,-2.6999,0,897.732,29.3,
1582,1,SBT2050,2,3,,1,1261,3.41745,-2.6998,0,900.732,29.3,
1582,1,SBT2050,2,3,,1,1265,3.41639,-2.7003,0,903.732,29.3,
1582,1,SBT2050,2,3,,1,1269,3.415302,-2.6998,0,906.732,29.3,
1582,1,SBT2050,2,3,,1,1273,3.414236,-2.6997,0,909.732,29.3,
1582,1,SBT2050,2,3,,1,1277,3.41298,-2.6997,0,912.732,29.3,
1582,1,SBT2050,2,3,,1,1281,3.41183,-2.7,0,915.731,29.3,
1582,1,SBT2050,2,3,,1,1285,3.41087,-2.7001,0,918.731,29.3,
1582,1,SBT2050,2,3,,1,1289,3.40967,-2.7003,0,921.731,29.3,
1582,1,SBT2050,2,3,,1,1293,3.40837,-2.6995,0,924.731,29.3,
1582,1,SBT2050,2,3,,1,1297,3.40728,-2.7,0,927.731,29.3,
1582,1,SBT2050,2,3,,1,1301,3.40618,-2.6995,0,930.731,29.3,
1582,1,SBT2050,2,3,,1,1305,3.404902,-2.6997,0,933.731,29.3,
1582,1,SBT2050,2,3,,1,1309,3.403898,-2.6999,0,936.731,29.3,
1582,1,SBT2050,2,3,,1,1313,3.40311,-2.6997,0,939.731,29.3,
1582,1,SBT2050,2,3,,1,1317,3.401772,-2.7002,0,942.731,29.3,
1582,1,SBT2050,2,3,,1,1321,3.40068,-2.7,0,945.731,29.3,
1582,1,SBT2050,2,3,,1,1325,3.3997,-2.6996,0,948.731,29.3,
1582,1,SBT2050,2,3,,1,1329,3.39846,-2.6999,0,951.731,29.3,
1582,1,SBT2050,2,3,,1,1333,3.397634,-2.7001,0,954.731,29.3,
1582,1,SBT2050,2,3,,1,1337,3.39635,-2.7001,0,957.731,29.3,
1582,1,SBT2050,2,3,,1,1341,3.39517,-2.7,0,960.731,29.3,
1582,1,SBT2050,2,3,,1,1345,3.39403,-2.7001,0,963.731,29.3,
1582,1,SBT2050,2,3,,1,1349,3.3932,-2.6996,0,966.73,29.3,
1582,1,SBT2050,2,3,,1,1353,3.39206,-2.7004,0,969.73,29.3,
1582,1,SBT2050,2,3,,1,1357,3.390716,-2.6995,0,972.73,29.3,
1582,1,SBT2050,2,3,,1,1361,3.38977,-2.7,0,975.73,29.3,
1582,1,SBT2050,2,3,,1,1365,3.38862,-2.6999,0,978.73,29.3,
1582,1,SBT2050,2,3,,1,1369,3.387444,-2.6997,0,981.73,29.3,
1582,1,SBT2050,2,3,,1,1373,3.386172,-2.6997,0,984.73,29.3,
1582,1,SBT2050,2,3,,1,1377,3.38519,-2.6997,0,987.73,29.3,
1582,1,SBT2050,2,3,,1,1381,3.384232,-2.7002,0,990.73,29.3,
1582,1,SBT2050,2,3,,1,1385,3.3829,-2.7002,0,993.73,29.3,
1582,1,SBT2050,2,3,,1,1389,3.38181,-2.7,0,996.73,29.3,
1582,1,SBT2050,2,3,,1,1393,3.38092,-2.6992,0,999.73,29.3,
1582,1,SBT2050,2,3,,1,1397,3.379748,-2.6998,0,1002.73,29.3,
1582,1,SBT2050,2,3,,1,1401,3.37852,-2.7002,0,1005.73,29.3,
1582,1,SBT2050,2,3,,1,1405,3.37755,-2.7002,0,1008.73,29.3,
1582,1,SBT2050,2,3,,1,1409,3.37647,-2.6998,0,1011.73,29.3,
1582,1,SBT2050,2,3,,1,1413,3.37525,-2.6998,0,1014.73,29.3,
1582,1,SBT2050,2,3,,1,1417,3.37409,-2.6999,0,1017.73,29.3,
1582,1,SBT2050,2,3,,1,1421,3.37303,-2.6998,0,1020.73,29.3,
1582,1,SBT2050,2,3,,1,1425,3.371934,-2.7007,0,1023.73,29.3,
1582,1,SBT2050,2,3,,1,1429,3.37105,-2.7001,0,1026.73,29.3,
1582,1,SBT2050,2,3,,1,1433,3.36954,-2.6999,0,1029.729,29.3,
1582,1,SBT2050,2,3,,1,1437,3.368602,-2.6999,0,1032.729,29.3,
1582,1,SBT2050,2,3,,1,1441,3.36746,-2.6999,0,1035.729,29.3,
1582,1,SBT2050,2,3,,1,1445,3.36635,-2.6999,0,1038.729,29.3,
1582,1,SBT2050,2,3,,1,1449,3.36549,-2.6996,0,1041.729,29.3,
1582,1,SBT2050,2,3,,1,1453,3.36423,-2.7002,0,1044.729,29.3,
1582,1,SBT2050,2,3,,1,1457,3.36318,-2.7001,0,1047.729,29.3,
1582,1,SBT2050,2,3,,1,1461,3.36197,-2.7001,0,1050.729,29.3,
1582,1,SBT2050,2,3,,1,1465,3.36096,-2.6998,0,1053.729,29.3,
1582,1,SBT2050,2,3,,1,1469,3.36003,-2.7001,0,1056.729,29.3,
1582,1,SBT2050,2,3,,1,1473,3.358592,-2.7001,0,1059.729,29.4,
1582,1,SBT2050,2,3,,1,1477,3.35764,-2.6999,0,1062.729,29.3,
1582,1,SBT2050,2,3,,1,1481,3.3566,-2.6998,0,1065.729,29.3,
1582,1,SBT2050,2,3,,1,1485,3.35527,-2.7002,0,1068.729,29.3,
1582,1,SBT2050,2,3,,1,1489,3.35443,-2.6994,0,1071.729,29.4,
1582,1,SBT2050,2,3,,1,1493,3.35349,-2.7003,0,1074.729,29.4,
1582,1,SBT2050,2,3,,1,1497,3.352034,-2.7,0,1077.729,29.3,
1582,1,SBT2050,2,3,,1,1501,3.35096,-2.7,0,1080.729,29.3,
1582,1,SBT2050,2,3,,1,1505,3.349926,-2.7,0,1083.729,29.4,
1582,1,SBT2050,2,3,,1,1509,3.348815,-2.7003,0,1086.729,29.4,
1582,1,SBT2050,2,3,,1,1513,3.34784,-2.6999,0,1089.729,29.4,
1582,1,SBT2050,2,3,,1,1517,3.34668,-2.6999,0,1092.729,29.4,
1582,1,SBT2050,2,3,,1,1521,3.34549,-2.6999,0,1095.729,29.4,
1582,1,SBT2050,2,3,,1,1525,3.34434,-2.6997,0,1098.729,29.4,
1582,1,SBT2050,2,3,,1,1529,3.34315,-2.6999,0,1101.728,29.4,
1582,1,SBT2050,2,3,,1,1533,3.34216,-2.7002,0,1104.728,29.4,
1582,1,SBT2050,2,3,,1,1537,3.34117,-2.7001,0,1107.728,29.4,
1582,1,SBT2050,2,3,,1,1541,3.339892,-2.7002,0,1110.728,29.4,
1582,1,SBT2050,2,3,,1,1545,3.33862,-2.7,0,1113.728,29.4,
1582,1,SBT2050,2,3,,1,1549,3.337622,-2.6996,0,1116.728,29.4,
1582,1,SBT2050,2,3,,1,1553,3.336552,-2.7002,0,1119.728,29.4,
1582,1,SBT2050,2,3,,1,1557,3.3354,-2.6998,0,1122.728,29.4,
1582,1,SBT2050,2,3,,1,1561,3.334064,-2.7002,0,1125.728,29.4,
1582,1,SBT2050,2,3,,1,1565,3.33307,-2.6996,0,1128.728,29.4,
1582,1,SBT2050,2,3,,1,1569,3.33192,-2.6999,0,1131.728,29.4,
1582,1,SBT2050,2,3,,1,1573,3.3305,-2.6996,0,1134.728,29.4,
1582,1,SBT2050,2,3,,1,1577,3.32943,-2.6999,0,1137.728,29.4,
1582,1,SBT2050,2,3,,1,1581,3.32828,-2.6996,0,1140.728,29.4,
1582,1,SBT2050,2,3,,1,1585,3.32706,-2.6996,0,1143.728,29.5,
1582,1,SBT2050,2,3,,1,1589,3.32599,-2.6999,0,1146.728,29.4,
1582,1,SBT2050,2,3,,1,1593,3.324965,-2.6996,0,1149.728,29.5,
1582,1,SBT2050,2,3,,1,1597,3.32368,-2.6996,0,1152.728,29.4,
1582,1,SBT2050,2,3,,1,1601,3.32252,-2.6999,0,1155.728,29.4,
1582,1,SBT2050,2,3,,1,1605,3.3216,-2.7,0,1158.728,29.4,
1582,1,SBT2050,2,3,,1,1609,3.32029,-2.7,0,1161.728,29.4,
1582,1,SBT2050,2,3,,1,1613,3.31929,-2.6997,0,1164.727,29.5,
1582,1,SBT2050,2,3,,1,1617,3.31795,-2.6999,0,1167.727,29.5,
1582,1,SBT2050,2,3,,1,1621,3.31677,-2.7002,0,1170.727,29.5,
1582,1,SBT2050,2,3,,1,1625,3.31564,-2.6997,0,1173.727,29.5,
1582,1,SBT2050,2,3,,1,1629,3.31441,-2.6999,0,1176.727,29.4,
1582,1,SBT2050,2,3,,1,1633,3.31331,-2.7001,0,1179.727,29.4,
1582,1,SBT2050,2,3,,1,1637,3.31211,-2.7001,0,1182.727,29.5,
1582,1,SBT2050,2,3,,1,1641,3.3109,-2.7001,0,1185.727,29.5,
1582,1,SBT2050,2,3,,1,1645,3.309754,-2.7001,0,1188.727,29.5,
1582,1,SBT2050,2,3,,1,1649,3.30878,-2.6998,0,1191.727,29.5,
1582,1,SBT2050,2,3,,1,1653,3.30752,-2.7005,0,1194.727,29.5,
1582,1,SBT2050,2,3,,1,1657,3.306314,-2.6998,0,1197.727,29.5,
1582,1,SBT2050,2,3,,1,1661,3.30508,-2.7001,0,1200.727,29.5,
1582,1,SBT2050,2,3,,1,1665,3.30382,-2.7001,0,1203.727,29.5,
1582,1,SBT2050,2,3,,1,1669,3.30272,-2.6998,0,1206.727,29.5,
1582,1,SBT2050,2,3,,1,1673,3.30157,-2.6999,0,1209.727,29.5,
1582,1,SBT2050,2,3,,1,1677,3.30027,-2.7002,0,1212.727,29.5,
1582,1,SBT2050,2,3,,1,1681,3.29916,-2.7004,0,1215.727,29.5,
1582,1,SBT2050,2,3,,1,1685,3.29821,-2.7002,0,1218.727,29.5,
1582,1,SBT2050,2,3,,1,1689,3.29701,-2.6997,0,1221.727,29.5,
1582,1,SBT2050,2,3,,1,1693,3.295692,-2.6999,0,1224.727,29.5,
1582,1,SBT2050,2,3,,1,1697,3.2946,-2.6997,0,1227.727,29.5,
1582,1,SBT2050,2,3,,1,1701,3.293245,-2.6999,0,1230.727,29.5,
1582,1,SBT2050,2,3,,1,1705,3.29212,-2.6998,0,1233.726,29.6,
1582,1,SBT2050,2,3,,1,1709,3.29104,-2.7,0,1236.726,29.6,
1582,1,SBT2050,2,3,,1,1713,3.28966,-2.7,0,1239.726,29.6,
1582,1,SBT2050,2,3,,1,1717,3.288634,-2.7,0,1242.726,29.6,
1582,1,SBT2050,2,3,,1,1721,3.28732,-2.7,0,1245.726,29.6,
1582,1,SBT2050,2,3,,1,1725,3.28588,-2.7,0,1248.726,29.6,
1582,1,SBT2050,2,3,,1,1729,3.284706,-2.6999,0,1251.726,29.6,
1582,1,SBT2050,2,3,,1,1733,3.28355,-2.7002,0,1254.726,29.6,
1582,1,SBT2050,2,3,,1,1737,3.282296,-2.6999,0,1257.726,29.6,
1582,1,SBT2050,2,3,,1,1741,3.28109,-2.7,0,1260.726,29.6,
1582,1,SBT2050,2,3,,1,1745,3.27992,-2.7,0,1263.726,29.6,
1582,1,SBT2050,2,3,,1,1749,3.27866,-2.7,0,1266.726,29.6,
1582,1,SBT2050,2,3,,1,1753,3.277429,-2.6997,0,1269.726,29.7,
1582,1,SBT2050,2,3,,1,1757,3.27619,-2.6999,0,1272.726,29.6,
1582,1,SBT2050,2,3,,1,1761,3.27495,-2.6997,0,1275.726,29.6,
1582,1,SBT2050,2,3,,1,1765,3.27377,-2.6999,0,1278.726,29.7,
1582,1,SBT2050,2,3,,1,1769,3.27245,-2.7003,0,1281.726,29.7,
1582,1,SBT2050,2,3,,1,1773,3.27109,-2.6998,0,1284.726,29.7,
1582,1,SBT2050,2,3,,1,1777,3.26984,-2.6997,0,1287.726,29.7,
1582,1,SBT2050,2,3,,1,1781,3.268621,-2.7002,0,1290.726,29.6,
1582,1,SBT2050,2,3,,1,1785,3.267273,-2.6998,0,1293.725,29.7,
1582,1,SBT2050,2,3,,1,1789,3.26609,-2.7001,0,1296.725,29.7,
1582,1,SBT2050,2,3,,1,1793,3.26499,-2.7001,0,1299.725,29.7,
1582,1,SBT2050,2,3,,1,1797,3.26371,-2.6997,0,1302.725,29.7,
1582,1,SBT2050,2,3,,1,1801,3.262518,-2.6999,0,1305.725,29.7,
1582,1,SBT2050,2,3,,1,1805,3.2612,-2.7003,0,1308.725,29.7,
1582,1,SBT2050,2,3,,1,1809,3.25973,-2.7,0,1311.725,29.7,
1582,1,SBT2050,2,3,,1,1813,3.2588,-2.7,0,1314.725,29.7,
1582,1,SBT2050,2,3,,1,1817,3.25739,-2.6999,0,1317.725,29.7,
1582,1,SBT2050,2,3,,1,1821,3.25611,-2.7,0,1320.725,29.7,
1582,1,SBT2050,2,3,,1,1825,3.25461,-2.6996,0,1323.725,29.8,
1582,1,SBT2050,2,3,,1,1829,3.25346,-2.6999,0,1326.725,29.7,
1582,1,SBT2050,2,3,,1,1833,3.25186,-2.7002,0,1329.725,29.7,
1582,1,SBT2050,2,3,,1,1837,3.250967,-2.7003,0,1332.725,29.8,
1582,1,SBT2050,2,3,,1,1841,3.249467,-2.7,0,1335.725,29.7,
1582,1,SBT2050,2,3,,1,1845,3.24809,-2.7,0,1338.725,29.8,
1582,1,SBT2050,2,3,,1,1849,3.24693,-2.7002,0,1341.725,29.8,
1582,1,SBT2050,2,3,,1,1853,3.24558,-2.6999,0,1344.725,29.8,
1582,1,SBT2050,2,3,,1,1857,3.24421,-2.7,0,1347.725,29.8,
1582,1,SBT2050,2,3,,1,1861,3.243048,-2.6997,0,1350.725,29.8,
1582,1,SBT2050,2,3,,1,1865,3.24164,-2.7,0,1353.725,29.8,
1582,1,SBT2050,2,3,,1,1869,3.24013,-2.6998,0,1356.725,29.8,
1582,1,SBT2050,2,3,,1,1873,3.23881,-2.6997,0,1359.724,29.8,
1582,1,SBT2050,2,3,,1,1877,3.23755,-2.6998,0,1362.724,29.8,
1582,1,SBT2050,2,3,,1,1881,3.23619,-2.7005,0,1365.724,29.8,
1582,1,SBT2050,2,3,,1,1885,3.23471,-2.7,0,1368.724,29.8,
1582,1,SBT2050,2,3,,1,1889,3.23342,-2.7001,0,1371.724,29.8,
1582,1,SBT2050,2,3,,1,1893,3.23211,-2.7001,0,1374.724,29.8,
1582,1,SBT2050,2,3,,1,1897,3.23068,-2.6997,0,1377.724,29.8,
1582,1,SBT2050,2,3,,1,1901,3.22917,-2.7003,0,1380.724,29.9,
1582,1,SBT2050,2,3,,1,1905,3.22774,-2.6999,0,1383.724,29.9,
1582,1,SBT2050,2,3,,1,1909,3.22639,-2.6999,0,1386.724,29.9,
1582,1,SBT2050,2,3,,1,1913,3.224895,-2.7004,0,1389.724,29.9,
1582,1,SBT2050,2,3,,1,1917,3.223615,-2.6999,0,1392.724,29.9,
1582,1,SBT2050,2,3,,1,1921,3.222235,-2.6996,0,1395.724,29.9,
1582,1,SBT2050,2,3,,1,1925,3.22071,-2.6999,0,1398.724,29.9,
1582,1,SBT2050,2,3,,1,1929,3.21964,-2.6996,0,1401.724,29.9,
1582,1,SBT2050,2,3,,1,1933,3.21812,-2.6998,0,1404.724,29.9,
1582,1,SBT2050,2,3,,1,1937,3.21673,-2.6997,0,1407.724,29.9,
1582,1,SBT2050,2,3,,1,1941,3.21511,-2.6999,0,1410.723,29.9,
1582,1,SBT2050,2,3,,1,1945,3.21375,-2.6996,0,1413.723,29.9,
1582,1,SBT2050,2,3,,1,1949,3.21202,-2.6996,0,1416.723,29.9,
1582,1,SBT2050,2,3,,1,1953,3.21085,-2.6998,0,1419.723,30,
1582,1,SBT2050,2,3,,1,1957,3.20925,-2.7001,0,1422.723,30,
1582,1,SBT2050,2,3,,1,1961,3.20769,-2.6998,0,1425.723,30,
1582,1,SBT2050,2,3,,1,1965,3.20639,-2.7005,0,1428.723,30,
1582,1,SBT2050,2,3,,1,1969,3.204872,-2.6996,0,1431.723,30,
1582,1,SBT2050,2,3,,1,1973,3.20345,-2.7001,0,1434.723,30,
1582,1,SBT2050,2,3,,1,1977,3.20186,-2.6996,0,1437.723,30,
1582,1,SBT2050,2,3,,1,1981,3.20057,-2.6998,0,1440.723,30,
1582,1,SBT2050,2,3,,1,1985,3.19885,-2.6999,0,1443.723,30,
1582,1,SBT2050,2,3,,1,1989,3.197343,-2.6998,0,1446.723,30,
1582,1,SBT2050,2,3,,1,1993,3.1958,-2.6998,0,1449.723,30,
1582,1,SBT2050,2,3,,1,1997,3.1944,-2.7001,0,1452.723,30,
1582,1,SBT2050,2,3,,1,2001,3.1929,-2.6999,0,1455.723,30.1,
1582,1,SBT2050,2,3,,1,2005,3.19126,-2.6999,0,1458.723,30.1,
1582,1,SBT2050,2,3,,1,2009,3.18962,-2.6996,0,1461.723,30.1,
1582,1,SBT2050,2,3,,1,2013,3.18809,-2.7002,0,1464.723,30.1,
1582,1,SBT2050,2,3,,1,2017,3.1865,-2.7,0,1467.723,30.1,
1582,1,SBT2050,2,3,,1,2021,3.185089,-2.6996,0,1470.723,30.1,
1582,1,SBT2050,2,3,,1,2025,3.18353,-2.6999,0,1473.723,30.1,
1582,1,SBT2050,2,3,,1,2029,3.18218,-2.7001,0,1476.723,30.1,
1582,1,SBT2050,2,3,,1,2033,3.1805,-2.6999,0,1479.723,30.2,
1582,1,SBT2050,2,3,,1,2037,3.17883,-2.6998,0,1482.722,30.2,
1582,1,SBT2050,2,3,,1,2041,3.17743,-2.6999,0,1485.722,30.2,
1582,1,SBT2050,2,3,,1,2045,3.1758,-2.6999,0,1488.722,30.2,
1582,1,SBT2050,2,3,,1,2049,3.17408,-2.6999,0,1491.722,30.2,
1582,1,SBT2050,2,3,,1,2053,3.172242,-2.7001,0,1494.722,30.2,
1582,1,SBT2050,2,3,,1,2057,3.17073,-2.6998,0,1497.722,30.2,
1582,1,SBT2050,2,3,,1,2061,3.16908,-2.6999,0,1500.722,30.2,
1582,1,SBT2050,2,3,,1,2065,3.167563,-2.7001,0,1503.722,30.2,
1582,1,SBT2050,2,3,,1,2069,3.16583,-2.6998,0,1506.722,30.2,
1582,1,SBT2050,2,3,,1,2073,3.16403,-2.6999,0,1509.722,30.2,
1582,1,SBT2050,2,3,,1,2077,3.162359,-2.6996,0,1512.722,30.2,
1582,1,SBT2050,2,3,,1,2081,3.1608,-2.7002,0,1515.722,30.3,
1582,1,SBT2050,2,3,,1,2085,3.15912,-2.6999,0,1518.722,30.3,
1582,1,SBT2050,2,3,,1,2089,3.1574,-2.6996,0,1521.722,30.3,
1582,1,SBT2050,2,3,,1,2093,3.15567,-2.7002,0,1524.722,30.3,
1582,1,SBT2050,2,3,,1,2097,3.153787,-2.6998,0,1527.722,30.3,
1582,1,SBT2050,2,3,,1,2101,3.15206,-2.6998,0,1530.722,30.3,
1582,1,SBT2050,2,3,,1,2105,3.15043,-2.6998,0,1533.721,30.3,
1582,1,SBT2050,2,3,,1,2109,3.14869,-2.7002,0,1536.721,30.4,
1582,1,SBT2050,2,3,,1,2113,3.14714,-2.6998,0,1539.721,30.3,
1582,1,SBT2050,2,3,,1,2117,3.14495,-2.6997,0,1542.721,30.3,
1582,1,SBT2050,2,3,,1,2121,3.14334,-2.6998,0,1545.721,30.3,
1582,1,SBT2050,2,3,,1,2125,3.14164,-2.7002,0,1548.721,30.3,
1582,1,SBT2050,2,3,,1,2129,3.13957,-2.7,0,1551.721,30.4,
1582,1,SBT2050,2,3,,1,2133,3.137801,-2.7003,0,1554.721,30.4,
1582,1,SBT2050,2,3,,1,2137,3.13605,-2.7,0,1557.721,30.4,
1582,1,SBT2050,2,3,,1,2141,3.13413,-2.7001,0,1560.721,30.4,
1582,1,SBT2050,2,3,,1,2145,3.13242,-2.6995,0,1563.721,30.4,
1582,1,SBT2050,2,3,,1,2149,3.130562,-2.6998,0,1566.721,30.5,
1582,1,SBT2050,2,3,,1,2153,3.12837,-2.6998,0,1569.721,30.5,
1582,1,SBT2050,2,3,,1,2157,3.12665,-2.6995,0,1572.721,30.5,
1582,1,SBT2050,2,3,,1,2161,3.124684,-2.7002,0,1575.721,30.5,
1582,1,SBT2050,2,3,,1,2165,3.12269,-2.6999,0,1578.721,30.5,
1582,1,SBT2050,2,3,,1,2169,3.12119,-2.7002,0,1581.721,30.5,
1582,1,SBT2050,2,3,,1,2173,3.118881,-2.7001,0,1584.721,30.5,
1582,1,SBT2050,2,3,,1,2177,3.117,-2.7002,0,1587.72,30.5,
1582,1,SBT2050,2,3,,1,2181,3.115027,-2.6996,0,1590.72,30.5,
1582,1,SBT2050,2,3,,1,2185,3.113,-2.7001,0,1593.72,30.5,
1582,1,SBT2050,2,3,,1,2189,3.1111,-2.6998,0,1596.72,30.5,
1582,1,SBT2050,2,3,,1,2193,3.1092,-2.6995,0,1599.72,30.6,
1582,1,SBT2050,2,3,,1,2197,3.107297,-2.6998,0,1602.72,30.6,
1582,1,SBT2050,2,3,,1,2201,3.1051,-2.6997,0,1605.72,30.6,
1582,1,SBT2050,2,3,,1,2205,3.10312,-2.7,0,1608.72,30.6,
1582,1,SBT2050,2,3,,1,2209,3.10101,-2.7002,0,1611.72,30.6,
1582,1,SBT2050,2,3,,1,2213,3.09912,-2.7002,0,1614.72,30.6,
1582,1,SBT2050,2,3,,1,2217,3.09684,-2.7001,0,1617.72,30.6,
1582,1,SBT2050,2,3,,1,2221,3.094962,-2.6998,0,1620.72,30.6,
1582,1,SBT2050,2,3,,1,2225,3.093036,-2.7001,0,1623.72,30.7,
1582,1,SBT2050,2,3,,1,2229,3.09076,-2.7,0,1626.72,30.7,
1582,1,SBT2050,2,3,,1,2233,3.08875,-2.7002,0,1629.72,30.7,
1582,1,SBT2050,2,3,,1,2237,3.08672,-2.7,0,1632.72,30.7,
1582,1,SBT2050,2,3,,1,2241,3.08454,-2.6999,0,1635.72,30.7,
1582,1,SBT2050,2,3,,1,2245,3.08245,-2.6998,0,1638.72,30.8,
1582,1,SBT2050,2,3,,1,2249,3.08022,-2.6999,0,1641.72,30.8,
1582,1,SBT2050,2,3,,1,2253,3.07801,-2.7,0,1644.72,30.8,
1582,1,SBT2050,2,3,,1,2257,3.07575,-2.7,0,1647.72,30.8,
1582,1,SBT2050,2,3,,1,2261,3.073653,-2.7003,0,1650.719,30.8,
1582,1,SBT2050,2,3,,1,2265,3.07127,-2.6999,0,1653.719,30.8,
1582,1,SBT2050,2,3,,1,2269,3.06914,-2.6997,0,1656.719,30.9,
1582,1,SBT2050,2,3,,1,2273,3.06693,-2.7003,0,1659.719,30.9,
1582,1,SBT2050,2,3,,1,2277,3.06444,-2.6996,0,1662.719,30.9,
1582,1,SBT2050,2,3,,1,2281,3.06247,-2.6999,0,1665.719,30.9,
1582,1,SBT2050,2,3,,1,2285,3.06007,-2.7,0,1668.719,30.9,
1582,1,SBT2050,2,3,,1,2289,3.05774,-2.7002,0,1671.719,30.9,
1582,1,SBT2050,2,3,,1,2293,3.0552,-2.7001,0,1674.719,30.9,
1582,1,SBT2050,2,3,,1,2297,3.053109,-2.7002,0,1677.719,31,
1582,1,SBT2050,2,3,,1,2301,3.05066,-2.6997,0,1680.719,31,
1582,1,SBT2050,2,3,,1,2305,3.04817,-2.7005,0,1683.719,31,
1582,1,SBT2050,2,3,,1,2309,3.04582,-2.6999,0,1686.719,31,
1582,1,SBT2050,2,3,,1,2313,3.04347,-2.7,0,1689.719,31,
1582,1,SBT2050,2,3,,1,2317,3.04099,-2.6998,0,1692.719,31,
1582,1,SBT2050,2,3,,1,2321,3.03855,-2.7001,0,1695.719,31.1,
1582,1,SBT2050,2,3,,1,2325,3.03619,-2.6998,0,1698.719,31.1,
1582,1,SBT2050,2,3,,1,2329,3.03345,-2.6999,0,1701.719,31.1,
1582,1,SBT2050,2,3,,1,2333,3.03113,-2.6999,0,1704.719,31.1,
1582,1,SBT2050,2,3,,1,2337,3.02834,-2.6999,0,1707.719,31.1,
1582,1,SBT2050,2,3,,1,2341,3.02598,-2.7001,0,1710.718,31.1,
1582,1,SBT2050,2,3,,1,2345,3.023289,-2.6999,0,1713.718,31.2,
1582,1,SBT2050,2,3,,1,2349,3.020724,-2.7,0,1716.718,31.2,
1582,1,SBT2050,2,3,,1,2353,3.01798,-2.6997,0,1719.718,31.2,
1582,1,SBT2050,2,3,,1,2357,3.01538,-2.7003,0,1722.718,31.2,
1582,1,SBT2050,2,3,,1,2361,3.01265,-2.7,0,1725.718,31.2,
1582,1,SBT2050,2,3,,1,2365,3.01,-2.6999,0,1728.718,31.2,
1582,1,SBT2050,2,3,,1,2369,3.00721,-2.6999,0,1731.718,31.2,
1582,1,SBT2050,2,3,,1,2373,3.00471,-2.7,0,1734.718,31.3,
1582,1,SBT2050,2,3,,1,2377,3.00163,-2.7006,0,1737.718,31.3,
1582,1,SBT2050,2,3,,1,2381,2.99895,-2.6999,0,1740.718,31.3,
1582,1,SBT2050,2,3,,1,2385,2.99605,-2.7,0,1743.718,31.3,
1582,1,SBT2050,2,3,,1,2389,2.99328,-2.6998,0,1746.718,31.3,
1582,1,SBT2050,2,3,,1,2393,2.99037,-2.6999,0,1749.718,31.4,
1582,1,SBT2050,2,3,,1,2397,2.98744,-2.7005,0,1752.718,31.4,
1582,1,SBT2050,2,3,,1,2401,2.98442,-2.6998,0,1755.718,31.4,
1582,1,SBT2050,2,3,,1,2405,2.9816,-2.7,0,1758.718,31.4,
1582,1,SBT2050,2,3,,1,2409,2.97863,-2.7005,0,1761.718,31.5,
1582,1,SBT2050,2,3,,1,2413,2.9757,-2.6998,0,1764.718,31.5,
1582,1,SBT2050,2,3,,1,2417,2.97251,-2.6996,0,1767.718,31.5,
1582,1,SBT2050,2,3,,1,2421,2.96954,-2.7,0,1770.718,31.5,
1582,1,SBT2050,2,3,,1,2425,2.96632,-2.7002,0,1773.717,31.5,
1582,1,SBT2050,2,3,,1,2429,2.96321,-2.6998,0,1776.717,31.6,
1582,1,SBT2050,2,3,,1,2433,2.959977,-2.6999,0,1779.717,31.6,
1582,1,SBT2050,2,3,,1,2437,2.95665,-2.7001,0,1782.717,31.6,
1582,1,SBT2050,2,3,,1,2441,2.95341,-2.7001,0,1785.717,31.6,
1582,1,SBT2050,2,3,,1,2445,2.950035,-2.7001,0,1788.717,31.7,
1582,1,SBT2050,2,3,,1,2449,2.94668,-2.6998,0,1791.717,31.7,
1582,1,SBT2050,2,3,,1,2453,2.943145,-2.7002,0,1794.717,31.7,
1582,1,SBT2050,2,3,,1,2457,2.93994,-2.7002,0,1797.717,31.7,
1582,1,SBT2050,2,3,,1,2461,2.9363,-2.7004,0,1800.717,31.8,
1582,1,SBT2050,2,3,,1,2465,2.93303,-2.6996,0,1803.717,31.8,
1582,1,SBT2050,2,3,,1,2469,2.92962,-2.6999,0,1806.717,31.8,
1582,1,SBT2050,2,3,,1,2473,2.92603,-2.7002,0,1809.717,31.8,
1582,1,SBT2050,2,3,,1,2477,2.92243,-2.6999,0,1812.717,31.8,
1582,1,SBT2050,2,3,,1,2481,2.918851,-2.6999,0,1815.717,31.9,
1582,1,SBT2050,2,3,,1,2485,2.91531,-2.6999,0,1818.717,31.9,
1582,1,SBT2050,2,3,,1,2489,2.91137,-2.7,0,1821.717,31.9,
1582,1,SBT2050,2,3,,1,2493,2.907563,-2.6997,0,1824.717,31.9,
1582,1,SBT2050,2,3,,1,2497,2.90382,-2.6999,0,1827.717,31.9,
1582,1,SBT2050,2,3,,1,2501,2.89998,-2.6997,0,1830.717,32,
1582,1,SBT2050,2,3,,1,2505,2.89584,-2.6998,0,1833.717,32,
1582,1,SBT2050,2,3,,1,2509,2.89172,-2.6996,0,1836.716,32,
1582,1,SBT2050,2,3,,1,2513,2.887945,-2.7002,0,1839.716,32.1,
1582,1,SBT2050,2,3,,1,2517,2.8835,-2.6996,0,1842.716,32.1,
1582,1,SBT2050,2,3,,1,2521,2.87939,-2.7001,0,1845.716,32.1,
1582,1,SBT2050,2,3,,1,2525,2.875179,-2.7001,0,1848.716,32.1,
1582,1,SBT2050,2,3,,1,2529,2.87064,-2.6996,0,1851.716,32.2,
1582,1,SBT2050,2,3,,1,2533,2.86626,-2.7001,0,1854.716,32.2,
1582,1,SBT2050,2,3,,1,2537,2.861745,-2.6998,0,1857.716,32.2,
1582,1,SBT2050,2,3,,1,2541,2.85704,-2.7002,0,1860.716,32.3,
1582,1,SBT2050,2,3,,1,2545,2.8524,-2.7002,0,1863.716,32.3,
1582,1,SBT2050,2,3,,1,2549,2.84737,-2.6993,0,1866.716,32.3,
1582,1,SBT2050,2,3,,1,2553,2.84253,-2.6996,0,1869.716,32.4,
1582,1,SBT2050,2,3,,1,2557,2.8376,-2.6996,0,1872.716,32.4,
1582,1,SBT2050,2,3,,1,2561,2.832298,-2.6998,0,1875.716,32.4,
1582,1,SBT2050,2,3,,1,2565,2.82713,-2.6995,0,1878.716,32.4,
1582,1,SBT2050,2,3,,1,2569,2.821828,-2.7001,0,1881.715,32.5,
1582,1,SBT2050,2,3,,1,2573,2.816229,-2.6998,0,1884.715,32.5,
1582,1,SBT2050,2,3,,1,2577,2.81081,-2.7002,0,1887.715,32.5,
1582,1,SBT2050,2,3,,1,2581,2.80534,-2.7001,0,1890.715,32.6,
1582,1,SBT2050,2,3,,1,2585,2.79932,-2.6998,0,1893.715,32.6,
1582,1,SBT2050,2,3,,1,2589,2.79337,-2.6999,0,1896.715,32.6,
1582,1,SBT2050,2,3,,1,2593,2.78725,-2.7003,0,1899.715,32.6,
1582,1,SBT2050,2,3,,1,2597,2.78103,-2.6999,0,1902.715,32.7,
1582,1,SBT2050,2,3,,1,2601,2.774456,-2.6998,0,1905.715,32.7,
1582,1,SBT2050,2,3,,1,2605,2.76803,-2.6998,0,1908.715,32.7,
1582,1,SBT2050,2,3,,1,2609,2.761481,-2.7,0,1911.715,32.8,
1582,1,SBT2050,2,3,,1,2613,2.75492,-2.6999,0,1914.715,32.8,
1582,1,SBT2050,2,3,,1,2617,2.74811,-2.7,0,1917.715,32.8,
1582,1,SBT2050,2,3,,1,2621,2.74109,-2.7,0,1920.715,32.9,
1582,1,SBT2050,2,3,,1,2625,2.73393,-2.6998,0,1923.715,32.9,
1582,1,SBT2050,2,3,,1,2629,2.72659,-2.7,0,1926.715,33,
1582,1,SBT2050,2,3,,1,2633,2.71914,-2.7002,0,1929.715,33,
1582,1,SBT2050,2,3,,1,2637,2.71153,-2.6998,0,1932.714,33.1,
1582,1,SBT2050,2,3,,1,2641,2.70373,-2.6994,0,1935.714,33.1,
1582,1,SBT2050,2,3,,1,2645,2.69565,-2.7004,0,1938.714,33.2,
1582,1,SBT2050,2,3,,1,2649,2.687356,-2.7003,0,1941.714,33.2,
1582,1,SBT2050,2,3,,1,2653,2.67874,-2.6998,0,1944.714,33.2,
1582,1,SBT2050,2,3,,1,2657,2.67012,-2.6999,0,1947.714,33.3,
1582,1,SBT2050,2,3,,1,2661,2.66117,-2.6993,0,1950.714,33.4,
1582,1,SBT2050,2,3,,1,2665,2.65194,-2.6996,0,1953.714,33.4,
1582,1,SBT2050,2,3,,1,2669,2.642443,-2.7001,0,1956.714,33.4,
1582,1,SBT2050,2,3,,1,2673,2.63265,-2.6996,0,1959.714,33.5,
1582,1,SBT2050,2,3,,1,2677,2.6225,-2.7001,0,1962.714,33.5,
1582,1,SBT2050,2,3,,1,2681,2.61223,-2.6995,0,1965.714,33.6,
1582,1,SBT2050,2,3,,1,2685,2.60144,-2.7002,0,1968.714,33.7,
1582,1,SBT2050,2,3,,1,2689,2.59034,-2.7001,0,1971.714,33.8,
1582,1,SBT2050,2,3,,1,2693,2.579007,-2.6996,0,1974.714,33.8,
1582,1,SBT2050,2,3,,1,2697,2.56722,-2.6999,0,1977.713,33.9,
1582,1,SBT2050,2,3,,1,2701,2.55484,-2.6999,0,1980.713,33.9,
1582,1,SBT2050,2,3,,1,2705,2.54206,-2.6998,0,1983.713,34,
1582,1,SBT2050,2,3,,1,2709,2.52907,-2.6999,0,1986.713,34,
1582,1,SBT2050,2,3,,1,2713,2.51547,-2.6999,0,1989.713,34.1,
1582,1,SBT2050,2,3,,1,2717,2.50128,-2.6998,0,1992.713,34.2,
1582,1,SBT2050,2,3,,2,2720,2.925312,0,0,1992.952,34.2,
1582,1,SBT2050,2,3,,2,2724,3.06581,0,0,1992.952,34.3,
1582,1,SBT2050,2,3,,2,2728,3.12091,0,0,1992.952,34.3,
1582,1,SBT2050,2,3,,2,2732,3.15215,0,0,1992.952,34.2,
1582,1,SBT2050,2,3,,2,2736,3.17401,0,0,1992.952,34.1,
1582,1,SBT2050,2,3,,2,2740,3.19069,0,0,1992.952,34,
1582,1,SBT2050,2,3,,2,2744,3.20406,0,0,1992.952,33.9,
1582,1,SBT2050,2,3,,2,2748,3.21551,0,0,1992.952,33.8,
1582,1,SBT2050,2,3,,2,2752,3.225376,0,0,1992.952,33.7,
1582,1,SBT2050,2,3,,2,2756,3.23391,0,0,1992.952,33.6,
1582,1,SBT2050,2,3,,2,2760,3.24168,0,0,1992.952,33.4,
1582,1,SBT2050,2,3,,2,2764,3.24855,0,0,1992.952,33.3,
1582,1,SBT2050,2,3,,2,2768,3.25475,0,0,1992.952,33.2,
1582,1,SBT2050,2,3,,2,2772,3.26048,0,0,1992.952,33.1,
1582,1,SBT2050,2,3,,2,2776,3.26567,0,0,1992.952,33,
1582,1,SBT2050,2,3,,2,2777.318,3.266905,-9.9E-05,0,1992.952,,