File: ORRG/Test1534.csv
Request Year:,2018,,,,,,,,,,,,
Test:,1534,,,,,,,,,,,,
Test Description:,,,,,,,,,,,,,
TestRegime Name:,Dchg_1C,,,,,,,,,,,,
TestRegime Suffix:,SHP_LC,,,,,,,,,,,,
TestRegime CellSize:,18650,,,,,,,,,,,,
TestRegime Version:,1,,,,,,,,,,,,
Number Of Cells:,1,,,,,,,,,,,,
LotID:,,,,,,,,,,,,,
Lot Description:,,,,,,,,,,,,,
Date Made:,1/21/2003 12:00 AM,,,,,,,,,,,,
Origin:,Other,,,,,,,,,,,,
Requestor:,Admin,,,,,,,,,,,,
Product ID:,Default product,,,,,,,,,,,,
Storage Temp:,R.T./AMB,,,,,,,,,,,,
Storage Delay:,0 days,,,,,,,,,,,,
Test Temp:,R.T./AMB,,,,,,,,,,,,
Start Time:,4/21/2018 9:39 AM,,,,,,,,,,,,
End Time:,4/21/2018 10:36 AM,,,,,,,,,,,,
Operator Instructions:,,,,,,,,,,,,,
Test,Cell,Rack,Shelf,Position,Cell ID,Step,Total Time (Seconds),Voltage (V),Current (A),Charge Capacity (mAh),Discharge Capacity (mAh),TC1 (Â°C),
1534,1,SBT2050,2,3,,0,1,4.13932,0,0,0,25.2,
1534,1,SBT2050,2,3,,0,5,4.139366,0,0,0,25.2,
1534,1,SBT2050,2,3,,0,9,4.1393,0,0,0,25.2,
1534,1,SBT2050,2,3,,0,13,4.13956,0,0,0,25.1,
1534,1,SBT2050,2,3,,0,17,4.13948,0,0,0,25.1,
1534,1,SBT2050,2,3,,0,21,4.13957,0,0,0,25.1,
1534,1,SBT2050,2,3,,0,25,4.13938,0,0,0,25.1,
1534,1,SBT2050,2,3,,0,29,4.13939,0,0,0,25.1,
1534,1,SBT2050,2,3,,0,33,4.1394,0,0,0,25.1,
1534,1,SBT2050,2,3,,0,37,4.13967,0,0,0,25.1,
1534,1,SBT2050,2,3,,0,41,4.13927,0,0,0,25.1,
1534,1,SBT2050,2,3,,0,45,4.13941,0,0,0,25.1,
1534,1,SBT2050,2,3,,0,49,4.13969,0,0,0,25.1,
1534,1,SBT2050,2,3,,0,53,4.13927,0,0,0,25.1,
1534,1,SBT2050,2,3,,0,57,4.13929,0,0,0,25.1,
1534,1,SBT2050,2,3,,1,61,3.89635,-2.6998,0,0.749,25.1,
1534,1,SBT2050,2,3,,1,65,3.87628,-2.6998,0,3.749,25.1,
1534,1,SBT2050,2,3,,1,69,3.866362,-2.7003,0,6.749,25.1,
1534,1,SBT2050,2,3,,1,73,3.85811,-2.7002,0,9.749,25.1,
1534,1,SBT2050,2,3,,1,77,3.850858,-2.6997,0,12.749,25.2,
1534,1,SBT2050,2,3,,1,81,3.8448,-2.6999,0,15.748,25.2,
1534,1,SBT2050,2,3,,1,85,3.83894,-2.7004,0,18.748,25.3,
1534,1,SBT2050,2,3,,1,89,3.833968,-2.6997,0,21.748,25.4,
1534,1,SBT2050,2,3,,1,93,3.82938,-2.7002,0,24.748,25.4,
1534,1,SBT2050,2,3,,1,97,3.82507,-2.6998,0,27.748,25.4,
1534,1,SBT2050,2,3,,1,101,3.821416,-2.6999,0,30.748,25.5,
1534,1,SBT2050,2,3,,1,105,3.81775,-2.6997,0,33.748,25.5,
1534,1,SBT2050,2,3,,1,109,3.81479,-2.7001,0,36.748,25.6,
1534,1,SBT2050,2,3,,1,113,3.81184,-2.6997,0,39.748,25.6,
1534,1,SBT2050,2,3,,1,117,3.80908,-2.6998,0,42.748,25.7,
1534,1,SBT2050,2,3,,1,121,3.80645,-2.6997,0,45.748,25.7,
1534,1,SBT2050,2,3,,1,125,3.80412,-2.6998,0,48.748,25.8,
1534,1,SBT2050,2,3,,1,129,3.80205,-2.7,0,51.748,25.9,
1534,1,SBT2050,2,3,,1,133,3.79983,-2.6995,0,54.748,25.9,
1534,1,SBT2050,2,3,,1,137,3.79809,-2.7003,0,57.748,25.9,
1534,1,SBT2050,2,3,,1,141,3.7964,-2.7003,0,60.748,26,
1534,1,SBT2050,2,3,,1,145,3.79485,-2.6998,0,63.748,26,
1534,1,SBT2050,2,3,,1,149,3.79333,-2.6997,0,66.748,26.1,
1534,1,SBT2050,2,3,,1,153,3.79182,-2.7,0,69.748,26.1,
1534,1,SBT2050,2,3,,1,157,3.79047,-2.6997,0,72.747,26.2,
1534,1,SBT2050,2,3,,1,161,3.789134,-2.6995,0,75.747,26.2,
1534,1,SBT2050,2,3,,1,165,3.787952,-2.7,0,78.747,26.3,
1534,1,SBT2050,2,3,,1,169,3.786718,-2.7004,0,81.747,26.3,
1534,1,SBT2050,2,3,,1,173,3.78565,-2.7001,0,84.747,26.4,
1534,1,SBT2050,2,3,,1,177,3.78454,-2.6997,0,87.747,26.4,
1534,1,SBT2050,2,3,,1,181,3.7835,-2.6997,0,90.747,26.5,
1534,1,SBT2050,2,3,,1,185,3.7822,-2.6997,0,93.747,26.5,
1534,1,SBT2050,2,3,,1,189,3.7815,-2.7,0,96.747,26.6,
1534,1,SBT2050,2,3,,1,193,3.7808,-2.7,0,99.747,26.6,
1534,1,SBT2050,2,3,,1,197,3.77967,-2.7,0,102.747,26.6,
1534,1,SBT2050,2,3,,1,201,3.7788,-2.6998,0,105.747,26.7,
1534,1,SBT2050,2,3,,1,205,3.77814,-2.7001,0,108.747,26.7,
1534,1,SBT2050,2,3,,1,209,3.77743,-2.6995,0,111.747,26.8,
1534,1,SBT2050,2,3,,1,213,3.77668,-2.7,0,114.747,26.8,
1534,1,SBT2050,2,3,,1,217,3.776,-2.6998,0,117.747,26.8,
1534,1,SBT2050,2,3,,1,221,3.77509,-2.7001,0,120.747,26.9,
1534,1,SBT2050,2,3,,1,225,3.774364,-2.7001,0,123.746,26.9,
1534,1,SBT2050,2,3,,1,229,3.77393,-2.6998,0,126.746,27,
1534,1,SBT2050,2,3,,1,233,3.773008,-2.7001,0,129.746,27,
1534,1,SBT2050,2,3,,1,237,3.77256,-2.6998,0,132.746,27.1,
1534,1,SBT2050,2,3,,1,241,3.77204,-2.7002,0,135.746,27.1,
1534,1,SBT2050,2,3,,1,245,3.77151,-2.6999,0,138.746,27.1,
1534,1,SBT2050,2,3,,1,249,3.770682,-2.6998,0,141.746,27.1,
1534,1,SBT2050,2,3,,1,253,3.770284,-2.7001,0,144.746,27.2,
1534,1,SBT2050,2,3,,1,257,3.76973,-2.7,0,147.746,27.2,
1534,1,SBT2050,2,3,,1,261,3.76913,-2.7001,0,150.746,27.3,
1534,1,SBT2050,2,3,,1,265,3.76872,-2.6998,0,153.746,27.3,
1534,1,SBT2050,2,3,,1,269,3.76803,-2.6998,0,156.746,27.3,
1534,1,SBT2050,2,3,,1,273,3.76762,-2.7003,0,159.746,27.3,
1534,1,SBT2050,2,3,,1,277,3.766958,-2.7,0,162.746,27.4,
1534,1,SBT2050,2,3,,1,281,3.76632,-2.7,0,165.746,27.4,
1534,1,SBT2050,2,3,,1,285,3.76601,-2.7001,0,168.746,27.4,
1534,1,SBT2050,2,3,,1,289,3.76541,-2.6998,0,171.746,27.4,
1534,1,SBT2050,2,3,,1,293,3.76469,-2.7001,0,174.746,27.5,
1534,1,SBT2050,2,3,,1,297,3.76435,-2.6995,0,177.746,27.5,
1534,1,SBT2050,2,3,,1,301,3.76363,-2.7001,0,180.746,27.5,
1534,1,SBT2050,2,3,,1,305,3.76325,-2.6998,0,183.746,27.6,
1534,1,SBT2050,2,3,,1,309,3.76294,-2.7001,0,186.746,27.6,
1534,1,SBT2050,2,3,,1,313,3.76234,-2.7001,0,189.745,27.6,
1534,1,SBT2050,2,3,,1,317,3.76186,-2.7002,0,192.745,27.6,
1534,1,SBT2050,2,3,,1,321,3.76115,-2.7,0,195.745,27.7,
1534,1,SBT2050,2,3,,1,325,3.760732,-2.6998,0,198.745,27.7,
1534,1,SBT2050,2,3,,1,329,3.76027,-2.6997,0,201.745,27.7,
1534,1,SBT2050,2,3,,1,333,3.75991,-2.7001,0,204.745,27.7,
1534,1,SBT2050,2,3,,1,337,3.759052,-2.6998,0,207.745,27.7,
1534,1,SBT2050,2,3,,1,341,3.75868,-2.7003,0,210.745,27.8,
1534,1,SBT2050,2,3,,1,345,3.75827,-2.7,0,213.745,27.8,
1534,1,SBT2050,2,3,,1,349,3.75762,-2.7,0,216.745,27.8,
1534,1,SBT2050,2,3,,1,353,3.75738,-2.6997,0,219.745,27.8,
1534,1,SBT2050,2,3,,1,357,3.75668,-2.7001,0,222.745,27.8,
1534,1,SBT2050,2,3,,1,361,3.75623,-2.6997,0,225.745,27.9,
1534,1,SBT2050,2,3,,1,365,3.75566,-2.7001,0,228.745,27.9,
1534,1,SBT2050,2,3,,1,369,3.75503,-2.7003,0,231.745,27.9,
1534,1,SBT2050,2,3,,1,373,3.75461,-2.7,0,234.745,27.9,
1534,1,SBT2050,2,3,,1,377,3.75386,-2.6997,0,237.745,27.9,
1534,1,SBT2050,2,3,,1,381,3.75332,-2.7002,0,240.745,27.9,
1534,1,SBT2050,2,3,,1,385,3.75274,-2.7,0,243.745,28,
1534,1,SBT2050,2,3,,1,389,3.75232,-2.7,0,246.745,28,
1534,1,SBT2050,2,3,,1,393,3.75175,-2.7002,0,249.745,28,
1534,1,SBT2050,2,3,,1,397,3.751304,-2.6997,0,252.744,28,
1534,1,SBT2050,2,3,,1,401,3.75082,-2.6997,0,255.744,28,
1534,1,SBT2050,2,3,,1,405,3.75001,-2.7003,0,258.744,28,
1534,1,SBT2050,2,3,,1,409,3.7493,-2.7002,0,261.744,28,
1534,1,SBT2050,2,3,,1,413,3.748988,-2.6999,0,264.744,28.1,
1534,1,SBT2050,2,3,,1,417,3.748326,-2.7,0,267.744,28.1,
1534,1,SBT2050,2,3,,1,421,3.74786,-2.7,0,270.744,28.1,
1534,1,SBT2050,2,3,,1,425,3.74745,-2.6997,0,273.744,28.1,
1534,1,SBT2050,2,3,,1,429,3.74693,-2.6997,0,276.744,28.1,
1534,1,SBT2050,2,3,,1,433,3.746122,-2.6999,0,279.744,28.1,
1534,1,SBT2050,2,3,,1,437,3.74543,-2.7,0,282.744,28.1,
1534,1,SBT2050,2,3,,1,441,3.74503,-2.6997,0,285.744,28.2,
1534,1,SBT2050,2,3,,1,445,3.74465,-2.6999,0,288.744,28.2,
1534,1,SBT2050,2,3,,1,449,3.74398,-2.6996,0,291.744,28.2,
1534,1,SBT2050,2,3,,1,453,3.74342,-2.6999,0,294.744,28.2,
1534,1,SBT2050,2,3,,1,457,3.74288,-2.6999,0,297.744,28.2,
1534,1,SBT2050,2,3,,1,461,3.74242,-2.6997,0,300.744,28.3,
1534,1,SBT2050,2,3,,1,465,3.74175,-2.7,0,303.743,28.3,
1534,1,SBT2050,2,3,,1,469,3.741072,-2.6999,0,306.743,28.3,
1534,1,SBT2050,2,3,,1,473,3.7407,-2.6999,0,309.743,28.3,
1534,1,SBT2050,2,3,,1,477,3.73986,-2.6996,0,312.743,28.3,
1534,1,SBT2050,2,3,,1,481,3.739404,-2.7,0,315.743,28.3,
1534,1,SBT2050,2,3,,1,485,3.73849,-2.7003,0,318.743,28.3,
1534,1,SBT2050,2,3,,1,489,3.73828,-2.6999,0,321.743,28.4,
1534,1,SBT2050,2,3,,1,493,3.73762,-2.6998,0,324.743,28.4,
1534,1,SBT2050,2,3,,1,497,3.73673,-2.7002,0,327.743,28.3,
1534,1,SBT2050,2,3,,1,501,3.73624,-2.6998,0,330.743,28.4,
1534,1,SBT2050,2,3,,1,505,3.7354,-2.7004,0,333.743,28.4,
1534,1,SBT2050,2,3,,1,509,3.73487,-2.7,0,336.743,28.4,
1534,1,SBT2050,2,3,,1,513,3.73399,-2.6999,0,339.743,28.4,
1534,1,SBT2050,2,3,,1,517,3.73332,-2.7,0,342.743,28.4,
1534,1,SBT2050,2,3,,1,521,3.73276,-2.6997,0,345.743,28.4,
1534,1,SBT2050,2,3,,1,525,3.73208,-2.7,0,348.743,28.4,
1534,1,SBT2050,2,3,,1,529,3.73132,-2.7,0,351.743,28.4,
1534,1,SBT2050,2,3,,1,533,3.73073,-2.6998,0,354.743,28.4,
1534,1,SBT2050,2,3,,1,537,3.73032,-2.6996,0,357.742,28.4,
1534,1,SBT2050,2,3,,1,541,3.72955,-2.6999,0,360.742,28.5,
1534,1,SBT2050,2,3,,1,545,3.72869,-2.7001,0,363.742,28.5,
1534,1,SBT2050,2,3,,1,549,3.728212,-2.6997,0,366.742,28.5,
1534,1,SBT2050,2,3,,1,553,3.72754,-2.7,0,369.742,28.4,
1534,1,SBT2050,2,3,,1,557,3.72684,-2.6996,0,372.742,28.5,
1534,1,SBT2050,2,3,,1,561,3.726234,-2.7,0,375.742,28.5,
1534,1,SBT2050,2,3,,1,565,3.72536,-2.7,0,378.742,28.5,
1534,1,SBT2050,2,3,,1,569,3.7247,-2.7005,0,381.742,28.5,
1534,1,SBT2050,2,3,,1,573,3.72409,-2.7,0,384.742,28.5,
1534,1,SBT2050,2,3,,1,577,3.72325,-2.7,0,387.742,28.5,
1534,1,SBT2050,2,3,,1,581,3.722634,-2.6997,0,390.742,28.5,
1534,1,SBT2050,2,3,,1,585,3.72166,-2.7,0,393.742,28.5,
1534,1,SBT2050,2,3,,1,589,3.72098,-2.6997,0,396.742,28.5,
1534,1,SBT2050,2,3,,1,593,3.72022,-2.6999,0,399.742,28.5,
1534,1,SBT2050,2,3,,1,597,3.71945,-2.6997,0,402.742,28.5,
1534,1,SBT2050,2,3,,1,601,3.71869,-2.6999,0,405.742,28.5,
1534,1,SBT2050,2,3,,1,605,3.718252,-2.7001,0,408.742,28.5,
1534,1,SBT2050,2,3,,1,609,3.717074,-2.7001,0,411.742,28.5,
1534,1,SBT2050,2,3,,1,613,3.71659,-2.7,0,414.741,28.5,
1534,1,SBT2050,2,3,,1,617,3.71573,-2.6998,0,417.741,28.6,
1534,1,SBT2050,2,3,,1,621,3.71488,-2.6997,0,420.741,28.5,
1534,1,SBT2050,2,3,,1,625,3.71443,-2.7003,0,423.741,28.5,
1534,1,SBT2050,2,3,,1,629,3.71335,-2.6995,0,426.741,28.5,
1534,1,SBT2050,2,3,,1,633,3.712684,-2.6997,0,429.741,28.5,
1534,1,SBT2050,2,3,,1,637,3.71217,-2.6998,0,432.741,28.5,
1534,1,SBT2050,2,3,,1,641,3.71117,-2.6998,0,435.741,28.5,
1534,1,SBT2050,2,3,,1,645,3.710308,-2.7,0,438.741,28.5,
1534,1,SBT2050,2,3,,1,649,3.70954,-2.7,0,441.741,28.5,
1534,1,SBT2050,2,3,,1,653,3.708732,-2.7,0,444.741,28.5,
1534,1,SBT2050,2,3,,1,657,3.708084,-2.7001,0,447.741,28.5,
1534,1,SBT2050,2,3,,1,661,3.70713,-2.6998,0,450.741,28.5,
1534,1,SBT2050,2,3,,1,665,3.70639,-2.7,0,453.741,28.5,
1534,1,SBT2050,2,3,,1,669,3.70566,-2.6995,0,456.741,28.5,
1534,1,SBT2050,2,3,,1,673,3.70494,-2.6997,0,459.741,28.5,
1534,1,SBT2050,2,3,,1,677,3.70407,-2.7,0,462.741,28.5,
1534,1,SBT2050,2,3,,1,681,3.70337,-2.6997,0,465.741,28.5,
1534,1,SBT2050,2,3,,1,685,3.70259,-2.6994,0,468.741,28.5,
1534,1,SBT2050,2,3,,1,689,3.70164,-2.6994,0,471.741,28.5,
1534,1,SBT2050,2,3,,1,693,3.70073,-2.6999,0,474.741,28.5,
1534,1,SBT2050,2,3,,1,697,3.70008,-2.7005,0,477.741,28.5,
1534,1,SBT2050,2,3,,1,701,3.69924,-2.7003,0,480.741,28.5,
1534,1,SBT2050,2,3,,1,705,3.69842,-2.7,0,483.741,28.5,
1534,1,SBT2050,2,3,,1,709,3.69773,-2.7002,0,486.74,28.5,
1534,1,SBT2050,2,3,,1,713,3.69682,-2.6999,0,489.74,28.5,
1534,1,SBT2050,2,3,,1,717,3.69588,-2.6997,0,492.74,28.5,
1534,1,SBT2050,2,3,,1,721,3.69521,-2.7002,0,495.74,28.5,
1534,1,SBT2050,2,3,,1,725,3.694076,-2.6997,0,498.74,28.5,
1534,1,SBT2050,2,3,,1,729,3.69344,-2.6999,0,501.74,28.5,
1534,1,SBT2050,2,3,,1,733,3.69255,-2.7003,0,504.74,28.5,
1534,1,SBT2050,2,3,,1,737,3.69173,-2.6999,0,507.74,28.5,
1534,1,SBT2050,2,3,,1,741,3.690818,-2.7003,0,510.74,28.5,
1534,1,SBT2050,2,3,,1,745,3.69007,-2.6996,0,513.74,28.5,
1534,1,SBT2050,2,3,,1,749,3.68923,-2.7,0,516.74,28.5,
1534,1,SBT2050,2,3,,1,753,3.68841,-2.6999,0,519.74,28.5,
1534,1,SBT2050,2,3,,1,757,3.68779,-2.6996,0,522.74,28.5,
1534,1,SBT2050,2,3,,1,761,3.68665,-2.6996,0,525.74,28.5,
1534,1,SBT2050,2,3,,1,765,3.68584,-2.6996,0,528.74,28.5,
1534,1,SBT2050,2,3,,1,769,3.685014,-2.7001,0,531.74,28.5,
1534,1,SBT2050,2,3,,1,773,3.68392,-2.6995,0,534.74,28.5,
1534,1,SBT2050,2,3,,1,777,3.68323,-2.6998,0,537.74,28.5,
1534,1,SBT2050,2,3,,1,781,3.68235,-2.7001,0,540.739,28.5,
1534,1,SBT2050,2,3,,1,785,3.68165,-2.7,0,543.739,28.5,
1534,1,SBT2050,2,3,,1,789,3.68063,-2.7004,0,546.739,28.5,
1534,1,SBT2050,2,3,,1,793,3.67986,-2.6998,0,549.739,28.5,
1534,1,SBT2050,2,3,,1,797,3.67899,-2.6999,0,552.739,28.5,
1534,1,SBT2050,2,3,,1,801,3.67807,-2.7001,0,555.739,28.5,
1534,1,SBT2050,2,3,,1,805,3.67732,-2.6998,0,558.739,28.5,
1534,1,SBT2050,2,3,,1,809,3.67635,-2.6997,0,561.739,28.5,
1534,1,SBT2050,2,3,,1,813,3.67547,-2.7,0,564.739,28.4,
1534,1,SBT2050,2,3,,1,817,3.67481,-2.7,0,567.739,28.4,
1534,1,SBT2050,2,3,,1,821,3.67368,-2.7,0,570.739,28.5,
1534,1,SBT2050,2,3,,1,825,3.67309,-2.6999,0,573.739,28.4,
1534,1,SBT2050,2,3,,1,829,3.67218,-2.7,0,576.739,28.4,
1534,1,SBT2050,2,3,,1,833,3.671384,-2.6997,0,579.739,28.4,
1534,1,SBT2050,2,3,,1,837,3.67047,-2.6996,0,582.739,28.4,
1534,1,SBT2050,2,3,,1,841,3.66966,-2.7,0,585.739,28.4,
1534,1,SBT2050,2,3,,1,845,3.66861,-2.7003,0,588.739,28.4,
1534,1,SBT2050,2,3,,1,849,3.66783,-2.6998,0,591.739,28.4,
1534,1,SBT2050,2,3,,1,853,3.66682,-2.7001,0,594.739,28.4,
1534,1,SBT2050,2,3,,1,857,3.66597,-2.6998,0,597.739,28.4,
1534,1,SBT2050,2,3,,1,861,3.66471,-2.6998,0,600.739,28.4,
1534,1,SBT2050,2,3,,1,865,3.66437,-2.6998,0,603.738,28.4,
1534,1,SBT2050,2,3,,1,869,3.66342,-2.7001,0,606.738,28.4,
1534,1,SBT2050,2,3,,1,873,3.66244,-2.6998,0,609.738,28.4,
1534,1,SBT2050,2,3,,1,877,3.66137,-2.6999,0,612.738,28.4,
1534,1,SBT2050,2,3,,1,881,3.66052,-2.6999,0,615.738,28.4,
1534,1,SBT2050,2,3,,1,885,3.65994,-2.6996,0,618.738,28.4,
1534,1,SBT2050,2,3,,1,889,3.65899,-2.6998,0,621.738,28.4,
1534,1,SBT2050,2,3,,1,893,3.65795,-2.7001,0,624.738,28.4,
1534,1,SBT2050,2,3,,1,897,3.65724,-2.7001,0,627.738,28.4,
1534,1,SBT2050,2,3,,1,901,3.656268,-2.7002,0,630.738,28.4,
1534,1,SBT2050,2,3,,1,905,3.65531,-2.6999,0,633.738,28.4,
1534,1,SBT2050,2,3,,1,909,3.65446,-2.6999,0,636.738,28.4,
1534,1,SBT2050,2,3,,1,913,3.65353,-2.6999,0,639.738,28.4,
1534,1,SBT2050,2,3,,1,917,3.65277,-2.6995,0,642.738,28.4,
1534,1,SBT2050,2,3,,1,921,3.65162,-2.7001,0,645.738,28.4,
1534,1,SBT2050,2,3,,1,925,3.650704,-2.7001,0,648.737,28.3,
1534,1,SBT2050,2,3,,1,929,3.64983,-2.7002,0,651.737,28.3,
1534,1,SBT2050,2,3,,1,933,3.64898,-2.7001,0,654.737,28.3,
1534,1,SBT2050,2,3,,1,937,3.64809,-2.7,0,657.737,28.3,
1534,1,SBT2050,2,3,,1,941,3.647176,-2.7001,0,660.737,28.3,
1534,1,SBT2050,2,3,,1,945,3.646138,-2.7003,0,663.737,28.3,
1534,1,SBT2050,2,3,,1,949,3.64516,-2.6998,0,666.737,28.3,
1534,1,SBT2050,2,3,,1,953,3.64409,-2.7005,0,669.737,28.3,
1534,1,SBT2050,2,3,,1,957,3.64351,-2.7002,0,672.737,28.3,
1534,1,SBT2050,2,3,,1,961,3.64262,-2.7005,0,675.737,28.3,
1534,1,SBT2050,2,3,,1,965,3.64135,-2.6999,0,678.737,28.3,
1534,1,SBT2050,2,3,,1,969,3.64085,-2.7002,0,681.737,28.3,
1534,1,SBT2050,2,3,,1,973,3.63982,-2.7001,0,684.737,28.3,
1534,1,SBT2050,2,3,,1,977,3.63868,-2.7002,0,687.737,28.3,
1534,1,SBT2050,2,3,,1,981,3.6379,-2.6998,0,690.737,28.3,
1534,1,SBT2050,2,3,,1,985,3.63679,-2.6998,0,693.736,28.3,
1534,1,SBT2050,2,3,,1,989,3.63592,-2.7001,0,696.736,28.3,
1534,1,SBT2050,2,3,,1,993,3.6351,-2.7001,0,699.736,28.3,
1534,1,SBT2050,2,3,,1,997,3.63432,-2.6998,0,702.736,28.3,
1534,1,SBT2050,2,3,,1,1001,3.63313,-2.7001,0,705.736,28.2,
1534,1,SBT2050,2,3,,1,1005,3.63251,-2.6999,0,708.736,28.2,
1534,1,SBT2050,2,3,,1,1009,3.63131,-2.7001,0,711.736,28.2,
1534,1,SBT2050,2,3,,1,1013,3.630412,-2.6996,0,714.736,28.2,
1534,1,SBT2050,2,3,,1,1017,3.62956,-2.7004,0,717.736,28.2,
1534,1,SBT2050,2,3,,1,1021,3.6286,-2.6999,0,720.736,28.3,
1534,1,SBT2050,2,3,,1,1025,3.6276,-2.6996,0,723.736,28.3,
1534,1,SBT2050,2,3,,1,1029,3.62681,-2.6999,0,726.736,28.3,
1534,1,SBT2050,2,3,,1,1033,3.625572,-2.7,0,729.736,28.3,
1534,1,SBT2050,2,3,,1,1037,3.62493,-2.6999,0,732.736,28.2,
1534,1,SBT2050,2,3,,1,1041,3.624,-2.7001,0,735.736,28.2,
1534,1,SBT2050,2,3,,1,1045,3.62288,-2.6998,0,738.736,28.2,
1534,1,SBT2050,2,3,,1,1049,3.62182,-2.6999,0,741.735,28.3,
1534,1,SBT2050,2,3,,1,1053,3.62118,-2.6999,0,744.735,28.3,
1534,1,SBT2050,2,3,,1,1057,3.62034,-2.6999,0,747.735,28.2,
1534,1,SBT2050,2,3,,1,1061,3.61927,-2.7001,0,750.735,28.2,
1534,1,SBT2050,2,3,,1,1065,3.61819,-2.6999,0,753.735,28.2,
1534,1,SBT2050,2,3,,1,1069,3.6171,-2.6999,0,756.735,28.3,
1534,1,SBT2050,2,3,,1,1073,3.61603,-2.7,0,759.735,28.3,
1534,1,SBT2050,2,3,,1,1077,3.61531,-2.7,0,762.735,28.2,
1534,1,SBT2050,2,3,,1,1081,3.61419,-2.7,0,765.735,28.2,
1534,1,SBT2050,2,3,,1,1085,3.61325,-2.7,0,768.735,28.2,
1534,1,SBT2050,2,3,,1,1089,3.61218,-2.7,0,771.735,28.2,
1534,1,SBT2050,2,3,,1,1093,3.61139,-2.7001,0,774.735,28.2,
1534,1,SBT2050,2,3,,1,1097,3.61051,-2.7001,0,777.735,28.2,
1534,1,SBT2050,2,3,,1,1101,3.60965,-2.7001,0,780.735,28.2,
1534,1,SBT2050,2,3,,1,1105,3.60866,-2.6996,0,783.735,28.2,
1534,1,SBT2050,2,3,,1,1109,3.60772,-2.7001,0,786.735,28.2,
1534,1,SBT2050,2,3,,1,1113,3.60669,-2.6996,0,789.735,28.2,
1534,1,SBT2050,2,3,,1,1117,3.60568,-2.6998,0,792.735,28.2,
1534,1,SBT2050,2,3,,1,1121,3.60475,-2.7002,0,795.734,28.2,
1534,1,SBT2050,2,3,,1,1125,3.6037,-2.6996,0,798.734,28.2,
1534,1,SBT2050,2,3,,1,1129,3.60279,-2.7001,0,801.734,28.2,
1534,1,SBT2050,2,3,,1,1133,3.60185,-2.6998,0,804.734,28.2,
1534,1,SBT2050,2,3,,1,1137,3.60088,-2.7001,0,807.734,28.2,
1534,1,SBT2050,2,3,,1,1141,3.59999,-2.6996,0,810.734,28.2,
1534,1,SBT2050,2,3,,1,1145,3.59889,-2.6997,0,813.734,28.2,
1534,1,SBT2050,2,3,,1,1149,3.597858,-2.6997,0,816.734,28.2,
1534,1,SBT2050,2,3,,1,1153,3.597,-2.6999,0,819.734,28.2,
1534,1,SBT2050,2,3,,1,1157,3.59595,-2.6997,0,822.734,28.2,
1534,1,SBT2050,2,3,,1,1161,3.59501,-2.7002,0,825.734,28.2,
1534,1,SBT2050,2,3,,1,1165,3.59408,-2.6994,0,828.734,28.2,
1534,1,SBT2050,2,3,,1,1169,3.59303,-2.6997,0,831.734,28.2,
1534,1,SBT2050,2,3,,1,1173,3.5919,-2.7,0,834.734,28.2,
1534,1,SBT2050,2,3,,1,1177,3.591,-2.7002,0,837.734,28.2,
1534,1,SBT2050,2,3,,1,1181,3.59001,-2.7,0,840.734,28.3,
1534,1,SBT2050,2,3,,1,1185,3.58904,-2.7003,0,843.734,28.3,
1534,1,SBT2050,2,3,,1,1189,3.58814,-2.7002,0,846.734,28.3,
1534,1,SBT2050,2,3,,1,1193,3.587112,-2.7001,0,849.734,28.2,
1534,1,SBT2050,2,3,,1,1197,3.5859,-2.7002,0,852.734,28.2,
1534,1,SBT2050,2,3,,1,1201,3.58495,-2.6996,0,855.734,28.2,
1534,1,SBT2050,2,3,,1,1205,3.58396,-2.6998,0,858.733,28.2,
1534,1,SBT2050,2,3,,1,1209,3.58312,-2.6998,0,861.733,28.2,
1534,1,SBT2050,2,3,,1,1213,3.58206,-2.7001,0,864.733,28.2,
1534,1,SBT2050,2,3,,1,1217,3.58103,-2.6996,0,867.733,28.2,
1534,1,SBT2050,2,3,,1,1221,3.5801,-2.7004,0,870.733,28.2,
1534,1,SBT2050,2,3,,1,1225,3.579114,-2.6999,0,873.733,28.2,
1534,1,SBT2050,2,3,,1,1229,3.57805,-2.7,0,876.733,28.2,
1534,1,SBT2050,2,3,,1,1233,3.57699,-2.6999,0,879.733,28.2,
1534,1,SBT2050,2,3,,1,1237,3.57595,-2.6997,0,882.733,28.2,
1534,1,SBT2050,2,3,,1,1241,3.57494,-2.6999,0,885.733,28.2,
1534,1,SBT2050,2,3,,1,1245,3.574,-2.7002,0,888.733,28.2,
1534,1,SBT2050,2,3,,1,1249,3.57312,-2.7002,0,891.733,28.2,
1534,1,SBT2050,2,3,,1,1253,3.571728,-2.6999,0,894.733,28.3,
1534,1,SBT2050,2,3,,1,1257,3.57081,-2.7001,0,897.733,28.3,
1534,1,SBT2050,2,3,,1,1261,3.56959,-2.6998,0,900.733,28.3,
1534,1,SBT2050,2,3,,1,1265,3.56886,-2.7002,0,903.733,28.3,
1534,1,SBT2050,2,3,,1,1269,3.567748,-2.6999,0,906.732,28.3,
1534,1,SBT2050,2,3,,1,1273,3.56681,-2.7,0,909.732,28.3,
1534,1,SBT2050,2,3,,1,1277,3.56578,-2.7005,0,912.732,28.2,
1534,1,SBT2050,2,3,,1,1281,3.5648,-2.6999,0,915.732,28.3,
1534,1,SBT2050,2,3,,1,1285,3.56383,-2.6996,0,918.732,28.3,
1534,1,SBT2050,2,3,,1,1289,3.56259,-2.6999,0,921.732,28.3,
1534,1,SBT2050,2,3,,1,1293,3.56161,-2.6998,0,924.732,28.3,
1534,1,SBT2050,2,3,,1,1297,3.56083,-2.6999,0,927.732,28.3,
1534,1,SBT2050,2,3,,1,1301,3.55984,-2.6998,0,930.732,28.3,
1534,1,SBT2050,2,3,,1,1305,3.55884,-2.7001,0,933.732,28.3,
1534,1,SBT2050,2,3,,1,1309,3.557766,-2.7002,0,936.732,28.3,
1534,1,SBT2050,2,3,,1,1313,3.55696,-2.7002,0,939.732,28.3,
1534,1,SBT2050,2,3,,1,1317,3.55569,-2.6995,0,942.732,28.3,
1534,1,SBT2050,2,3,,1,1321,3.55474,-2.6998,0,945.732,28.3,
1534,1,SBT2050,2,3,,1,1325,3.55381,-2.7001,0,948.732,28.3,
1534,1,SBT2050,2,3,,1,1329,3.55256,-2.6999,0,951.732,28.3,
1534,1,SBT2050,2,3,,1,1333,3.55169,-2.6999,0,954.732,28.3,
1534,1,SBT2050,2,3,,1,1337,3.550596,-2.7002,0,957.732,28.3,
1534,1,SBT2050,2,3,,1,1341,3.54975,-2.6998,0,960.731,28.3,
1534,1,SBT2050,2,3,,1,1345,3.54856,-2.7,0,963.731,28.3,
1534,1,SBT2050,2,3,,1,1349,3.54775,-2.6996,0,966.731,28.3,
1534,1,SBT2050,2,3,,1,1353,3.54664,-2.7,0,969.731,28.3,
1534,1,SBT2050,2,3,,1,1357,3.54559,-2.6997,0,972.731,28.3,
1534,1,SBT2050,2,3,,1,1361,3.54443,-2.6998,0,975.731,28.4,
1534,1,SBT2050,2,3,,1,1365,3.54352,-2.7001,0,978.731,28.4,
1534,1,SBT2050,2,3,,1,1369,3.54238,-2.7004,0,981.731,28.4,
1534,1,SBT2050,2,3,,1,1373,3.54168,-2.6996,0,984.731,28.4,
1534,1,SBT2050,2,3,,1,1377,3.540446,-2.6999,0,987.731,28.4,
1534,1,SBT2050,2,3,,1,1381,3.53948,-2.6996,0,990.731,28.4,
1534,1,SBT2050,2,3,,1,1385,3.53856,-2.6998,0,993.731,28.4,
1534,1,SBT2050,2,3,,1,1389,3.53741,-2.6999,0,996.731,28.4,
1534,1,SBT2050,2,3,,1,1393,3.53638,-2.7001,0,999.731,28.4,
1534,1,SBT2050,2,3,,1,1397,3.535174,-2.7002,0,1002.731,28.4,
1534,1,SBT2050,2,3,,1,1401,3.53434,-2.6999,0,1005.731,28.4,
1534,1,SBT2050,2,3,,1,1405,3.53358,-2.7001,0,1008.73,28.4,
1534,1,SBT2050,2,3,,1,1409,3.53244,-2.6999,0,1011.73,28.4,
1534,1,SBT2050,2,3,,1,1413,3.5312,-2.7002,0,1014.73,28.4,
1534,1,SBT2050,2,3,,1,1417,3.53026,-2.6998,0,1017.73,28.4,
1534,1,SBT2050,2,3,,1,1421,3.5292,-2.7002,0,1020.73,28.4,
1534,1,SBT2050,2,3,,1,1425,3.52818,-2.7002,0,1023.73,28.4,
1534,1,SBT2050,2,3,,1,1429,3.52718,-2.7001,0,1026.73,28.4,
1534,1,SBT2050,2,3,,1,1433,3.526276,-2.6996,0,1029.73,28.4,
1534,1,SBT2050,2,3,,1,1437,3.5253,-2.6999,0,1032.73,28.4,
1534,1,SBT2050,2,3,,1,1441,3.52416,-2.7,0,1035.73,28.4,
1534,1,SBT2050,2,3,,1,1445,3.52292,-2.6999,0,1038.73,28.4,
1534,1,SBT2050,2,3,,1,1449,3.522,-2.7001,0,1041.73,28.4,
1534,1,SBT2050,2,3,,1,1453,3.52116,-2.6999,0,1044.73,28.4,
1534,1,SBT2050,2,3,,1,1457,3.51987,-2.6998,0,1047.73,28.4,
1534,1,SBT2050,2,3,,1,1461,3.51897,-2.7001,0,1050.73,28.4,
1534,1,SBT2050,2,3,,1,1465,3.51788,-2.6998,0,1053.73,28.4,
1534,1,SBT2050,2,3,,1,1469,3.51694,-2.7002,0,1056.73,28.4,
1534,1,SBT2050,2,3,,1,1473,3.51589,-2.6999,0,1059.729,28.4,
1534,1,SBT2050,2,3,,1,1477,3.51502,-2.6996,0,1062.729,28.4,
1534,1,SBT2050,2,3,,1,1481,3.513996,-2.7001,0,1065.729,28.4,
1534,1,SBT2050,2,3,,1,1485,3.51281,-2.6999,0,1068.729,28.4,
1534,1,SBT2050,2,3,,1,1489,3.5117,-2.7002,0,1071.729,28.4,
1534,1,SBT2050,2,3,,1,1493,3.510736,-2.6999,0,1074.729,28.4,
1534,1,SBT2050,2,3,,1,1497,3.50947,-2.6999,0,1077.729,28.4,
1534,1,SBT2050,2,3,,1,1501,3.50858,-2.6996,0,1080.729,28.4,
1534,1,SBT2050,2,3,,1,1505,3.50756,-2.6995,0,1083.729,28.4,
1534,1,SBT2050,2,3,,1,1509,3.5066,-2.6996,0,1086.729,28.4,
1534,1,SBT2050,2,3,,1,1513,3.50557,-2.6999,0,1089.729,28.4,
1534,1,SBT2050,2,3,,1,1517,3.50456,-2.6996,0,1092.729,28.4,
1534,1,SBT2050,2,3,,1,1521,3.503748,-2.6995,0,1095.729,28.4,
1534,1,SBT2050,2,3,,1,1525,3.50271,-2.7004,0,1098.729,28.4,
1534,1,SBT2050,2,3,,1,1529,3.501718,-2.7001,0,1101.729,28.4,
1534,1,SBT2050,2,3,,1,1533,3.50039,-2.6999,0,1104.729,28.4,
1534,1,SBT2050,2,3,,1,1537,3.49953,-2.6999,0,1107.729,28.4,
1534,1,SBT2050,2,3,,1,1541,3.4984,-2.6998,0,1110.729,28.4,
1534,1,SBT2050,2,3,,1,1545,3.49762,-2.6998,0,1113.729,28.4,
1534,1,SBT2050,2,3,,1,1549,3.49622,-2.7001,0,1116.728,28.5,
1534,1,SBT2050,2,3,,1,1553,3.49527,-2.6998,0,1119.728,28.4,
1534,1,SBT2050,2,3,,1,1557,3.49415,-2.6999,0,1122.728,28.4,
1534,1,SBT2050,2,3,,1,1561,3.49319,-2.6999,0,1125.728,28.5,
1534,1,SBT2050,2,3,,1,1565,3.49213,-2.7002,0,1128.728,28.4,
1534,1,SBT2050,2,3,,1,1569,3.49121,-2.7001,0,1131.728,28.4,
1534,1,SBT2050,2,3,,1,1573,3.49023,-2.6998,0,1134.728,28.5,
1534,1,SBT2050,2,3,,1,1577,3.48922,-2.7002,0,1137.728,28.5,
1534,1,SBT2050,2,3,,1,1581,3.48833,-2.6999,0,1140.728,28.5,
1534,1,SBT2050,2,3,,1,1585,3.48716,-2.6999,0,1143.728,28.4,
1534,1,SBT2050,2,3,,1,1589,3.48644,-2.6996,0,1146.728,28.4,
1534,1,SBT2050,2,3,,1,1593,3.48512,-2.6999,0,1149.728,28.4,
1534,1,SBT2050,2,3,,1,1597,3.48419,-2.6998,0,1152.728,28.5,
1534,1,SBT2050,2,3,,1,1601,3.48316,-2.7001,0,1155.728,28.5,
1534,1,SBT2050,2,3,,1,1605,3.4824,-2.7002,0,1158.728,28.5,
1534,1,SBT2050,2,3,,1,1609,3.48148,-2.6998,0,1161.728,28.4,
1534,1,SBT2050,2,3,,1,1613,3.48041,-2.7,0,1164.728,28.5,
1534,1,SBT2050,2,3,,1,1617,3.47939,-2.7001,0,1167.728,28.5,
1534,1,SBT2050,2,3,,1,1621,3.4785,-2.7003,0,1170.727,28.5,
1534,1,SBT2050,2,3,,1,1625,3.477246,-2.7001,0,1173.727,28.5,
1534,1,SBT2050,2,3,,1,1629,3.47634,-2.7003,0,1176.727,28.5,
1534,1,SBT2050,2,3,,1,1633,3.47534,-2.7003,0,1179.727,28.5,
1534,1,SBT2050,2,3,,1,1637,3.47447,-2.6999,0,1182.727,28.5,
1534,1,SBT2050,2,3,,1,1641,3.47346,-2.7004,0,1185.727,28.5,
1534,1,SBT2050,2,3,,1,1645,3.4724,-2.6998,0,1188.727,28.5,
1534,1,SBT2050,2,3,,1,1649,3.47148,-2.7001,0,1191.727,28.5,
1534,1,SBT2050,2,3,,1,1653,3.47058,-2.6998,0,1194.727,28.5,
1534,1,SBT2050,2,3,,1,1657,3.46938,-2.7004,0,1197.727,28.5,
1534,1,SBT2050,2,3,,1,1661,3.46862,-2.6999,0,1200.727,28.5,
1534,1,SBT2050,2,3,,1,1665,3.46752,-2.6999,0,1203.727,28.5,
1534,1,SBT2050,2,3,,1,1669,3.466586,-2.6999,0,1206.727,28.5,
1534,1,SBT2050,2,3,,1,1673,3.46571,-2.7002,0,1209.727,28.5,
1534,1,SBT2050,2,3,,1,1677,3.46484,-2.6999,0,1212.727,28.5,
1534,1,SBT2050,2,3,,1,1681,3.46351,-2.6998,0,1215.726,28.5,
1534,1,SBT2050,2,3,,1,1685,3.46222,-2.7004,0,1218.726,28.5,
1534,1,SBT2050,2,3,,1,1689,3.461498,-2.6999,0,1221.726,28.5,
1534,1,SBT2050,2,3,,1,1693,3.46064,-2.6998,0,1224.726,28.5,
1534,1,SBT2050,2,3,,1,1697,3.45959,-2.6999,0,1227.726,28.5,
1534,1,SBT2050,2,3,,1,1701,3.45862,-2.6999,0,1230.726,28.5,
1534,1,SBT2050,2,3,,1,1705,3.45757,-2.7,0,1233.726,28.5,
1534,1,SBT2050,2,3,,1,1709,3.45651,-2.6998,0,1236.726,28.5,
1534,1,SBT2050,2,3,,1,1713,3.45568,-2.7001,0,1239.726,28.5,
1534,1,SBT2050,2,3,,1,1717,3.45475,-2.7,0,1242.726,28.5,
1534,1,SBT2050,2,3,,1,1721,3.4537,-2.7001,0,1245.726,28.5,
1534,1,SBT2050,2,3,,1,1725,3.45277,-2.7002,0,1248.726,28.5,
1534,1,SBT2050,2,3,,1,1729,3.45192,-2.6999,0,1251.726,28.5,
1534,1,SBT2050,2,3,,1,1733,3.45088,-2.7001,0,1254.726,28.5,
1534,1,SBT2050,2,3,,1,1737,3.44993,-2.7,0,1257.726,28.5,
1534,1,SBT2050,2,3,,1,1741,3.44867,-2.6998,0,1260.726,28.5,
1534,1,SBT2050,2,3,,1,1745,3.44782,-2.6997,0,1263.725,28.5,
1534,1,SBT2050,2,3,,1,1749,3.44678,-2.7003,0,1266.725,28.5,
1534,1,SBT2050,2,3,,1,1753,3.445772,-2.6997,0,1269.725,28.5,
1534,1,SBT2050,2,3,,1,1757,3.444952,-2.6998,0,1272.725,28.5,
1534,1,SBT2050,2,3,,1,1761,3.44372,-2.6998,0,1275.725,28.5,
1534,1,SBT2050,2,3,,1,1765,3.44281,-2.6997,0,1278.725,28.5,
1534,1,SBT2050,2,3,,1,1769,3.44177,-2.7003,0,1281.725,28.5,
1534,1,SBT2050,2,3,,1,1773,3.4409,-2.6998,0,1284.725,28.5,
1534,1,SBT2050,2,3,,1,1777,3.439998,-2.6998,0,1287.725,28.5,
1534,1,SBT2050,2,3,,1,1781,3.43875,-2.7001,0,1290.725,28.5,
1534,1,SBT2050,2,3,,1,1785,3.43794,-2.6998,0,1293.725,28.5,
1534,1,SBT2050,2,3,,1,1789,3.43714,-2.6999,0,1296.725,28.5,
1534,1,SBT2050,2,3,,1,1793,3.43581,-2.7001,0,1299.725,28.5,
1534,1,SBT2050,2,3,,1,1797,3.43506,-2.6998,0,1302.725,28.5,
1534,1,SBT2050,2,3,,1,1801,3.43426,-2.7002,0,1305.725,28.5,
1534,1,SBT2050,2,3,,1,1805,3.43293,-2.6999,0,1308.725,28.5,
1534,1,SBT2050,2,3,,1,1809,3.431714,-2.6998,0,1311.724,28.5,
1534,1,SBT2050,2,3,,1,1813,3.43088,-2.7002,0,1314.724,28.6,
1534,1,SBT2050,2,3,,1,1817,3.43029,-2.6999,0,1317.724,28.5,
1534,1,SBT2050,2,3,,1,1821,3.42926,-2.7,0,1320.724,28.5,
1534,1,SBT2050,2,3,,1,1825,3.42821,-2.7002,0,1323.724,28.5,
1534,1,SBT2050,2,3,,1,1829,3.42726,-2.6999,0,1326.724,28.5,
1534,1,SBT2050,2,3,,1,1833,3.42602,-2.6999,0,1329.724,28.5,
1534,1,SBT2050,2,3,,1,1837,3.42538,-2.7002,0,1332.724,28.5,
1534,1,SBT2050,2,3,,1,1841,3.42424,-2.7002,0,1335.724,28.5,
1534,1,SBT2050,2,3,,1,1845,3.42329,-2.6999,0,1338.724,28.5,
1534,1,SBT2050,2,3,,1,1849,3.42241,-2.7002,0,1341.724,28.5,
1534,1,SBT2050,2,3,,1,1853,3.42132,-2.7002,0,1344.724,28.5,
1534,1,SBT2050,2,3,,1,1857,3.42046,-2.6999,0,1347.724,28.5,
1534,1,SBT2050,2,3,,1,1861,3.41962,-2.6999,0,1350.724,28.5,
1534,1,SBT2050,2,3,,1,1865,3.41852,-2.6997,0,1353.724,28.5,
1534,1,SBT2050,2,3,,1,1869,3.41761,-2.6999,0,1356.724,28.5,
1534,1,SBT2050,2,3,,1,1873,3.416708,-2.7002,0,1359.724,28.5,
1534,1,SBT2050,2,3,,1,1877,3.41583,-2.6999,0,1362.724,28.5,
1534,1,SBT2050,2,3,,1,1881,3.41463,-2.6996,0,1365.724,28.6,
1534,1,SBT2050,2,3,,1,1885,3.41405,-2.6999,0,1368.724,28.6,
1534,1,SBT2050,2,3,,1,1889,3.41276,-2.6996,0,1371.724,28.6,
1534,1,SBT2050,2,3,,1,1893,3.412092,-2.6997,0,1374.724,28.6,
1534,1,SBT2050,2,3,,1,1897,3.41109,-2.6999,0,1377.724,28.6,
1534,1,SBT2050,2,3,,1,1901,3.41013,-2.7002,0,1380.723,28.6,
1534,1,SBT2050,2,3,,1,1905,3.40903,-2.7004,0,1383.723,28.6,
1534,1,SBT2050,2,3,,1,1909,3.40806,-2.6999,0,1386.723,28.6,
1534,1,SBT2050,2,3,,1,1913,3.407304,-2.6999,0,1389.723,28.6,
1534,1,SBT2050,2,3,,1,1917,3.4061,-2.6995,0,1392.723,28.6,
1534,1,SBT2050,2,3,,1,1921,3.405202,-2.6998,0,1395.723,28.6,
1534,1,SBT2050,2,3,,1,1925,3.40406,-2.6999,0,1398.723,28.6,
1534,1,SBT2050,2,3,,1,1929,3.40325,-2.6999,0,1401.723,28.6,
1534,1,SBT2050,2,3,,1,1933,3.40222,-2.6999,0,1404.723,28.6,
1534,1,SBT2050,2,3,,1,1937,3.40117,-2.7004,0,1407.723,28.6,
1534,1,SBT2050,2,3,,1,1941,3.40034,-2.7001,0,1410.723,28.6,
1534,1,SBT2050,2,3,,1,1945,3.39935,-2.7003,0,1413.723,28.6,
1534,1,SBT2050,2,3,,1,1949,3.39843,-2.7003,0,1416.723,28.6,
1534,1,SBT2050,2,3,,1,1953,3.39748,-2.7001,0,1419.723,28.6,
1534,1,SBT2050,2,3,,1,1957,3.396316,-2.6998,0,1422.723,28.6,
1534,1,SBT2050,2,3,,1,1961,3.39556,-2.7001,0,1425.723,28.6,
1534,1,SBT2050,2,3,,1,1965,3.39444,-2.6998,0,1428.723,28.6,
1534,1,SBT2050,2,3,,1,1969,3.39373,-2.7,0,1431.723,28.6,
1534,1,SBT2050,2,3,,1,1973,3.39297,-2.7002,0,1434.722,28.6,
1534,1,SBT2050,2,3,,1,1977,3.39177,-2.6999,0,1437.722,28.6,
1534,1,SBT2050,2,3,,1,1981,3.390754,-2.7004,0,1440.722,28.6,
1534,1,SBT2050,2,3,,1,1985,3.3901,-2.6999,0,1443.722,28.6,
1534,1,SBT2050,2,3,,1,1989,3.38913,-2.6998,0,1446.722,28.6,
1534,1,SBT2050,2,3,,1,1993,3.387974,-2.6996,0,1449.722,28.6,
1534,1,SBT2050,2,3,,1,1997,3.387216,-2.7001,0,1452.722,28.7,
1534,1,SBT2050,2,3,,1,2001,3.38624,-2.6998,0,1455.722,28.6,
1534,1,SBT2050,2,3,,1,2005,3.38516,-2.6998,0,1458.722,28.6,
1534,1,SBT2050,2,3,,1,2009,3.38439,-2.6995,0,1461.722,28.7,
1534,1,SBT2050,2,3,,1,2013,3.38316,-2.7001,0,1464.722,28.6,
1534,1,SBT2050,2,3,,1,2017,3.38228,-2.6998,0,1467.722,28.6,
1534,1,SBT2050,2,3,,1,2021,3.38152,-2.6999,0,1470.722,28.6,
1534,1,SBT2050,2,3,,1,2025,3.3803,-2.7001,0,1473.722,28.7,
1534,1,SBT2050,2,3,,1,2029,3.37954,-2.6998,0,1476.722,28.7,
1534,1,SBT2050,2,3,,1,2033,3.37838,-2.6996,0,1479.722,28.7,
1534,1,SBT2050,2,3,,1,2037,3.37745,-2.7002,0,1482.722,28.6,
1534,1,SBT2050,2,3,,1,2041,3.37642,-2.6998,0,1485.721,28.7,
1534,1,SBT2050,2,3,,1,2045,3.37562,-2.6995,0,1488.721,28.7,
1534,1,SBT2050,2,3,,1,2049,3.37458,-2.6998,0,1491.721,28.7,
1534,1,SBT2050,2,3,,1,2053,3.3738,-2.7001,0,1494.721,28.7,
1534,1,SBT2050,2,3,,1,2057,3.37283,-2.6998,0,1497.721,28.6,
1534,1,SBT2050,2,3,,1,2061,3.37187,-2.6999,0,1500.721,28.7,
1534,1,SBT2050,2,3,,1,2065,3.37089,-2.7001,0,1503.721,28.7,
1534,1,SBT2050,2,3,,1,2069,3.37007,-2.7001,0,1506.721,28.7,
1534,1,SBT2050,2,3,,1,2073,3.368872,-2.7004,0,1509.721,28.7,
1534,1,SBT2050,2,3,,1,2077,3.36796,-2.6999,0,1512.721,28.7,
1534,1,SBT2050,2,3,,1,2081,3.366988,-2.6998,0,1515.721,28.7,
1534,1,SBT2050,2,3,,1,2085,3.365896,-2.6998,0,1518.721,28.7,
1534,1,SBT2050,2,3,,1,2089,3.36503,-2.6999,0,1521.721,28.7,
1534,1,SBT2050,2,3,,1,2093,3.36384,-2.6998,0,1524.721,28.7,
1534,1,SBT2050,2,3,,1,2097,3.363078,-2.7001,0,1527.721,28.7,
1534,1,SBT2050,2,3,,1,2101,3.36205,-2.7001,0,1530.721,28.7,
1534,1,SBT2050,2,3,,1,2105,3.36114,-2.6999,0,1533.721,28.7,
1534,1,SBT2050,2,3,,1,2109,3.360406,-2.7002,0,1536.721,28.7,
1534,1,SBT2050,2,3,,1,2113,3.359232,-2.6999,0,1539.72,28.7,
1534,1,SBT2050,2,3,,1,2117,3.35813,-2.7002,0,1542.72,28.7,
1534,1,SBT2050,2,3,,1,2121,3.35726,-2.6999,0,1545.72,28.7,
1534,1,SBT2050,2,3,,1,2125,3.35626,-2.6999,0,1548.72,28.7,
1534,1,SBT2050,2,3,,1,2129,3.35554,-2.7002,0,1551.72,28.7,
1534,1,SBT2050,2,3,,1,2133,3.3544,-2.6999,0,1554.72,28.7,
1534,1,SBT2050,2,3,,1,2137,3.3535,-2.6996,0,1557.72,28.7,
1534,1,SBT2050,2,3,,1,2141,3.35242,-2.6997,0,1560.72,28.7,
1534,1,SBT2050,2,3,,1,2145,3.35122,-2.6995,0,1563.72,28.7,
1534,1,SBT2050,2,3,,1,2149,3.35042,-2.7001,0,1566.72,28.7,
1534,1,SBT2050,2,3,,1,2153,3.34938,-2.6999,0,1569.72,28.7,
1534,1,SBT2050,2,3,,1,2157,3.34813,-2.6999,0,1572.72,28.7,
1534,1,SBT2050,2,3,,1,2161,3.34732,-2.6999,0,1575.72,28.7,
1534,1,SBT2050,2,3,,1,2165,3.346466,-2.6999,0,1578.72,28.7,
1534,1,SBT2050,2,3,,1,2169,3.3453,-2.6999,0,1581.72,28.7,
1534,1,SBT2050,2,3,,1,2173,3.3442,-2.6996,0,1584.72,28.7,
1534,1,SBT2050,2,3,,1,2177,3.34336,-2.6999,0,1587.72,28.8,
1534,1,SBT2050,2,3,,1,2181,3.342423,-2.7002,0,1590.72,28.8,
1534,1,SBT2050,2,3,,1,2185,3.341154,-2.6996,0,1593.72,28.8,
1534,1,SBT2050,2,3,,1,2189,3.34031,-2.6999,0,1596.72,28.8,
1534,1,SBT2050,2,3,,1,2193,3.33918,-2.6998,0,1599.72,28.8,
1534,1,SBT2050,2,3,,1,2197,3.33822,-2.6998,0,1602.719,28.8,
1534,1,SBT2050,2,3,,1,2201,3.3374,-2.6996,0,1605.719,28.8,
1534,1,SBT2050,2,3,,1,2205,3.33616,-2.7001,0,1608.719,28.8,
1534,1,SBT2050,2,3,,1,2209,3.33516,-2.6999,0,1611.719,28.8,
1534,1,SBT2050,2,3,,1,2213,3.33425,-2.6996,0,1614.719,28.8,
1534,1,SBT2050,2,3,,1,2217,3.33323,-2.6999,0,1617.719,28.8,
1534,1,SBT2050,2,3,,1,2221,3.33229,-2.6998,0,1620.719,28.8,
1534,1,SBT2050,2,3,,1,2225,3.33127,-2.6999,0,1623.719,28.8,
1534,1,SBT2050,2,3,,1,2229,3.33003,-2.6996,0,1626.719,28.9,
1534,1,SBT2050,2,3,,1,2233,3.329026,-2.6999,0,1629.719,28.9,
1534,1,SBT2050,2,3,,1,2237,3.328241,-2.6998,0,1632.719,28.8,
1534,1,SBT2050,2,3,,1,2241,3.32712,-2.7001,0,1635.719,28.8,
1534,1,SBT2050,2,3,,1,2245,3.32609,-2.7001,0,1638.719,28.8,
1534,1,SBT2050,2,3,,1,2249,3.32514,-2.6999,0,1641.719,28.8,
1534,1,SBT2050,2,3,,1,2253,3.323972,-2.6996,0,1644.719,28.8,
1534,1,SBT2050,2,3,,1,2257,3.32325,-2.6998,0,1647.719,28.8,
1534,1,SBT2050,2,3,,1,2261,3.32213,-2.7004,0,1650.719,28.9,
1534,1,SBT2050,2,3,,1,2265,3.32106,-2.6999,0,1653.719,28.9,
1534,1,SBT2050,2,3,,1,2269,3.32001,-2.6998,0,1656.718,28.9,
1534,1,SBT2050,2,3,,1,2273,3.31886,-2.7002,0,1659.718,28.9,
1534,1,SBT2050,2,3,,1,2277,3.31787,-2.6998,0,1662.718,28.9,
1534,1,SBT2050,2,3,,1,2281,3.31671,-2.6998,0,1665.718,28.9,
1534,1,SBT2050,2,3,,1,2285,3.31579,-2.7001,0,1668.718,28.9,
1534,1,SBT2050,2,3,,1,2289,3.31471,-2.7001,0,1671.718,28.9,
1534,1,SBT2050,2,3,,1,2293,3.31405,-2.7003,0,1674.718,28.9,
1534,1,SBT2050,2,3,,1,2297,3.31276,-2.7002,0,1677.718,28.9,
1534,1,SBT2050,2,3,,1,2301,3.3118,-2.7004,0,1680.718,28.9,
1534,1,SBT2050,2,3,,1,2305,3.31058,-2.7001,0,1683.718,28.9,
1534,1,SBT2050,2,3,,1,2309,3.30969,-2.6998,0,1686.718,28.9,
1534,1,SBT2050,2,3,,1,2313,3.30818,-2.7,0,1689.718,28.9,
1534,1,SBT2050,2,3,,1,2317,3.30747,-2.6995,0,1692.718,28.9,
1534,1,SBT2050,2,3,,1,2321,3.30638,-2.6997,0,1695.718,28.9,
1534,1,SBT2050,2,3,,1,2325,3.30535,-2.7001,0,1698.718,28.9,
1534,1,SBT2050,2,3,,1,2329,3.30418,-2.7,0,1701.718,28.9,
1534,1,SBT2050,2,3,,1,2333,3.30312,-2.6998,0,1704.718,28.9,
1534,1,SBT2050,2,3,,1,2337,3.30196,-2.7004,0,1707.717,29,
1534,1,SBT2050,2,3,,1,2341,3.300962,-2.7001,0,1710.717,29,
1534,1,SBT2050,2,3,,1,2345,3.30002,-2.7001,0,1713.717,29,
1534,1,SBT2050,2,3,,1,2349,3.2987,-2.6998,0,1716.717,28.9,
1534,1,SBT2050,2,3,,1,2353,3.29771,-2.6998,0,1719.717,28.9,
1534,1,SBT2050,2,3,,1,2357,3.29643,-2.6997,0,1722.717,29,
1534,1,SBT2050,2,3,,1,2361,3.29557,-2.7,0,1725.717,29,
1534,1,SBT2050,2,3,,1,2365,3.294227,-2.7,0,1728.717,29,
1534,1,SBT2050,2,3,,1,2369,3.29307,-2.6998,0,1731.717,29,
1534,1,SBT2050,2,3,,1,2373,3.29236,-2.7001,0,1734.717,29,
1534,1,SBT2050,2,3,,1,2377,3.291076,-2.6995,0,1737.717,29,
1534,1,SBT2050,2,3,,1,2381,3.28994,-2.7001,0,1740.717,29,
1534,1,SBT2050,2,3,,1,2385,3.28859,-2.6997,0,1743.717,29,
1534,1,SBT2050,2,3,,1,2389,3.28752,-2.6997,0,1746.717,29,
1534,1,SBT2050,2,3,,1,2393,3.286245,-2.6998,0,1749.717,29,
1534,1,SBT2050,2,3,,1,2397,3.28518,-2.7005,0,1752.717,29,
1534,1,SBT2050,2,3,,1,2401,3.28407,-2.6999,0,1755.716,29,
1534,1,SBT2050,2,3,,1,2405,3.28289,-2.7001,0,1758.716,29.1,
1534,1,SBT2050,2,3,,1,2409,3.28152,-2.6999,0,1761.716,29.1,
1534,1,SBT2050,2,3,,1,2413,3.28043,-2.7002,0,1764.716,29.1,
1534,1,SBT2050,2,3,,1,2417,3.27937,-2.6997,0,1767.716,29.1,
1534,1,SBT2050,2,3,,1,2421,3.278246,-2.7,0,1770.716,29.1,
1534,1,SBT2050,2,3,,1,2425,3.27697,-2.6997,0,1773.716,29.1,
1534,1,SBT2050,2,3,,1,2429,3.27595,-2.6999,0,1776.716,29.1,
1534,1,SBT2050,2,3,,1,2433,3.27446,-2.7,0,1779.716,29.1,
1534,1,SBT2050,2,3,,1,2437,3.27343,-2.7,0,1782.716,29.1,
1534,1,SBT2050,2,3,,1,2441,3.27234,-2.7002,0,1785.716,29.1,
1534,1,SBT2050,2,3,,1,2445,3.27115,-2.7001,0,1788.716,29.1,
1534,1,SBT2050,2,3,,1,2449,3.27022,-2.6999,0,1791.716,29.1,
1534,1,SBT2050,2,3,,1,2453,3.26902,-2.6999,0,1794.716,29.1,
1534,1,SBT2050,2,3,,1,2457,3.26764,-2.7001,0,1797.716,29.1,
1534,1,SBT2050,2,3,,1,2461,3.2668,-2.6998,0,1800.716,29.2,
1534,1,SBT2050,2,3,,1,2465,3.26544,-2.6999,0,1803.716,29.1,
1534,1,SBT2050,2,3,,1,2469,3.264133,-2.6998,0,1806.716,29.2,
1534,1,SBT2050,2,3,,1,2473,3.26311,-2.7003,0,1809.716,29.2,
1534,1,SBT2050,2,3,,1,2477,3.26181,-2.7,0,1812.716,29.2,
1534,1,SBT2050,2,3,,1,2481,3.2606,-2.6997,0,1815.716,29.2,
1534,1,SBT2050,2,3,,1,2485,3.2593,-2.7,0,1818.715,29.2,
1534,1,SBT2050,2,3,,1,2489,3.25785,-2.6998,0,1821.715,29.2,
1534,1,SBT2050,2,3,,1,2493,3.25688,-2.6998,0,1824.715,29.2,
1534,1,SBT2050,2,3,,1,2497,3.25556,-2.7001,0,1827.715,29.2,
1534,1,SBT2050,2,3,,1,2501,3.25427,-2.7001,0,1830.715,29.2,
1534,1,SBT2050,2,3,,1,2505,3.25297,-2.6998,0,1833.715,29.2,
1534,1,SBT2050,2,3,,1,2509,3.25177,-2.6999,0,1836.715,29.2,
1534,1,SBT2050,2,3,,1,2513,3.25049,-2.6996,0,1839.715,29.3,
1534,1,SBT2050,2,3,,1,2517,3.24915,-2.6998,0,1842.715,29.3,
1534,1,SBT2050,2,3,,1,2521,3.24776,-2.7001,0,1845.715,29.3,
1534,1,SBT2050,2,3,,1,2525,3.24673,-2.6998,0,1848.715,29.3,
1534,1,SBT2050,2,3,,1,2529,3.24575,-2.7002,0,1851.715,29.2,
1534,1,SBT2050,2,3,,1,2533,3.24437,-2.7002,0,1854.715,29.3,
1534,1,SBT2050,2,3,,1,2537,3.24298,-2.6999,0,1857.715,29.3,
1534,1,SBT2050,2,3,,1,2541,3.24161,-2.7004,0,1860.715,29.3,
1534,1,SBT2050,2,3,,1,2545,3.24028,-2.7002,0,1863.715,29.3,
1534,1,SBT2050,2,3,,1,2549,3.239,-2.7002,0,1866.715,29.3,
1534,1,SBT2050,2,3,,1,2553,3.23788,-2.7001,0,1869.715,29.3,
1534,1,SBT2050,2,3,,1,2557,3.23648,-2.6996,0,1872.714,29.3,
1534,1,SBT2050,2,3,,1,2561,3.23493,-2.7002,0,1875.714,29.3,
1534,1,SBT2050,2,3,,1,2565,3.23369,-2.6999,0,1878.714,29.3,
1534,1,SBT2050,2,3,,1,2569,3.23223,-2.6999,0,1881.714,29.3,
1534,1,SBT2050,2,3,,1,2573,3.23094,-2.7,0,1884.714,29.3,
1534,1,SBT2050,2,3,,1,2577,3.2295,-2.6997,0,1887.714,29.3,
1534,1,SBT2050,2,3,,1,2581,3.22809,-2.7003,0,1890.714,29.4,
1534,1,SBT2050,2,3,,1,2585,3.22697,-2.7001,0,1893.714,29.4,
1534,1,SBT2050,2,3,,1,2589,3.2254,-2.7002,0,1896.714,29.4,
1534,1,SBT2050,2,3,,1,2593,3.22399,-2.6999,0,1899.714,29.4,
1534,1,SBT2050,2,3,,1,2597,3.22256,-2.7001,0,1902.714,29.4,
1534,1,SBT2050,2,3,,1,2601,3.22117,-2.6997,0,1905.714,29.4,
1534,1,SBT2050,2,3,,1,2605,3.21963,-2.7001,0,1908.714,29.4,
1534,1,SBT2050,2,3,,1,2609,3.21811,-2.6999,0,1911.714,29.4,
1534,1,SBT2050,2,3,,1,2613,3.216825,-2.6996,0,1914.714,29.4,
1534,1,SBT2050,2,3,,1,2617,3.2156,-2.6996,0,1917.714,29.4,
1534,1,SBT2050,2,3,,1,2621,3.21384,-2.6999,0,1920.714,29.4,
1534,1,SBT2050,2,3,,1,2625,3.21244,-2.6998,0,1923.714,29.4,
1534,1,SBT2050,2,3,,1,2629,3.21091,-2.7001,0,1926.713,29.5,
1534,1,SBT2050,2,3,,1,2633,3.20929,-2.6998,0,1929.713,29.4,
1534,1,SBT2050,2,3,,1,2637,3.20816,-2.6999,0,1932.713,29.4,
1534,1,SBT2050,2,3,,1,2641,3.20653,-2.7005,0,1935.713,29.5,
1534,1,SBT2050,2,3,,1,2645,3.20511,-2.6999,0,1938.713,29.5,
1534,1,SBT2050,2,3,,1,2649,3.20349,-2.6999,0,1941.713,29.5,
1534,1,SBT2050,2,3,,1,2653,3.20194,-2.7001,0,1944.713,29.5,
1534,1,SBT2050,2,3,,1,2657,3.20078,-2.6998,0,1947.713,29.5,
1534,1,SBT2050,2,3,,1,2661,3.19896,-2.7001,0,1950.713,29.5,
1534,1,SBT2050,2,3,,1,2665,3.197531,-2.7001,0,1953.713,29.5,
1534,1,SBT2050,2,3,,1,2669,3.19596,-2.7001,0,1956.713,29.5,
1534,1,SBT2050,2,3,,1,2673,3.194616,-2.6999,0,1959.713,29.6,
1534,1,SBT2050,2,3,,1,2677,3.19293,-2.7001,0,1962.713,29.6,
1534,1,SBT2050,2,3,,1,2681,3.19142,-2.6998,0,1965.713,29.5,
1534,1,SBT2050,2,3,,1,2685,3.18983,-2.6999,0,1968.713,29.5,
1534,1,SBT2050,2,3,,1,2689,3.188305,-2.7002,0,1971.713,29.6,
1534,1,SBT2050,2,3,,1,2693,3.1866,-2.6997,0,1974.713,29.6,
1534,1,SBT2050,2,3,,1,2697,3.18487,-2.6996,0,1977.713,29.6,
1534,1,SBT2050,2,3,,1,2701,3.18333,-2.7,0,1980.713,29.6,
1534,1,SBT2050,2,3,,1,2705,3.1819,-2.6999,0,1983.713,29.6,
1534,1,SBT2050,2,3,,1,2709,3.1801,-2.7004,0,1986.712,29.7,
1534,1,SBT2050,2,3,,1,2713,3.1785,-2.7002,0,1989.712,29.6,
1534,1,SBT2050,2,3,,1,2717,3.176881,-2.6999,0,1992.712,29.7,
1534,1,SBT2050,2,3,,1,2721,3.17525,-2.7,0,1995.712,29.7,
1534,1,SBT2050,2,3,,1,2725,3.17362,-2.6999,0,1998.712,29.7,
1534,1,SBT2050,2,3,,1,2729,3.17184,-2.6999,0,2001.712,29.7,
1534,1,SBT2050,2,3,,1,2733,3.17034,-2.6999,0,2004.712,29.7,
1534,1,SBT2050,2,3,,1,2737,3.16853,-2.6998,0,2007.712,29.7,
1534,1,SBT2050,2,3,,1,2741,3.16692,-2.7002,0,2010.712,29.7,
1534,1,SBT2050,2,3,,1,2745,3.16518,-2.7001,0,2013.712,29.7,
1534,1,SBT2050,2,3,,1,2749,3.16332,-2.6999,0,2016.712,29.7,
1534,1,SBT2050,2,3,,1,2753,3.16157,-2.6996,0,2019.712,29.8,
1534,1,SBT2050,2,3,,1,2757,3.15998,-2.6999,0,2022.712,29.8,
1534,1,SBT2050,2,3,,1,2761,3.158032,-2.7,0,2025.712,29.8,
1534,1,SBT2050,2,3,,1,2765,3.156474,-2.6997,0,2028.712,29.8,
1534,1,SBT2050,2,3,,1,2769,3.154818,-2.6998,0,2031.712,29.8,
1534,1,SBT2050,2,3,,1,2773,3.15272,-2.7003,0,2034.712,29.8,
1534,1,SBT2050,2,3,,1,2777,3.151124,-2.7,0,2037.712,29.9,
1534,1,SBT2050,2,3,,1,2781,3.149112,-2.7002,0,2040.712,29.9,
1534,1,SBT2050,2,3,,1,2785,3.14734,-2.7,0,2043.712,29.9,
1534,1,SBT2050,2,3,,1,2789,3.145503,-2.7002,0,2046.712,29.9,
1534,1,SBT2050,2,3,,1,2793,3.14362,-2.6999,0,2049.712,29.9,
1534,1,SBT2050,2,3,,1,2797,3.1419,-2.7,0,2052.711,29.9,
1534,1,SBT2050,2,3,,1,2801,3.14014,-2.7002,0,2055.711,29.9,
1534,1,SBT2050,2,3,,1,2805,3.13802,-2.6999,0,2058.711,29.9,
1534,1,SBT2050,2,3,,1,2809,3.13598,-2.6998,0,2061.711,29.9,
1534,1,SBT2050,2,3,,1,2813,3.13433,-2.7002,0,2064.711,30,
1534,1,SBT2050,2,3,,1,2817,3.13236,-2.6999,0,2067.711,30,
1534,1,SBT2050,2,3,,1,2821,3.13009,-2.7,0,2070.711,30,
1534,1,SBT2050,2,3,,1,2825,3.12824,-2.6998,0,2073.711,30,
1534,1,SBT2050,2,3,,1,2829,3.12628,-2.7002,0,2076.711,30,
1534,1,SBT2050,2,3,,1,2833,3.124047,-2.7002,0,2079.711,30,
1534,1,SBT2050,2,3,,1,2837,3.12223,-2.7002,0,2082.711,30.1,
1534,1,SBT2050,2,3,,1,2841,3.12036,-2.6996,0,2085.711,30.1,
1534,1,SBT2050,2,3,,1,2845,3.11816,-2.6999,0,2088.711,30.1,
1534,1,SBT2050,2,3,,1,2849,3.11623,-2.6999,0,2091.711,30.1,
1534,1,SBT2050,2,3,,1,2853,3.11402,-2.7001,0,2094.711,30.1,
1534,1,SBT2050,2,3,,1,2857,3.111935,-2.7001,0,2097.711,30.1,
1534,1,SBT2050,2,3,,1,2861,3.10967,-2.6999,0,2100.711,30.1,
1534,1,SBT2050,2,3,,1,2865,3.10797,-2.7002,0,2103.711,30.2,
1534,1,SBT2050,2,3,,1,2869,3.10558,-2.6999,0,2106.711,30.2,
1534,1,SBT2050,2,3,,1,2873,3.10341,-2.6999,0,2109.71,30.2,
1534,1,SBT2050,2,3,,1,2877,3.101361,-2.6999,0,2112.71,30.2,
1534,1,SBT2050,2,3,,1,2881,3.09899,-2.7,0,2115.71,30.2,
1534,1,SBT2050,2,3,,1,2885,3.09679,-2.7,0,2118.71,30.2,
1534,1,SBT2050,2,3,,1,2889,3.094669,-2.7,0,2121.71,30.2,
1534,1,SBT2050,2,3,,1,2893,3.092213,-2.6997,0,2124.71,30.2,
1534,1,SBT2050,2,3,,1,2897,3.09018,-2.7,0,2127.71,30.3,
1534,1,SBT2050,2,3,,1,2901,3.08782,-2.7003,0,2130.71,30.3,
1534,1,SBT2050,2,3,,1,2905,3.08552,-2.6999,0,2133.71,30.3,
1534,1,SBT2050,2,3,,1,2909,3.08302,-2.6996,0,2136.71,30.3,
1534,1,SBT2050,2,3,,1,2913,3.080703,-2.6999,0,2139.71,30.3,
1534,1,SBT2050,2,3,,1,2917,3.07847,-2.7002,0,2142.71,30.3,
1534,1,SBT2050,2,3,,1,2921,3.07614,-2.7001,0,2145.71,30.4,
1534,1,SBT2050,2,3,,1,2925,3.07372,-2.6999,0,2148.71,30.4,
1534,1,SBT2050,2,3,,1,2929,3.07156,-2.6998,0,2151.71,30.4,
1534,1,SBT2050,2,3,,1,2933,3.06892,-2.6998,0,2154.71,30.4,
1534,1,SBT2050,2,3,,1,2937,3.06666,-2.6998,0,2157.71,30.4,
1534,1,SBT2050,2,3,,1,2941,3.0642,-2.6998,0,2160.71,30.5,
1534,1,SBT2050,2,3,,1,2945,3.061663,-2.6998,0,2163.71,30.5,
1534,1,SBT2050,2,3,,1,2949,3.05918,-2.6998,0,2166.71,30.5,
1534,1,SBT2050,2,3,,1,2953,3.05667,-2.7001,0,2169.71,30.5,
1534,1,SBT2050,2,3,,1,2957,3.054,-2.7,0,2172.709,30.5,
1534,1,SBT2050,2,3,,1,2961,3.05166,-2.7001,0,2175.709,30.5,
1534,1,SBT2050,2,3,,1,2965,3.0489,-2.7002,0,2178.709,30.5,
1534,1,SBT2050,2,3,,1,2969,3.04636,-2.6996,0,2181.709,30.6,
1534,1,SBT2050,2,3,,1,2973,3.04369,-2.7001,0,2184.709,30.6,
1534,1,SBT2050,2,3,,1,2977,3.040804,-2.7,0,2187.709,30.6,
1534,1,SBT2050,2,3,,1,2981,3.03828,-2.6998,0,2190.709,30.6,
1534,1,SBT2050,2,3,,1,2985,3.03559,-2.7,0,2193.709,30.6,
1534,1,SBT2050,2,3,,1,2989,3.03291,-2.7003,0,2196.709,30.6,
1534,1,SBT2050,2,3,,1,2993,3.03,-2.6997,0,2199.709,30.6,
1534,1,SBT2050,2,3,,1,2997,3.02747,-2.6996,0,2202.709,30.7,
1534,1,SBT2050,2,3,,1,3001,3.02471,-2.7,0,2205.709,30.7,
1534,1,SBT2050,2,3,,1,3005,3.02172,-2.6995,0,2208.709,30.7,
1534,1,SBT2050,2,3,,1,3009,3.01922,-2.6997,0,2211.709,30.7,
1534,1,SBT2050,2,3,,1,3013,3.01625,-2.6994,0,2214.709,30.8,
1534,1,SBT2050,2,3,,1,3017,3.01348,-2.6998,0,2217.709,30.8,
1534,1,SBT2050,2,3,,1,3021,3.01052,-2.7001,0,2220.709,30.8,
1534,1,SBT2050,2,3,,1,3025,3.00749,-2.7,0,2223.709,30.9,
1534,1,SBT2050,2,3,,1,3029,3.00473,-2.6995,0,2226.709,30.9,
1534,1,SBT2050,2,3,,1,3033,3.00163,-2.7004,0,2229.708,30.9,
1534,1,SBT2050,2,3,,1,3037,2.99875,-2.6998,0,2232.708,30.9,
1534,1,SBT2050,2,3,,1,3041,2.99562,-2.7,0,2235.708,30.9,
1534,1,SBT2050,2,3,,1,3045,2.99265,-2.6998,0,2238.708,31,
1534,1,SBT2050,2,3,,1,3049,2.98946,-2.6996,0,2241.708,31,
1534,1,SBT2050,2,3,,1,3053,2.986285,-2.6998,0,2244.708,31,
1534,1,SBT2050,2,3,,1,3057,2.98327,-2.7001,0,2247.708,31,
1534,1,SBT2050,2,3,,1,3061,2.97999,-2.7001,0,2250.708,31,
1534,1,SBT2050,2,3,,1,3065,2.97672,-2.6999,0,2253.708,31.1,
1534,1,SBT2050,2,3,,1,3069,2.97349,-2.6998,0,2256.708,31.1,
1534,1,SBT2050,2,3,,1,3073,2.97028,-2.7001,0,2259.708,31.1,
1534,1,SBT2050,2,3,,1,3077,2.96677,-2.7001,0,2262.708,31.1,
1534,1,SBT2050,2,3,,1,3081,2.9632,-2.6996,0,2265.708,31.1,
1534,1,SBT2050,2,3,,1,3085,2.95991,-2.6999,0,2268.708,31.2,
1534,1,SBT2050,2,3,,1,3089,2.95636,-2.7001,0,2271.708,31.2,
1534,1,SBT2050,2,3,,1,3093,2.953,-2.7,0,2274.708,31.2,
1534,1,SBT2050,2,3,,1,3097,2.94918,-2.6997,0,2277.708,31.3,
1534,1,SBT2050,2,3,,1,3101,2.945664,-2.6999,0,2280.708,31.3,
1534,1,SBT2050,2,3,,1,3105,2.94202,-2.7001,0,2283.708,31.3,
1534,1,SBT2050,2,3,,1,3109,2.93815,-2.7001,0,2286.707,31.3,
1534,1,SBT2050,2,3,,1,3113,2.934416,-2.6998,0,2289.707,31.3,
1534,1,SBT2050,2,3,,1,3117,2.93063,-2.6999,0,2292.707,31.4,
1534,1,SBT2050,2,3,,1,3121,2.9268,-2.6999,0,2295.707,31.4,
1534,1,SBT2050,2,3,,1,3125,2.92282,-2.6999,0,2298.707,31.4,
1534,1,SBT2050,2,3,,1,3129,2.91873,-2.6998,0,2301.707,31.4,
1534,1,SBT2050,2,3,,1,3133,2.91481,-2.7001,0,2304.707,31.5,
1534,1,SBT2050,2,3,,1,3137,2.91081,-2.6999,0,2307.707,31.5,
1534,1,SBT2050,2,3,,1,3141,2.906585,-2.6999,0,2310.707,31.5,
1534,1,SBT2050,2,3,,1,3145,2.90241,-2.6999,0,2313.707,31.6,
1534,1,SBT2050,2,3,,1,3149,2.89824,-2.6998,0,2316.707,31.6,
1534,1,SBT2050,2,3,,1,3153,2.893636,-2.6998,0,2319.707,31.6,
1534,1,SBT2050,2,3,,1,3157,2.889182,-2.6998,0,2322.707,31.6,
1534,1,SBT2050,2,3,,1,3161,2.884471,-2.6998,0,2325.707,31.7,
1534,1,SBT2050,2,3,,1,3165,2.87995,-2.7003,0,2328.707,31.7,
1534,1,SBT2050,2,3,,1,3169,2.87524,-2.7,0,2331.707,31.7,
1534,1,SBT2050,2,3,,1,3173,2.87047,-2.7003,0,2334.707,31.7,
1534,1,SBT2050,2,3,,1,3177,2.86568,-2.6998,0,2337.707,31.8,
1534,1,SBT2050,2,3,,1,3181,2.86077,-2.6997,0,2340.707,31.8,
1534,1,SBT2050,2,3,,1,3185,2.85567,-2.6998,0,2343.706,31.8,
1534,1,SBT2050,2,3,,1,3189,2.85051,-2.7001,0,2346.706,31.8,
1534,1,SBT2050,2,3,,1,3193,2.84526,-2.6998,0,2349.706,31.9,
1534,1,SBT2050,2,3,,1,3197,2.84016,-2.7001,0,2352.706,31.9,
1534,1,SBT2050,2,3,,1,3201,2.83469,-2.7002,0,2355.706,32,
1534,1,SBT2050,2,3,,1,3205,2.82923,-2.6999,0,2358.706,32,
1534,1,SBT2050,2,3,,1,3209,2.82354,-2.6998,0,2361.706,32,
1534,1,SBT2050,2,3,,1,3213,2.81801,-2.6998,0,2364.706,32,
1534,1,SBT2050,2,3,,1,3217,2.81216,-2.6999,0,2367.706,32.1,
1534,1,SBT2050,2,3,,1,3221,2.806217,-2.6998,0,2370.706,32.1,
1534,1,SBT2050,2,3,,1,3225,2.80021,-2.6997,0,2373.706,32.2,
1534,1,SBT2050,2,3,,1,3229,2.79391,-2.6997,0,2376.706,32.2,
1534,1,SBT2050,2,3,,1,3233,2.78745,-2.6999,0,2379.706,32.3,
1534,1,SBT2050,2,3,,1,3237,2.78106,-2.7002,0,2382.706,32.3,
1534,1,SBT2050,2,3,,1,3241,2.77455,-2.7,0,2385.706,32.3,
1534,1,SBT2050,2,3,,1,3245,2.76776,-2.7001,0,2388.706,32.4,
1534,1,SBT2050,2,3,,1,3249,2.76087,-2.7,0,2391.705,32.4,
1534,1,SBT2050,2,3,,1,3253,2.75386,-2.7002,0,2394.705,32.5,
1534,1,SBT2050,2,3,,1,3257,2.74656,-2.7001,0,2397.705,32.5,
1534,1,SBT2050,2,3,,1,3261,2.73903,-2.6998,0,2400.705,32.5,
1534,1,SBT2050,2,3,,1,3265,2.731655,-2.7001,0,2403.705,32.6,
1534,1,SBT2050,2,3,,1,3269,2.7238,-2.7001,0,2406.705,32.6,
1534,1,SBT2050,2,3,,1,3273,2.71593,-2.6999,0,2409.705,32.7,
1534,1,SBT2050,2,3,,1,3277,2.70792,-2.7002,0,2412.705,32.7,
1534,1,SBT2050,2,3,,1,3281,2.69989,-2.7001,0,2415.705,32.8,
1534,1,SBT2050,2,3,,1,3285,2.69157,-2.7,0,2418.705,32.8,
1534,1,SBT2050,2,3,,1,3289,2.68281,-2.6997,0,2421.705,32.9,
1534,1,SBT2050,2,3,,1,3293,2.674078,-2.6998,0,2424.705,32.9,
1534,1,SBT2050,2,3,,1,3297,2.66513,-2.7001,0,2427.705,33,
1534,1,SBT2050,2,3,,1,3301,2.655928,-2.7,0,2430.705,33,
1534,1,SBT2050,2,3,,1,3305,2.64653,-2.7,0,2433.705,33.1,
1534,1,SBT2050,2,3,,1,3309,2.636938,-2.7,0,2436.705,33.1,
1534,1,SBT2050,2,3,,1,3313,2.62694,-2.7,0,2439.705,33.2,
1534,1,SBT2050,2,3,,1,3317,2.61668,-2.7001,0,2442.705,33.2,
1534,1,SBT2050,2,3,,1,3321,2.60629,-2.7,0,2445.704,33.3,
1534,1,SBT2050,2,3,,1,3325,2.595279,-2.7001,0,2448.704,33.3,
1534,1,SBT2050,2,3,,1,3329,2.58405,-2.6997,0,2451.704,33.4,
1534,1,SBT2050,2,3,,1,3333,2.57215,-2.7,0,2454.704,33.5,
1534,1,SBT2050,2,3,,1,3337,2.56024,-2.7001,0,2457.704,33.5,
1534,1,SBT2050,2,3,,1,3341,2.54776,-2.7,0,2460.704,33.6,
1534,1,SBT2050,2,3,,1,3345,2.53487,-2.7001,0,2463.704,33.7,
1534,1,SBT2050,2,3,,1,3349,2.52164,-2.7001,0,2466.704,33.7,
1534,1,SBT2050,2,3,,1,3353,2.5077,-2.7,0,2469.704,33.8,
1534,1,SBT2050,2,3,,2,3356,2.75526,0,0,2471.278,33.9,
1534,1,SBT2050,2,3,,2,3360,3.02718,0,0,2471.278,33.9,
1534,1,SBT2050,2,3,,2,3364,3.11186,0,0,2471.278,34,
1534,1,SBT2050,2,3,,2,3368,3.15157,0,0,2471.278,33.9,
1534,1,SBT2050,2,3,,2,3372,3.1759,0,0,2471.278,33.8,
1534,1,SBT2050,2,3,,2,3376,3.19334,0,0,2471.278,33.7,
1534,1,SBT2050,2,3,,2,3380,3.20721,0,0,2471.278,33.6,
1534,1,SBT2050,2,3,,2,3384,3.21845,0,0,2471.278,33.5,
1534,1,SBT2050,2,3,,2,3388,3.22791,0,0,2471.278,33.3,
1534,1,SBT2050,2,3,,2,3392,3.23644,0,0,2471.278,33.2,
1534,1,SBT2050,2,3,,2,3396,3.24376,0,0,2471.278,33.2,
1534,1,SBT2050,2,3,,2,3400,3.25023,0,0,2471.278,33,
1534,1,SBT2050,2,3,,2,3404,3.25601,0,0,2471.278,32.9,
1534,1,SBT2050,2,3,,2,3408,3.26157,0,0,2471.278,32.8,
1534,1,SBT2050,2,3,,2,3412,3.266349,0,0,2471.278,32.7,
1534,1,SBT2050,2,3,,2,3415.098,3.26935,-9.9E-05,0,2471.278,,