File: 1C/Test1473.csv
Request Year:,2018,,,,,,,,,,,,
Test:,1473,,,,,,,,,,,,
Test Description:,,,,,,,,,,,,,
TestRegime Name:,Aging_Performance,,,,,,,,,,,,
TestRegime Suffix:,SHP_LC,,,,,,,,,,,,
TestRegime CellSize:,18650,,,,,,,,,,,,
TestRegime Version:,1,,,,,,,,,,,,
Number Of Cells:,1,,,,,,,,,,,,
LotID:,,,,,,,,,,,,,
Lot Description:,,,,,,,,,,,,,
Date Made:,1/21/2003 12:00 AM,,,,,,,,,,,,
Origin:,Other,,,,,,,,,,,,
Requestor:,Admin,,,,,,,,,,,,
Product ID:,Default product,,,,,,,,,,,,
Storage Temp:,R.T./AMB,,,,,,,,,,,,
Storage Delay:,0 days,,,,,,,,,,,,
Test Temp:,R.T./AMB,,,,,,,,,,,,
Start Time:,4/11/2018 3:31 AM,,,,,,,,,,,,
End Time:,4/11/2018 11:49 AM,,,,,,,,,,,,
Operator Instructions:,,,,,,,,,,,,,
Test,Cell,Rack,Shelf,Position,Cell ID,Step,Total Time (Seconds),Voltage (V),Current (A),Charge Capacity (mAh),Discharge Capacity (mAh),TC1 (Â°C),
1473,1,SBT2050,2,4,,0,1,3.34282,0,0,0,25.1,
1473,1,SBT2050,2,4,,0,40,3.34288,0,0,0,25.1,
1473,1,SBT2050,2,4,,0,79,3.34295,0,0,0,25.1,
1473,1,SBT2050,2,4,,0,118,3.34291,0,0,0,25.1,
1473,1,SBT2050,2,4,,0,157,3.34298,0,0,0,25.1,
1473,1,SBT2050,2,4,,0,196,3.34287,0,0,0,25.1,
1473,1,SBT2050,2,4,,0,235,3.342991,0,0,0,25.1,
1473,1,SBT2050,2,4,,0,274,3.34283,0,0,0,25,
1473,1,SBT2050,2,4,,1,313,2.70506,-2.9363,0,10.601,25.2,
1473,1,SBT2050,2,4,,1,352,2.49966,-1.7255,0,35.407,26.5,
1473,1,SBT2050,2,4,,1,391,2.49977,-1.4245,0,52.254,27.5,
1473,1,SBT2050,2,4,,1,430,2.49986,-1.2436,0,66.658,28.1,
1473,1,SBT2050,2,4,,1,469,2.4998,-1.0934,0,79.314,28.4,
1473,1,SBT2050,2,4,,1,508,2.49981,-0.9596,0,90.408,28.6,
1473,1,SBT2050,2,4,,1,547,2.4998,-0.8539,0,100.213,28.7,
1473,1,SBT2050,2,4,,1,586,2.49987,-0.7669,0,108.983,28.7,
1473,1,SBT2050,2,4,,1,625,2.49983,-0.6938,0,116.887,28.6,
1473,1,SBT2050,2,4,,1,664,2.49993,-0.6289,0,124.042,28.5,
1473,1,SBT2050,2,4,,1,703,2.49985,-0.5718,0,130.539,28.4,
1473,1,SBT2050,2,4,,1,742,2.49993,-0.5219,0,136.459,28.3,
1473,1,SBT2050,2,4,,1,781,2.499751,-0.4786,0,141.872,28.2,
1473,1,SBT2050,2,4,,1,820,2.49993,-0.43913,0,146.832,28,
1473,1,SBT2050,2,4,,1,859,2.49997,-0.40596,0,151.405,27.8,
1473,1,SBT2050,2,4,,1,898,2.49987,-0.37618,0,155.637,27.7,
1473,1,SBT2050,2,4,,1,937,2.49983,-0.35,0,159.569,27.5,
1473,1,SBT2050,2,4,,1,976,2.499739,-0.32651,0,163.233,27.4,
1473,1,SBT2050,2,4,,1,1015,2.4998,-0.30546,0,166.658,27.3,
1473,1,SBT2050,2,4,,1,1054,2.5,-0.2874,0,169.868,27.1,
1473,1,SBT2050,2,4,,1,1093,2.49991,-0.2702,0,172.886,27,
1473,1,SBT2050,2,4,,1,1132,2.499882,-0.25506,0,175.729,26.9,
1473,1,SBT2050,2,4,,1,1171,2.49987,-0.24077,0,178.414,26.8,
1473,1,SBT2050,2,4,,1,1210,2.4998,-0.22838,0,180.954,26.8,
1473,1,SBT2050,2,4,,1,1249,2.5,-0.21629,0,183.361,26.7,
1473,1,SBT2050,2,4,,1,1288,2.499882,-0.20542,0,185.645,26.5,
1473,1,SBT2050,2,4,,1,1327,2.49972,-0.19555,0,187.817,26.4,
1473,1,SBT2050,2,4,,1,1366,2.49979,-0.18623,0,189.885,26.4,
1473,1,SBT2050,2,4,,1,1405,2.49999,-0.17802,0,191.858,26.3,
1473,1,SBT2050,2,4,,1,1444,2.49982,-0.17047,0,193.744,26.2,
1473,1,SBT2050,2,4,,1,1483,2.499739,-0.1629,0,195.549,26.2,
1473,1,SBT2050,2,4,,1,1522,2.50012,-0.15616,0,197.278,26.1,
1473,1,SBT2050,2,4,,1,1561,2.4998,-0.1496,0,198.933,26.1,
1473,1,SBT2050,2,4,,1,1600,2.49991,-0.14331,0,200.519,26,
1473,1,SBT2050,2,4,,1,1639,2.49998,-0.13768,0,202.04,26,
1473,1,SBT2050,2,4,,1,1678,2.49997,-0.13203,0,203.499,25.9,
1473,1,SBT2050,2,4,,1,1717,2.49981,-0.12666,0,204.9,25.9,
1473,1,SBT2050,2,4,,1,1756,2.49998,-0.1219,0,206.246,25.9,
1473,1,SBT2050,2,4,,1,1795,2.500025,-0.11716,0,207.54,25.8,
1473,1,SBT2050,2,4,,1,1834,2.50001,-0.11289,0,208.785,25.8,
1473,1,SBT2050,2,4,,1,1873,2.499894,-0.10864,0,209.984,25.7,
1473,1,SBT2050,2,4,,1,1912,2.49992,-0.1044,0,211.137,25.7,
1473,1,SBT2050,2,4,,1,1951,2.49993,-0.10062,0,212.247,25.7,
1473,1,SBT2050,2,4,,1,1990,2.49992,-0.09667,0,213.316,25.6,
1473,1,SBT2050,2,4,,1,2029,2.49997,-0.09339,0,214.346,25.6,
1473,1,SBT2050,2,4,,1,2068,2.49992,-0.08989,0,215.339,25.6,
1473,1,SBT2050,2,4,,1,2107,2.49991,-0.08678,0,216.296,25.6,
1473,1,SBT2050,2,4,,1,2146,2.49983,-0.08365,0,217.22,25.6,
1473,1,SBT2050,2,4,,1,2185,2.49995,-0.08063,0,218.11,25.5,
1473,1,SBT2050,2,4,,1,2224,2.50011,-0.07771,0,218.967,25.5,
1473,1,SBT2050,2,4,,1,2263,2.49995,-0.07469,0,219.792,25.5,
1473,1,SBT2050,2,4,,1,2302,2.500037,-0.07198,0,220.587,25.5,
1473,1,SBT2050,2,4,,1,2341,2.500037,-0.06967,0,221.352,25.5,
1473,1,SBT2050,2,4,,1,2380,2.49992,-0.0669,0,222.09,25.5,
1473,1,SBT2050,2,4,,1,2419,2.50012,-0.06447,0,222.801,25.4,
1473,1,SBT2050,2,4,,1,2458,2.49998,-0.06222,0,223.486,25.4,
1473,1,SBT2050,2,4,,1,2497,2.49991,-0.05974,0,224.145,25.4,
1473,1,SBT2050,2,4,,1,2536,2.499894,-0.05749,0,224.779,25.4,
1473,1,SBT2050,2,4,,1,2575,2.49997,-0.05526,0,225.39,25.4,
1473,1,SBT2050,2,4,,1,2614,2.49998,-0.05333,0,225.978,25.4,
1473,1,SBT2050,2,4,,1,2653,2.49992,-0.05135,0,226.544,25.4,
1473,1,SBT2050,2,4,,1,2692,2.50001,-0.04942,0,227.09,25.4,
1473,1,SBT2050,2,4,,1,2731,2.49987,-0.04765,0,227.616,25.4,
1473,1,SBT2050,2,4,,1,2770,2.50005,-0.045897,0,228.122,25.3,
1473,1,SBT2050,2,4,,1,2809,2.49997,-0.044166,0,228.61,25.3,
1473,1,SBT2050,2,4,,1,2848,2.50006,-0.042627,0,229.08,25.3,
1473,1,SBT2050,2,4,,1,2887,2.49985,-0.041075,0,229.533,25.3,
1473,1,SBT2050,2,4,,1,2926,2.49968,-0.039541,0,229.97,25.3,
1473,1,SBT2050,2,4,,1,2965,2.500025,-0.038402,0,230.393,25.3,
1473,1,SBT2050,2,4,,1,3004,2.49999,-0.036987,0,230.801,25.3,
1473,1,SBT2050,2,4,,1,3043,2.499894,-0.035774,0,231.196,25.3,
1473,1,SBT2050,2,4,,1,3082,2.49999,-0.034634,0,231.577,25.3,
1473,1,SBT2050,2,4,,1,3121,2.49994,-0.033462,0,231.945,25.3,
1473,1,SBT2050,2,4,,1,3160,2.5001,-0.032071,0,232.301,25.2,
1473,1,SBT2050,2,4,,1,3199,2.49999,-0.031088,0,232.645,25.3,
1473,1,SBT2050,2,4,,1,3238,2.500037,-0.030187,0,232.977,25.3,
1473,1,SBT2050,2,4,,1,3277,2.500192,-0.029174,0,233.298,25.3,
1473,1,SBT2050,2,4,,1,3316,2.49993,-0.028238,0,233.609,25.3,
1473,1,SBT2050,2,4,,1,3355,2.5,-0.027243,0,233.91,25.2,
1473,1,SBT2050,2,4,,1,3394,2.49999,-0.026375,0,234.2,25.2,
1473,1,SBT2050,2,4,,1,3433,2.500037,-0.025139,0,234.479,25.2,
1473,1,SBT2050,2,4,,1,3472,2.499894,-0.024306,0,234.749,25.2,
1473,1,SBT2050,2,4,,1,3511,2.5,-0.023545,0,235.01,25.2,
1473,1,SBT2050,2,4,,1,3550,2.5001,-0.023003,0,235.262,25.2,
1473,1,SBT2050,2,4,,1,3589,2.49994,-0.022133,0,235.505,25.2,
1473,1,SBT2050,2,4,,1,3628,2.49993,-0.021215,0,235.739,25.3,
1473,1,SBT2050,2,4,,1,3667,2.49986,-0.020376,0,235.964,25.2,
1473,1,SBT2050,2,4,,1,3706,2.50007,-0.019697,0,236.181,25.2,
1473,1,SBT2050,2,4,,1,3745,2.50001,-0.01905,0,236.391,25.2,
1473,1,SBT2050,2,4,,1,3784,2.49993,-0.018239,0,236.592,25.2,
1473,1,SBT2050,2,4,,1,3823,2.49995,-0.017661,0,236.787,25.2,
1473,1,SBT2050,2,4,,1,3862,2.5001,-0.01695,0,236.974,25.2,
1473,1,SBT2050,2,4,,1,3901,2.500025,-0.01622,0,237.154,25.2,
1473,1,SBT2050,2,4,,1,3940,2.500037,-0.015633,0,237.327,25.2,
1473,1,SBT2050,2,4,,1,3979,2.49997,-0.014981,0,237.495,25.2,
1473,1,SBT2050,2,4,,1,4018,2.50001,-0.014517,0,237.656,25.2,
1473,1,SBT2050,2,4,,1,4057,2.50011,-0.013977,0,237.811,25.2,
1473,1,SBT2050,2,4,,1,4096,2.50011,-0.013666,0,237.96,25.2,
1473,1,SBT2050,2,4,,1,4135,2.49999,-0.012863,0,238.104,25.2,
1473,1,SBT2050,2,4,,1,4174,2.5001,-0.012563,0,238.242,25.2,
1473,1,SBT2050,2,4,,1,4213,2.5002,-0.012096,0,238.375,25.2,
1473,1,SBT2050,2,4,,1,4252,2.49991,-0.0116,0,238.503,25.2,
1473,1,SBT2050,2,4,,1,4291,2.50008,-0.011125,0,238.626,25.2,
1473,1,SBT2050,2,4,,1,4330,2.50001,-0.010646,0,238.745,25.2,
1473,1,SBT2050,2,4,,1,4369,2.50011,-0.010292,0,238.859,25.2,
1473,1,SBT2050,2,4,,2,4407,3.297724,2.9361,23.426,238.885,25.3,
1473,1,SBT2050,2,4,,2,4446,3.46271,2.936,55.232,238.885,25.5,
1473,1,SBT2050,2,4,,2,4485,3.556982,2.936,87.038,238.885,25.8,
1473,1,SBT2050,2,4,,2,4524,3.607916,2.9357,118.845,238.885,26.1,
1473,1,SBT2050,2,4,,2,4563,3.62154,2.9358,150.651,238.885,26.5,
1473,1,SBT2050,2,4,,2,4602,3.631542,2.9362,182.457,238.885,26.9,
1473,1,SBT2050,2,4,,2,4641,3.64161,2.9359,214.264,238.885,27.3,
1473,1,SBT2050,2,4,,2,4680,3.65238,2.9358,246.07,238.885,27.6,
1473,1,SBT2050,2,4,,2,4719,3.6627,2.9364,277.876,238.885,27.9,
1473,1,SBT2050,2,4,,2,4758,3.67236,2.9364,309.682,238.885,28.1,
1473,1,SBT2050,2,4,,2,4797,3.68163,2.9362,341.489,238.885,28.3,
1473,1,SBT2050,2,4,,2,4836,3.69059,2.936,373.295,238.885,28.5,
1473,1,SBT2050,2,4,,2,4875,3.69873,2.9358,405.101,238.885,28.6,
1473,1,SBT2050,2,4,,2,4914,3.70546,2.9361,436.907,238.885,28.7,
1473,1,SBT2050,2,4,,2,4953,3.71175,2.936,468.713,238.885,28.7,
1473,1,SBT2050,2,4,,2,4992,3.71741,2.9357,500.52,238.885,28.8,
1473,1,SBT2050,2,4,,2,5031,3.72271,2.936,532.326,238.885,28.8,
1473,1,SBT2050,2,4,,2,5070,3.72808,2.9359,564.132,238.885,28.8,
1473,1,SBT2050,2,4,,2,5109,3.73323,2.9362,595.939,238.885,28.9,
1473,1,SBT2050,2,4,,2,5148,3.73976,2.9357,627.745,238.885,28.9,
1473,1,SBT2050,2,4,,2,5187,3.745882,2.9363,659.551,238.885,28.9,
1473,1,SBT2050,2,4,,2,5226,3.75262,2.9357,691.357,238.885,28.8,
1473,1,SBT2050,2,4,,2,5265,3.75894,2.936,723.163,238.885,28.8,
1473,1,SBT2050,2,4,,2,5304,3.76583,2.9362,754.97,238.885,28.8,
1473,1,SBT2050,2,4,,2,5343,3.77245,2.9359,786.776,238.885,28.8,
1473,1,SBT2050,2,4,,2,5382,3.77913,2.936,818.582,238.885,28.8,
1473,1,SBT2050,2,4,,2,5421,3.78589,2.9356,850.388,238.885,28.8,
1473,1,SBT2050,2,4,,2,5460,3.79242,2.936,882.195,238.885,28.8,
1473,1,SBT2050,2,4,,2,5499,3.79937,2.9362,914.001,238.885,28.8,
1473,1,SBT2050,2,4,,2,5538,3.8065,2.936,945.807,238.885,28.8,
1473,1,SBT2050,2,4,,2,5577,3.813512,2.9359,977.613,238.885,28.8,
1473,1,SBT2050,2,4,,2,5616,3.82112,2.936,1009.419,238.885,28.8,
1473,1,SBT2050,2,4,,2,5655,3.82864,2.9359,1041.225,238.885,28.8,
1473,1,SBT2050,2,4,,2,5694,3.83641,2.936,1073.032,238.885,28.8,
1473,1,SBT2050,2,4,,2,5733,3.84427,2.9357,1104.838,238.885,28.9,
1473,1,SBT2050,2,4,,2,5772,3.853324,2.9359,1136.644,238.885,28.8,
1473,1,SBT2050,2,4,,2,5811,3.86194,2.9361,1168.45,238.885,28.9,
1473,1,SBT2050,2,4,,2,5850,3.87101,2.9363,1200.257,238.885,28.9,
1473,1,SBT2050,2,4,,2,5889,3.88029,2.9356,1232.063,238.885,28.9,
1473,1,SBT2050,2,4,,2,5928,3.88991,2.936,1263.869,238.885,28.9,
1473,1,SBT2050,2,4,,2,5967,3.899736,2.936,1295.675,238.885,28.9,
1473,1,SBT2050,2,4,,2,6006,3.90992,2.936,1327.482,238.885,29,
1473,1,SBT2050,2,4,,2,6045,3.92057,2.9359,1359.288,238.885,29,
1473,1,SBT2050,2,4,,2,6084,3.93156,2.936,1391.094,238.885,29,
1473,1,SBT2050,2,4,,2,6123,3.94247,2.9357,1422.901,238.885,29.1,
1473,1,SBT2050,2,4,,2,6162,3.9541,2.936,1454.707,238.885,29.2,
1473,1,SBT2050,2,4,,2,6201,3.96491,2.9355,1486.513,238.885,29.2,
1473,1,SBT2050,2,4,,2,6240,3.97664,2.9359,1518.319,238.885,29.2,
1473,1,SBT2050,2,4,,2,6279,3.98839,2.9367,1550.125,238.885,29.3,
1473,1,SBT2050,2,4,,2,6318,4.00032,2.9361,1581.932,238.885,29.3,
1473,1,SBT2050,2,4,,2,6357,4.01233,2.9362,1613.738,238.885,29.3,
1473,1,SBT2050,2,4,,2,6396,4.02366,2.9357,1645.544,238.885,29.4,
1473,1,SBT2050,2,4,,2,6435,4.03636,2.936,1677.35,238.885,29.4,
1473,1,SBT2050,2,4,,2,6474,4.04806,2.9358,1709.157,238.885,29.5,
1473,1,SBT2050,2,4,,2,6513,4.05989,2.936,1740.963,238.885,29.5,
1473,1,SBT2050,2,4,,2,6552,4.07205,2.9362,1772.769,238.885,29.5,
1473,1,SBT2050,2,4,,2,6591,4.08354,2.9361,1804.575,238.885,29.5,
1473,1,SBT2050,2,4,,2,6630,4.09634,2.936,1836.382,238.885,29.6,
1473,1,SBT2050,2,4,,2,6669,4.108512,2.9357,1868.188,238.885,29.6,
1473,1,SBT2050,2,4,,2,6708,4.1212,2.9364,1899.994,238.885,29.6,
1473,1,SBT2050,2,4,,2,6747,4.13355,2.9357,1931.801,238.885,29.6,
1473,1,SBT2050,2,4,,2,6786,4.14622,2.9359,1963.607,238.885,29.7,
1473,1,SBT2050,2,4,,2,6825,4.15017,2.7736,1994.754,238.885,29.7,
1473,1,SBT2050,2,4,,2,6864,4.150132,2.6095,2023.901,238.885,29.6,
1473,1,SBT2050,2,4,,2,6903,4.15007,2.464,2051.385,238.885,29.6,
1473,1,SBT2050,2,4,,2,6942,4.150096,2.3288,2077.333,238.885,29.5,
1473,1,SBT2050,2,4,,2,6981,4.14998,2.2016,2101.848,238.885,29.4,
1473,1,SBT2050,2,4,,2,7020,4.15023,2.0768,2125.02,238.885,29.2,
1473,1,SBT2050,2,4,,2,7059,4.15006,1.9636,2146.906,238.885,29,
1473,1,SBT2050,2,4,,2,7098,4.1502,1.8527,2167.585,238.885,28.8,
1473,1,SBT2050,2,4,,2,7137,4.15031,1.7503,2187.114,238.885,28.7,
1473,1,SBT2050,2,4,,2,7176,4.15014,1.6551,2205.551,238.885,28.5,
1473,1,SBT2050,2,4,,2,7215,4.1503,1.5638,2222.974,238.885,28.3,
1473,1,SBT2050,2,4,,2,7254,4.150132,1.4814,2239.465,238.885,28.2,
1473,1,SBT2050,2,4,,2,7293,4.14989,1.4051,2255.091,238.885,27.9,
1473,1,SBT2050,2,4,,2,7332,4.15004,1.3311,2269.906,238.885,27.8,
1473,1,SBT2050,2,4,,2,7371,4.15017,1.2653,2283.964,238.885,27.6,
1473,1,SBT2050,2,4,,2,7410,4.14993,1.2006,2297.311,238.885,27.5,
1473,1,SBT2050,2,4,,2,7449,4.15031,1.1412,2310.008,238.885,27.3,
1473,1,SBT2050,2,4,,2,7488,4.14993,1.0887,2322.088,238.885,27.2,
1473,1,SBT2050,2,4,,2,7527,4.15005,1.0369,2333.592,238.885,27.1,
1473,1,SBT2050,2,4,,2,7566,4.15006,0.9894,2344.565,238.885,27,
1473,1,SBT2050,2,4,,2,7605,4.14992,0.9451,2355.044,238.885,26.9,
1473,1,SBT2050,2,4,,2,7644,4.15022,0.9042,2365.055,238.885,26.7,
1473,1,SBT2050,2,4,,2,7683,4.15005,0.8658,2374.633,238.885,26.6,
1473,1,SBT2050,2,4,,2,7722,4.14999,0.8278,2383.801,238.885,26.5,
1473,1,SBT2050,2,4,,2,7761,4.1502,0.7943,2392.585,238.885,26.4,
1473,1,SBT2050,2,4,,2,7800,4.14997,0.7638,2401.02,238.885,26.4,
1473,1,SBT2050,2,4,,2,7839,4.14995,0.7332,2409.119,238.885,26.3,
1473,1,SBT2050,2,4,,2,7878,4.15012,0.7036,2416.897,238.885,26.3,
1473,1,SBT2050,2,4,,2,7917,4.150096,0.6769,2424.384,238.885,26.2,
1473,1,SBT2050,2,4,,2,7956,4.14987,0.6517,2431.577,238.885,26.1,
1473,1,SBT2050,2,4,,2,7995,4.15004,0.6276,2438.511,238.885,26.1,
1473,1,SBT2050,2,4,,2,8034,4.14979,0.6055,2445.187,238.885,26,
1473,1,SBT2050,2,4,,2,8073,4.15019,0.5846,2451.631,238.885,25.9,
1473,1,SBT2050,2,4,,2,8112,4.15002,0.5662,2457.858,238.885,25.9,
1473,1,SBT2050,2,4,,2,8151,4.15002,0.5456,2463.876,238.885,25.8,
1473,1,SBT2050,2,4,,2,8190,4.14991,0.5274,2469.688,238.885,25.8,
1473,1,SBT2050,2,4,,2,8229,4.14963,0.5108,2475.309,238.885,25.8,
1473,1,SBT2050,2,4,,2,8268,4.15006,0.4938,2480.743,238.885,25.7,
1473,1,SBT2050,2,4,,2,8307,4.15001,0.4776,2486.008,238.885,25.7,
1473,1,SBT2050,2,4,,2,8346,4.14992,0.46376,2491.104,238.885,25.7,
1473,1,SBT2050,2,4,,2,8385,4.15017,0.44824,2496.053,238.885,25.7,
1473,1,SBT2050,2,4,,2,8424,4.14993,0.4354,2500.844,238.885,25.6,
1473,1,SBT2050,2,4,,2,8463,4.150084,0.42355,2505.497,238.885,25.6,
1473,1,SBT2050,2,4,,2,8502,4.14998,0.41113,2510.015,238.885,25.6,
1473,1,SBT2050,2,4,,2,8541,4.15036,0.399,2514.4,238.885,25.6,
1473,1,SBT2050,2,4,,2,8580,4.14989,0.38877,2518.662,238.885,25.6,
1473,1,SBT2050,2,4,,2,8619,4.15026,0.37699,2522.806,238.885,25.6,
1473,1,SBT2050,2,4,,2,8658,4.150406,0.36646,2526.835,238.885,25.5,
1473,1,SBT2050,2,4,,2,8697,4.15025,0.35654,2530.753,238.885,25.5,
1473,1,SBT2050,2,4,,2,8736,4.149822,0.34674,2534.566,238.885,25.5,
1473,1,SBT2050,2,4,,2,8775,4.150132,0.33911,2538.282,238.885,25.5,
1473,1,SBT2050,2,4,,2,8814,4.14975,0.33091,2541.905,238.885,25.5,
1473,1,SBT2050,2,4,,2,8853,4.15016,0.32121,2545.433,238.885,25.4,
1473,1,SBT2050,2,4,,2,8892,4.149834,0.31254,2548.864,238.885,25.4,
1473,1,SBT2050,2,4,,2,8931,4.14994,0.3055,2552.209,238.885,25.4,
1473,1,SBT2050,2,4,,2,8970,4.15006,0.29705,2555.475,238.885,25.4,
1473,1,SBT2050,2,4,,2,9009,4.14994,0.29068,2558.657,238.885,25.4,
1473,1,SBT2050,2,4,,2,9048,4.15,0.28334,2561.766,238.885,25.4,
1473,1,SBT2050,2,4,,2,9087,4.15027,0.2769,2564.801,238.885,25.4,
1473,1,SBT2050,2,4,,2,9126,4.14997,0.27069,2567.765,238.885,25.4,
1473,1,SBT2050,2,4,,2,9165,4.14993,0.26442,2570.659,238.885,25.3,
1473,1,SBT2050,2,4,,2,9204,4.15017,0.25842,2573.495,238.885,25.3,
1473,1,SBT2050,2,4,,2,9243,4.15014,0.25262,2576.264,238.885,25.4,
1473,1,SBT2050,2,4,,2,9282,4.14994,0.24723,2578.972,238.885,25.3,
1473,1,SBT2050,2,4,,2,9321,4.150096,0.24205,2581.619,238.885,25.3,
1473,1,SBT2050,2,4,,2,9360,4.14993,0.23565,2584.203,238.885,25.3,
1473,1,SBT2050,2,4,,2,9399,4.15006,0.23061,2586.73,238.885,25.3,
1473,1,SBT2050,2,4,,2,9438,4.15007,0.22651,2589.208,238.885,25.3,
1473,1,SBT2050,2,4,,2,9477,4.150084,0.22137,2591.638,238.885,25.3,
1473,1,SBT2050,2,4,,2,9516,4.150084,0.21689,2594.011,238.885,25.3,
1473,1,SBT2050,2,4,,2,9555,4.150096,0.21273,2596.339,238.885,25.3,
1473,1,SBT2050,2,4,,2,9594,4.150132,0.20834,2598.621,238.885,25.3,
1473,1,SBT2050,2,4,,2,9633,4.14994,0.20344,2600.854,238.885,25.3,
1473,1,SBT2050,2,4,,2,9672,4.15017,0.19891,2603.034,238.885,25.2,
1473,1,SBT2050,2,4,,2,9711,4.15004,0.19542,2605.173,238.885,25.3,
1473,1,SBT2050,2,4,,2,9750,4.14976,0.19148,2607.267,238.885,25.3,
1473,1,SBT2050,2,4,,2,9789,4.1502,0.18743,2609.32,238.885,25.2,
1473,1,SBT2050,2,4,,2,9828,4.150132,0.18419,2611.336,238.885,25.2,
1473,1,SBT2050,2,4,,2,9867,4.150132,0.18058,2613.312,238.885,25.2,
1473,1,SBT2050,2,4,,2,9906,4.15023,0.17725,2615.251,238.885,25.2,
1473,1,SBT2050,2,4,,2,9945,4.15005,0.17467,2617.154,238.885,25.2,
1473,1,SBT2050,2,4,,2,9984,4.14994,0.17159,2619.027,238.885,25.2,
1473,1,SBT2050,2,4,,2,10023,4.15004,0.16709,2620.862,238.885,25.2,
1473,1,SBT2050,2,4,,2,10062,4.15005,0.16389,2622.654,238.885,25.2,
1473,1,SBT2050,2,4,,2,10101,4.15027,0.16127,2624.414,238.885,25.2,
1473,1,SBT2050,2,4,,2,10140,4.15025,0.15831,2626.148,238.885,25.2,
1473,1,SBT2050,2,4,,2,10179,4.15001,0.1559,2627.849,238.885,25.2,
1473,1,SBT2050,2,4,,2,10218,4.150096,0.15281,2629.525,238.885,25.2,
1473,1,SBT2050,2,4,,2,10257,4.14992,0.15002,2631.164,238.885,25.2,
1473,1,SBT2050,2,4,,2,10296,4.14995,0.14749,2632.775,238.885,25.2,
1473,1,SBT2050,2,4,,2,10335,4.14989,0.14482,2634.357,238.885,25.2,
1473,1,SBT2050,2,4,,2,10374,4.149822,0.14218,2635.911,238.885,25.2,
1473,1,SBT2050,2,4,,2,10413,4.1502,0.13891,2637.438,238.885,25.2,
1473,1,SBT2050,2,4,,2,10452,4.15,0.13741,2638.932,238.885,25.2,
1473,1,SBT2050,2,4,,2,10491,4.15006,0.13416,2640.402,238.885,25.2,
1473,1,SBT2050,2,4,,2,10530,4.14979,0.13238,2641.848,238.885,25.2,
1473,1,SBT2050,2,4,,2,10569,4.14987,0.12994,2643.268,238.885,25.2,
1473,1,SBT2050,2,4,,2,10608,4.14991,0.12768,2644.662,238.885,25.2,
1473,1,SBT2050,2,4,,2,10647,4.15012,0.12672,2646.038,238.885,25.2,
1473,1,SBT2050,2,4,,2,10686,4.15017,0.12364,2647.396,238.885,25.2,
1473,1,SBT2050,2,4,,2,10725,4.14981,0.12176,2648.721,238.885,25.2,
1473,1,SBT2050,2,4,,2,10764,4.15036,0.11905,2650.027,238.885,25.2,
1473,1,SBT2050,2,4,,2,10803,4.15004,0.11741,2651.308,238.885,25.2,
1473,1,SBT2050,2,4,,2,10842,4.14988,0.11553,2652.571,238.885,25.2,
1473,1,SBT2050,2,4,,2,10881,4.15001,0.11422,2653.816,238.885,25.2,
1473,1,SBT2050,2,4,,2,10920,4.14998,0.11199,2655.04,238.885,25.1,
1473,1,SBT2050,2,4,,2,10959,4.14979,0.11081,2656.245,238.885,25.2,
1473,1,SBT2050,2,4,,2,10998,4.1502,0.10865,2657.438,238.885,25.2,
1473,1,SBT2050,2,4,,2,11037,4.15014,0.10661,2658.603,238.885,25.2,
1473,1,SBT2050,2,4,,2,11076,4.14988,0.10456,2659.745,238.885,25.2,
1473,1,SBT2050,2,4,,2,11115,4.15005,0.10335,2660.873,238.885,25.2,
1473,1,SBT2050,2,4,,2,11154,4.15004,0.10157,2661.981,238.885,25.2,
1473,1,SBT2050,2,4,,2,11193,4.15017,0.0996,2663.077,238.885,25.2,
1473,1,SBT2050,2,4,,2,11232,4.14979,0.09812,2664.147,238.885,25.2,
1473,1,SBT2050,2,4,,2,11271,4.14986,0.097,2665.204,238.885,25.1,
1473,1,SBT2050,2,4,,2,11310,4.15014,0.0954,2666.248,238.885,25.2,
1473,1,SBT2050,2,4,,2,11349,4.15001,0.09413,2667.273,238.885,25.2,
1473,1,SBT2050,2,4,,2,11388,4.15016,0.0921,2668.288,238.885,25.2,
1473,1,SBT2050,2,4,,2,11427,4.150084,0.09101,2669.282,238.885,25.2,
1473,1,SBT2050,2,4,,2,11466,4.14987,0.08987,2670.261,238.885,25.2,
1473,1,SBT2050,2,4,,2,11505,4.149834,0.08842,2671.226,238.885,25.2,
1473,1,SBT2050,2,4,,2,11544,4.15005,0.08699,2672.176,238.885,25.1,
1473,1,SBT2050,2,4,,2,11583,4.15005,0.08582,2673.111,238.885,25.1,
1473,1,SBT2050,2,4,,2,11622,4.15,0.08425,2674.037,238.885,25.1,
1473,1,SBT2050,2,4,,2,11661,4.15016,0.08297,2674.943,238.885,25.1,
1473,1,SBT2050,2,4,,2,11700,4.14999,0.0819,2675.838,238.885,25.1,
1473,1,SBT2050,2,4,,2,11739,4.14992,0.08044,2676.716,238.885,25.1,
1473,1,SBT2050,2,4,,2,11778,4.14989,0.07999,2677.584,238.885,25.2,
1473,1,SBT2050,2,4,,2,11817,4.149846,0.07874,2678.442,238.885,25.2,
1473,1,SBT2050,2,4,,2,11856,4.15002,0.07679,2679.283,238.885,25.2,
1473,1,SBT2050,2,4,,2,11895,4.15014,0.07586,2680.112,238.885,25.1,
1473,1,SBT2050,2,4,,2,11934,4.15027,0.07506,2680.931,238.885,25.1,
1473,1,SBT2050,2,4,,2,11973,4.14997,0.07409,2681.738,238.885,25.1,
1473,1,SBT2050,2,4,,2,12012,4.14992,0.07345,2682.535,238.885,25.1,
1473,1,SBT2050,2,4,,2,12051,4.14994,0.07223,2683.324,238.885,25.1,
1473,1,SBT2050,2,4,,2,12090,4.14991,0.07127,2684.1,238.885,25.1,
1473,1,SBT2050,2,4,,2,12129,4.15017,0.07009,2684.867,238.885,25.1,
1473,1,SBT2050,2,4,,2,12168,4.14999,0.06878,2685.617,238.885,25.2,
1473,1,SBT2050,2,4,,2,12207,4.14994,0.06766,2686.358,238.885,25.1,
1473,1,SBT2050,2,4,,2,12246,4.14977,0.06727,2687.084,238.885,25.2,
1473,1,SBT2050,2,4,,2,12285,4.14988,0.06616,2687.809,238.885,25.1,
1473,1,SBT2050,2,4,,2,12324,4.14987,0.06584,2688.523,238.885,25.1,
1473,1,SBT2050,2,4,,2,12363,4.15033,0.06436,2689.228,238.885,25.2,
1473,1,SBT2050,2,4,,2,12402,4.15002,0.0636,2689.921,238.885,25.1,
1473,1,SBT2050,2,4,,2,12441,4.15007,0.06334,2690.606,238.885,25.1,
1473,1,SBT2050,2,4,,2,12480,4.15018,0.06172,2691.283,238.885,25.1,
1473,1,SBT2050,2,4,,2,12519,4.149834,0.06127,2691.949,238.885,25.1,
1473,1,SBT2050,2,4,,2,12558,4.14993,0.06021,2692.608,238.885,25.2,
1473,1,SBT2050,2,4,,2,12597,4.149846,0.05977,2693.255,238.885,25.1,
1473,1,SBT2050,2,4,,2,12636,4.14991,0.05867,2693.893,238.885,25.1,
1473,1,SBT2050,2,4,,2,12675,4.14987,0.05845,2694.524,238.885,25.1,
1473,1,SBT2050,2,4,,2,12714,4.14998,0.05685,2695.149,238.885,25.1,
1473,1,SBT2050,2,4,,2,12753,4.15012,0.0564,2695.762,238.885,25.2,
1473,1,SBT2050,2,4,,2,12792,4.15,0.05508,2696.365,238.885,25.2,
1473,1,SBT2050,2,4,,2,12831,4.14999,0.05523,2696.963,238.885,25.2,
1473,1,SBT2050,2,4,,2,12870,4.14988,0.05478,2697.554,238.885,25.1,
1473,1,SBT2050,2,4,,2,12909,4.14981,0.05401,2698.143,238.885,25.2,
1473,1,SBT2050,2,4,,2,12948,4.14993,0.05325,2698.719,238.885,25.2,
1473,1,SBT2050,2,4,,2,12987,4.15001,0.05188,2699.293,238.885,25.1,
1473,1,SBT2050,2,4,,2,13026,4.15029,0.05123,2699.851,238.885,25.1,
1473,1,SBT2050,2,4,,2,13065,4.15002,0.05075,2700.403,238.885,25.1,
1473,1,SBT2050,2,4,,2,13104,4.14987,0.05012,2700.95,238.885,25.1,
1473,1,SBT2050,2,4,,2,13143,4.14998,0.04921,2701.49,238.885,25.1,
1473,1,SBT2050,2,4,,2,13182,4.149834,0.04865,2702.02,238.885,25.2,
1473,1,SBT2050,2,4,,2,13221,4.15004,0.04905,2702.548,238.885,25.2,
1473,1,SBT2050,2,4,,2,13260,4.15,0.04812,2703.072,238.885,25.2,
1473,1,SBT2050,2,4,,2,13299,4.14991,0.047183,2703.586,238.885,25.2,
1473,1,SBT2050,2,4,,2,13338,4.14992,0.046895,2704.095,238.885,25.2,
1473,1,SBT2050,2,4,,2,13377,4.150108,0.045854,2704.595,238.885,25.1,
1473,1,SBT2050,2,4,,2,13416,4.15,0.045267,2705.092,238.885,25.1,
1473,1,SBT2050,2,4,,2,13455,4.15006,0.045176,2705.582,238.885,25.2,
1473,1,SBT2050,2,4,,2,13494,4.15027,0.044692,2706.068,238.885,25.1,
1473,1,SBT2050,2,4,,2,13533,4.14989,0.043851,2706.548,238.885,25.2,
1473,1,SBT2050,2,4,,2,13572,4.149822,0.0434,2707.02,238.885,25.2,
1473,1,SBT2050,2,4,,2,13611,4.150084,0.04263,2707.486,238.885,25.2,
1473,1,SBT2050,2,4,,2,13650,4.15007,0.042191,2707.947,238.885,25.1,
1473,1,SBT2050,2,4,,2,13689,4.14995,0.041906,2708.407,238.885,25.1,
1473,1,SBT2050,2,4,,2,13728,4.14986,0.040857,2708.853,238.885,25.1,
1473,1,SBT2050,2,4,,2,13767,4.15014,0.040524,2709.296,238.885,25.1,
1473,1,SBT2050,2,4,,2,13806,4.15001,0.040961,2709.736,238.885,25.1,
1473,1,SBT2050,2,4,,2,13845,4.15006,0.039531,2710.173,238.885,25.1,
1473,1,SBT2050,2,4,,2,13884,4.15001,0.038956,2710.6,238.885,25.2,
1473,1,SBT2050,2,4,,2,13923,4.149834,0.038917,2711.024,238.885,25.1,
1473,1,SBT2050,2,4,,2,13962,4.15005,0.0386,2711.442,238.885,25.1,
1473,1,SBT2050,2,4,,2,14001,4.149834,0.037775,2711.858,238.885,25.1,
1473,1,SBT2050,2,4,,2,14040,4.150108,0.037132,2712.262,238.885,25.1,
1473,1,SBT2050,2,4,,2,14079,4.15014,0.036828,2712.664,238.885,25.1,
1473,1,SBT2050,2,4,,2,14118,4.150132,0.035992,2713.062,238.885,25.1,
1473,1,SBT2050,2,4,,2,14157,4.15,0.03622,2713.454,238.885,25.1,
1473,1,SBT2050,2,4,,2,14196,4.15014,0.036137,2713.846,238.885,25.1,
1473,1,SBT2050,2,4,,2,14235,4.14986,0.036079,2714.235,238.885,25.1,
1473,1,SBT2050,2,4,,2,14274,4.15005,0.035466,2714.625,238.885,25.1,
1473,1,SBT2050,2,4,,2,14313,4.15007,0.034902,2715.002,238.885,25.1,
1473,1,SBT2050,2,4,,2,14352,4.14998,0.034007,2715.375,238.885,25.1,
1473,1,SBT2050,2,4,,2,14391,4.150132,0.033405,2715.744,238.885,25.1,
1473,1,SBT2050,2,4,,2,14430,4.15002,0.033203,2716.107,238.885,25.1,
1473,1,SBT2050,2,4,,2,14469,4.15,0.032995,2716.466,238.885,25.1,
1473,1,SBT2050,2,4,,2,14508,4.14999,0.032812,2716.821,238.885,25.1,
1473,1,SBT2050,2,4,,2,14547,4.15002,0.03261,2717.169,238.885,25.1,
1473,1,SBT2050,2,4,,2,14586,4.14998,0.031595,2717.516,238.885,25.1,
1473,1,SBT2050,2,4,,2,14625,4.15016,0.032128,2717.861,238.885,25.1,
1473,1,SBT2050,2,4,,2,14664,4.15017,0.030673,2718.202,238.885,25.1,
1473,1,SBT2050,2,4,,2,14703,4.14995,0.030488,2718.535,238.885,25.1,
1473,1,SBT2050,2,4,,2,14742,4.15001,0.030749,2718.869,238.885,25.2,
1473,1,SBT2050,2,4,,2,14781,4.14995,0.029982,2719.196,238.885,25.1,
1473,1,SBT2050,2,4,,2,14820,4.15026,0.029768,2719.523,238.885,25.1,
1473,1,SBT2050,2,4,,2,14859,4.15001,0.03005,2719.846,238.885,25.1,
1473,1,SBT2050,2,4,,2,14898,4.150108,0.030083,2720.169,238.885,25.1,
1473,1,SBT2050,2,4,,2,14937,4.15,0.029261,2720.489,238.885,25.1,
1473,1,SBT2050,2,4,,2,14976,4.14991,0.02816,2720.803,238.885,25.1,
1473,1,SBT2050,2,4,,2,15015,4.150132,0.027969,2721.108,238.885,25.1,
1473,1,SBT2050,2,4,,2,15054,4.15016,0.028154,2721.412,238.885,25.1,
1473,1,SBT2050,2,4,,2,15093,4.14999,0.027734,2721.714,238.885,25.1,
1473,1,SBT2050,2,4,,2,15132,4.15001,0.027623,2722.013,238.885,25.1,
1473,1,SBT2050,2,4,,2,15171,4.14974,0.027876,2722.312,238.885,25.1,
1473,1,SBT2050,2,4,,2,15210,4.14988,0.027233,2722.613,238.885,25.1,
1473,1,SBT2050,2,4,,2,15249,4.15004,0.026798,2722.903,238.885,25.1,
1473,1,SBT2050,2,4,,2,15288,4.15024,0.027355,2723.198,238.885,25.1,
1473,1,SBT2050,2,4,,2,15327,4.14999,0.026564,2723.485,238.885,25.1,
1473,1,SBT2050,2,4,,2,15366,4.14964,0.026044,2723.771,238.885,25.1,
1473,1,SBT2050,2,4,,2,15405,4.15012,0.026028,2724.054,238.885,25.1,
1473,1,SBT2050,2,4,,2,15444,4.150084,0.025457,2724.333,238.885,25.1,
1473,1,SBT2050,2,4,,2,15483,4.14993,0.024841,2724.608,238.885,25.1,
1473,1,SBT2050,2,4,,2,15522,4.14988,0.025017,2724.878,238.885,25.1,
1473,1,SBT2050,2,4,,2,15561,4.150084,0.02462,2725.146,238.885,25.1,
1473,1,SBT2050,2,4,,2,15600,4.14995,0.024324,2725.411,238.885,25.1,
1473,1,SBT2050,2,4,,2,15639,4.15005,0.024151,2725.676,238.885,25.1,
1473,1,SBT2050,2,4,,2,15678,4.15018,0.023936,2725.938,238.885,25.1,
1473,1,SBT2050,2,4,,2,15717,4.15002,0.023915,2726.197,238.885,25.1,
1473,1,SBT2050,2,4,,2,15756,4.150084,0.023507,2726.453,238.885,25.1,
1473,1,SBT2050,2,4,,2,15795,4.14998,0.023079,2726.707,238.885,25.1,
1473,1,SBT2050,2,4,,2,15834,4.149834,0.022926,2726.957,238.885,25.1,
1473,1,SBT2050,2,4,,2,15873,4.15002,0.022541,2727.204,238.885,25.1,
1473,1,SBT2050,2,4,,2,15912,4.15,0.022445,2727.447,238.885,25.1,
1473,1,SBT2050,2,4,,2,15951,4.14998,0.022251,2727.69,238.885,25.1,
1473,1,SBT2050,2,4,,2,15990,4.14992,0.022222,2727.929,238.885,25.1,
1473,1,SBT2050,2,4,,2,16029,4.15007,0.022401,2728.174,238.885,25.1,
1473,1,SBT2050,2,4,,2,16068,4.150132,0.021279,2728.406,238.885,25.1,
1473,1,SBT2050,2,4,,2,16107,4.14988,0.021611,2728.639,238.885,25.1,
1473,1,SBT2050,2,4,,2,16146,4.14986,0.021215,2728.873,238.885,25.1,
1473,1,SBT2050,2,4,,2,16185,4.14991,0.02126,2729.107,238.885,25.1,
1473,1,SBT2050,2,4,,2,16224,4.14979,0.02118,2729.333,238.885,25.1,
1473,1,SBT2050,2,4,,2,16263,4.15026,0.020487,2729.559,238.885,25.1,
1473,1,SBT2050,2,4,,2,16302,4.14988,0.021496,2729.787,238.885,25.1,
1473,1,SBT2050,2,4,,2,16341,4.14998,0.020658,2730.015,238.885,25.1,
1473,1,SBT2050,2,4,,2,16380,4.15014,0.019745,2730.24,238.885,25.1,
1473,1,SBT2050,2,4,,2,16419,4.15018,0.019415,2730.452,238.885,25.1,
1473,1,SBT2050,2,4,,2,16458,4.14993,0.019536,2730.664,238.885,25.1,
1473,1,SBT2050,2,4,,2,16497,4.150108,0.019804,2730.877,238.885,25.1,
1473,1,SBT2050,2,4,,2,16536,4.14997,0.019639,2731.088,238.885,25.1,
1473,1,SBT2050,2,4,,2,16575,4.14992,0.018993,2731.301,238.885,25.1,
1473,1,SBT2050,2,4,,2,16614,4.14992,0.019137,2731.509,238.885,25.1,
1473,1,SBT2050,2,4,,2,16653,4.14994,0.019063,2731.715,238.885,25.1,
1473,1,SBT2050,2,4,,2,16692,4.150096,0.01899,2731.918,238.885,25.1,
1473,1,SBT2050,2,4,,2,16731,4.14992,0.018858,2732.12,238.885,25.1,
1473,1,SBT2050,2,4,,2,16770,4.14994,0.018154,2732.318,238.885,25.1,
1473,1,SBT2050,2,4,,2,16809,4.14977,0.01818,2732.517,238.885,25.1,
1473,1,SBT2050,2,4,,2,16848,4.14976,0.018213,2732.716,238.885,25.1,
1473,1,SBT2050,2,4,,2,16887,4.14997,0.018201,2732.914,238.885,25.1,
1473,1,SBT2050,2,4,,2,16926,4.14997,0.017866,2733.111,238.885,25.1,
1473,1,SBT2050,2,4,,2,16965,4.14991,0.017376,2733.305,238.885,25.1,
1473,1,SBT2050,2,4,,2,17004,4.150084,0.017438,2733.496,238.885,25.1,
1473,1,SBT2050,2,4,,2,17043,4.14988,0.017531,2733.686,238.885,25.1,
1473,1,SBT2050,2,4,,2,17082,4.15001,0.017479,2733.876,238.885,25.1,
1473,1,SBT2050,2,4,,2,17121,4.14987,0.017079,2734.064,238.885,25.1,
1473,1,SBT2050,2,4,,2,17160,4.15007,0.016874,2734.25,238.885,25.1,
1473,1,SBT2050,2,4,,2,17199,4.14992,0.016765,2734.433,238.885,25.1,
1473,1,SBT2050,2,4,,2,17238,4.1502,0.016589,2734.613,238.885,25.1,
1473,1,SBT2050,2,4,,2,17277,4.150096,0.016765,2734.793,238.885,25.1,
1473,1,SBT2050,2,4,,2,17316,4.15001,0.016446,2734.972,238.885,25.1,
1473,1,SBT2050,2,4,,2,17355,4.15025,0.016366,2735.15,238.885,25.1,
1473,1,SBT2050,2,4,,2,17394,4.15,0.015459,2735.327,238.885,25.1,
1473,1,SBT2050,2,4,,2,17433,4.14995,0.016956,2735.503,238.885,25.1,
1473,1,SBT2050,2,4,,2,17472,4.150084,0.015359,2735.678,238.885,25.2,
1473,1,SBT2050,2,4,,2,17511,4.15004,0.015598,2735.846,238.885,25.2,
1473,1,SBT2050,2,4,,2,17550,4.14993,0.015746,2736.014,238.885,25.1,
1473,1,SBT2050,2,4,,2,17589,4.150084,0.015401,2736.183,238.885,25.1,
1473,1,SBT2050,2,4,,2,17628,4.14988,0.015319,2736.35,238.885,25.1,
1473,1,SBT2050,2,4,,2,17667,4.150096,0.014889,2736.515,238.885,25.1,
1473,1,SBT2050,2,4,,2,17706,4.15001,0.015242,2736.678,238.885,25.1,
1473,1,SBT2050,2,4,,2,17745,4.15016,0.015432,2736.84,238.885,25.1,
1473,1,SBT2050,2,4,,2,17784,4.14993,0.015774,2737.008,238.885,25.1,
1473,1,SBT2050,2,4,,2,17823,4.14986,0.01488,2737.173,238.885,25.2,
1473,1,SBT2050,2,4,,2,17862,4.14994,0.014796,2737.331,238.885,25.1,
1473,1,SBT2050,2,4,,2,17901,4.149822,0.014238,2737.489,238.885,25.1,
1473,1,SBT2050,2,4,,2,17940,4.15005,0.014162,2737.644,238.885,25.1,
1473,1,SBT2050,2,4,,2,17979,4.15006,0.01417,2737.801,238.885,25.1,
1473,1,SBT2050,2,4,,2,18018,4.14999,0.014493,2737.955,238.885,25.1,
1473,1,SBT2050,2,4,,2,18057,4.14997,0.014162,2738.11,238.885,25.1,
1473,1,SBT2050,2,4,,2,18096,4.14999,0.014047,2738.263,238.885,25.1,
1473,1,SBT2050,2,4,,2,18135,4.14974,0.014003,2738.413,238.885,25.2,
1473,1,SBT2050,2,4,,2,18174,4.15018,0.013513,2738.563,238.885,25.1,
1473,1,SBT2050,2,4,,2,18213,4.14969,0.013889,2738.709,238.885,25.1,
1473,1,SBT2050,2,4,,2,18252,4.15007,0.013372,2738.857,238.885,25.2,
1473,1,SBT2050,2,4,,2,18291,4.15019,0.013693,2739.002,238.885,25.1,
1473,1,SBT2050,2,4,,2,18330,4.15032,0.01327,2739.148,238.885,25.1,
1473,1,SBT2050,2,4,,2,18369,4.15001,0.013179,2739.29,238.885,25.1,
1473,1,SBT2050,2,4,,2,18408,4.14986,0.013064,2739.434,238.885,25.1,
1473,1,SBT2050,2,4,,2,18447,4.14999,0.013244,2739.574,238.885,25.1,
1473,1,SBT2050,2,4,,2,18486,4.15007,0.012949,2739.716,238.885,25.1,
1473,1,SBT2050,2,4,,2,18525,4.15016,0.012745,2739.858,238.885,25.1,
1473,1,SBT2050,2,4,,2,18564,4.14969,0.013348,2739.999,238.885,25.1,
1473,1,SBT2050,2,4,,2,18603,4.149846,0.012826,2740.136,238.885,25.1,
1473,1,SBT2050,2,4,,2,18642,4.14988,0.012024,2740.272,238.885,25.1,
1473,1,SBT2050,2,4,,2,18681,4.14995,0.01225,2740.405,238.885,25.1,
1473,1,SBT2050,2,4,,2,18720,4.15012,0.012058,2740.54,238.885,25.1,
1473,1,SBT2050,2,4,,2,18759,4.15006,0.011851,2740.671,238.885,25.1,
1473,1,SBT2050,2,4,,2,18798,4.15004,0.012092,2740.802,238.885,25.1,
1473,1,SBT2050,2,4,,2,18837,4.15002,0.012049,2740.932,238.885,25.1,
1473,1,SBT2050,2,4,,2,18876,4.14986,0.011967,2741.064,238.885,25.2,
1473,1,SBT2050,2,4,,2,18915,4.149822,0.011755,2741.192,238.885,25.1,
1473,1,SBT2050,2,4,,2,18954,4.15019,0.01171,2741.319,238.885,25.1,
1473,1,SBT2050,2,4,,2,18993,4.14987,0.011274,2741.446,238.885,25.1,
1473,1,SBT2050,2,4,,2,19032,4.14997,0.011473,2741.573,238.885,25.1,
1473,1,SBT2050,2,4,,2,19071,4.14994,0.011546,2741.698,238.885,25.1,
1473,1,SBT2050,2,4,,2,19110,4.15004,0.011499,2741.821,238.885,25.1,
1473,1,SBT2050,2,4,,2,19149,4.15017,0.011324,2741.945,238.885,25.1,
1473,1,SBT2050,2,4,,2,19188,4.14999,0.011148,2742.071,238.885,25.1,
1473,1,SBT2050,2,4,,2,19227,4.14975,0.011182,2742.191,238.885,25.1,
1473,1,SBT2050,2,4,,2,19266,4.14998,0.010884,2742.311,238.885,25.1,
1473,1,SBT2050,2,4,,2,19305,4.150084,0.011262,2742.434,238.885,25.1,
1473,1,SBT2050,2,4,,2,19344,4.15,0.011156,2742.553,238.885,25.1,
1473,1,SBT2050,2,4,,2,19383,4.149798,0.010645,2742.671,238.885,25.1,
1473,1,SBT2050,2,4,,2,19422,4.150394,0.010809,2742.788,238.885,25.1,
1473,1,SBT2050,2,4,,2,19461,4.14999,0.010619,2742.902,238.885,25.1,
1473,1,SBT2050,2,4,,2,19500,4.14994,0.011047,2743.017,238.885,25.1,
1473,1,SBT2050,2,4,,3,19538,4.1478,0,2743.05,238.885,25.1,
1473,1,SBT2050,2,4,,3,19577,4.14766,0,2743.05,238.885,25.1,
1473,1,SBT2050,2,4,,3,19616,4.14736,0,2743.05,238.885,25.1,
1473,1,SBT2050,2,4,,3,19655,4.14693,0,2743.05,238.885,25.1,
1473,1,SBT2050,2,4,,3,19694,4.14697,0,2743.05,238.885,25.1,
1473,1,SBT2050,2,4,,3,19733,4.14676,0,2743.05,238.885,25.1,
1473,1,SBT2050,2,4,,3,19772,4.14661,0,2743.05,238.885,25,
1473,1,SBT2050,2,4,,3,19811,4.14622,0,2743.05,238.885,25.1,
1473,1,SBT2050,2,4,,3,19850,4.14594,0,2743.05,238.885,25.1,
1473,1,SBT2050,2,4,,3,19889,4.14594,0,2743.05,238.885,25.1,
1473,1,SBT2050,2,4,,3,19928,4.14601,0,2743.05,238.885,25.1,
1473,1,SBT2050,2,4,,3,19967,4.14616,0,2743.05,238.885,25.1,
1473,1,SBT2050,2,4,,3,20006,4.14587,0,2743.05,238.885,25.1,
1473,1,SBT2050,2,4,,3,20045,4.145772,0,2743.05,238.885,25.1,
1473,1,SBT2050,2,4,,3,20084,4.14569,0,2743.05,238.885,25.1,
1473,1,SBT2050,2,4,,3,20123,4.1455,0,2743.05,238.885,25.1,
1473,1,SBT2050,2,4,,3,20162,4.14556,0,2743.05,238.885,25,
1473,1,SBT2050,2,4,,3,20201,4.14514,0,2743.05,238.885,25.1,
1473,1,SBT2050,2,4,,3,20240,4.14496,0,2743.05,238.885,25.1,
1473,1,SBT2050,2,4,,3,20279,4.14534,0,2743.05,238.885,25.1,
1473,1,SBT2050,2,4,,3,20318,4.14523,0,2743.05,238.885,25.1,
1473,1,SBT2050,2,4,,3,20357,4.14505,0,2743.05,238.885,25.1,
1473,1,SBT2050,2,4,,3,20396,4.1451,0,2743.05,238.885,25.1,
1473,1,SBT2050,2,4,,3,20435,4.14502,0,2743.05,238.885,25.1,
1473,1,SBT2050,2,4,,3,20474,4.1447,0,2743.05,238.885,25.1,
1473,1,SBT2050,2,4,,3,20513,4.14457,0,2743.05,238.885,25.1,
1473,1,SBT2050,2,4,,3,20552,4.14477,0,2743.05,238.885,25.1,
1473,1,SBT2050,2,4,,3,20591,4.14513,0,2743.05,238.885,25.1,
1473,1,SBT2050,2,4,,3,20630,4.14467,0,2743.05,238.885,25.1,
1473,1,SBT2050,2,4,,3,20669,4.14473,0,2743.05,238.885,25.1,
1473,1,SBT2050,2,4,,3,20708,4.14439,0,2743.05,238.885,25.1,
1473,1,SBT2050,2,4,,3,20747,4.14455,0,2743.05,238.885,25.1,
1473,1,SBT2050,2,4,,3,20786,4.14413,0,2743.05,238.885,25.1,
1473,1,SBT2050,2,4,,3,20825,4.14433,0,2743.05,238.885,25,
1473,1,SBT2050,2,4,,3,20864,4.14447,0,2743.05,238.885,25,
1473,1,SBT2050,2,4,,3,20903,4.14418,0,2743.05,238.885,25,
1473,1,SBT2050,2,4,,3,20942,4.144202,0,2743.05,238.885,25.1,
1473,1,SBT2050,2,4,,3,20981,4.14412,0,2743.05,238.885,25.1,
1473,1,SBT2050,2,4,,3,21020,4.144138,0,2743.05,238.885,25.1,
1473,1,SBT2050,2,4,,3,21059,4.14425,0,2743.05,238.885,25.1,
1473,1,SBT2050,2,4,,3,21098,4.14396,0,2743.05,238.885,25.1,
1473,1,SBT2050,2,4,,3,21137,4.14392,0,2743.05,238.885,25.1,
1473,1,SBT2050,2,4,,3,21176,4.14401,0,2743.05,238.885,25.1,
1473,1,SBT2050,2,4,,3,21215,4.14374,0,2743.05,238.885,25.1,
1473,1,SBT2050,2,4,,3,21254,4.144078,0,2743.05,238.885,25.1,
1473,1,SBT2050,2,4,,3,21293,4.14384,0,2743.05,238.885,25.1,
1473,1,SBT2050,2,4,,4,21331,3.85851,-2.9362,2743.05,255.069,25.2,
1473,1,SBT2050,2,4,,4,21370,3.81379,-2.936,2743.05,286.875,25.7,
1473,1,SBT2050,2,4,,4,21409,3.793434,-2.9361,2743.05,318.681,26.2,
1473,1,SBT2050,2,4,,4,21448,3.781642,-2.9359,2743.05,350.487,26.6,
1473,1,SBT2050,2,4,,4,21487,3.77381,-2.9361,2743.05,382.293,27,
1473,1,SBT2050,2,4,,4,21526,3.767052,-2.9359,2743.05,414.1,27.3,
1473,1,SBT2050,2,4,,4,21565,3.76149,-2.9362,2743.05,445.906,27.6,
1473,1,SBT2050,2,4,,4,21604,3.75525,-2.9356,2743.05,477.712,27.8,
1473,1,SBT2050,2,4,,4,21643,3.749578,-2.9362,2743.05,509.518,28,
1473,1,SBT2050,2,4,,4,21682,3.742458,-2.9357,2743.05,541.324,28.1,
1473,1,SBT2050,2,4,,4,21721,3.73583,-2.9363,2743.05,573.13,28.2,
1473,1,SBT2050,2,4,,4,21760,3.72857,-2.936,2743.05,604.936,28.3,
1473,1,SBT2050,2,4,,4,21799,3.720584,-2.9358,2743.05,636.742,28.4,
1473,1,SBT2050,2,4,,4,21838,3.71255,-2.9357,2743.05,668.549,28.5,
1473,1,SBT2050,2,4,,4,21877,3.70417,-2.9359,2743.05,700.355,28.4,
1473,1,SBT2050,2,4,,4,21916,3.695688,-2.9361,2743.05,732.161,28.5,
1473,1,SBT2050,2,4,,4,21955,3.68641,-2.936,2743.05,763.967,28.4,
1473,1,SBT2050,2,4,,4,21994,3.677368,-2.9362,2743.05,795.773,28.4,
1473,1,SBT2050,2,4,,4,22033,3.667966,-2.9363,2743.05,827.579,28.4,
1473,1,SBT2050,2,4,,4,22072,3.65853,-2.936,2743.05,859.385,28.5,
1473,1,SBT2050,2,4,,4,22111,3.64889,-2.9358,2743.05,891.191,28.5,
1473,1,SBT2050,2,4,,4,22150,3.63898,-2.9364,2743.05,922.998,28.5,
1473,1,SBT2050,2,4,,4,22189,3.6289,-2.9362,2743.05,954.804,28.4,
1473,1,SBT2050,2,4,,4,22228,3.61887,-2.9359,2743.05,986.61,28.4,
1473,1,SBT2050,2,4,,4,22267,3.60875,-2.9363,2743.05,1018.416,28.4,
1473,1,SBT2050,2,4,,4,22306,3.59804,-2.9357,2743.05,1050.222,28.4,
1473,1,SBT2050,2,4,,4,22345,3.587766,-2.9358,2743.05,1082.028,28.4,
1473,1,SBT2050,2,4,,4,22384,3.57748,-2.9361,2743.05,1113.834,28.5,
1473,1,SBT2050,2,4,,4,22423,3.56665,-2.9356,2743.05,1145.64,28.5,
1473,1,SBT2050,2,4,,4,22462,3.5555,-2.9364,2743.05,1177.446,28.5,
1473,1,SBT2050,2,4,,4,22501,3.544584,-2.9358,2743.05,1209.252,28.5,
1473,1,SBT2050,2,4,,4,22540,3.53371,-2.9361,2743.05,1241.059,28.5,
1473,1,SBT2050,2,4,,4,22579,3.52288,-2.9358,2743.05,1272.865,28.5,
1473,1,SBT2050,2,4,,4,22618,3.51173,-2.9361,2743.05,1304.671,28.5,
1473,1,SBT2050,2,4,,4,22657,3.50087,-2.9356,2743.05,1336.477,28.5,
1473,1,SBT2050,2,4,,4,22696,3.49013,-2.9357,2743.05,1368.283,28.5,
1473,1,SBT2050,2,4,,4,22735,3.47929,-2.9362,2743.05,1400.089,28.5,
1473,1,SBT2050,2,4,,4,22774,3.4683,-2.936,2743.05,1431.896,28.5,
1473,1,SBT2050,2,4,,4,22813,3.45784,-2.9358,2743.05,1463.702,28.5,
1473,1,SBT2050,2,4,,4,22852,3.44721,-2.9355,2743.05,1495.508,28.6,
1473,1,SBT2050,2,4,,4,22891,3.43668,-2.9359,2743.05,1527.314,28.5,
1473,1,SBT2050,2,4,,4,22930,3.426506,-2.9365,2743.05,1559.121,28.5,
1473,1,SBT2050,2,4,,4,22969,3.416404,-2.9357,2743.05,1590.927,28.5,
1473,1,SBT2050,2,4,,4,23008,3.40626,-2.9361,2743.05,1622.733,28.5,
1473,1,SBT2050,2,4,,4,23047,3.39637,-2.9363,2743.05,1654.539,28.6,
1473,1,SBT2050,2,4,,4,23086,3.38637,-2.9361,2743.05,1686.345,28.6,
1473,1,SBT2050,2,4,,4,23125,3.376342,-2.936,2743.05,1718.151,28.6,
1473,1,SBT2050,2,4,,4,23164,3.366326,-2.9357,2743.05,1749.958,28.7,
1473,1,SBT2050,2,4,,4,23203,3.35631,-2.9356,2743.05,1781.764,28.7,
1473,1,SBT2050,2,4,,4,23242,3.34598,-2.936,2743.05,1813.57,28.7,
1473,1,SBT2050,2,4,,4,23281,3.335721,-2.9361,2743.05,1845.376,28.8,
1473,1,SBT2050,2,4,,4,23320,3.32548,-2.9357,2743.05,1877.182,28.8,
1473,1,SBT2050,2,4,,4,23359,3.31467,-2.936,2743.05,1908.988,28.8,
1473,1,SBT2050,2,4,,4,23398,3.30385,-2.9358,2743.05,1940.795,28.9,
1473,1,SBT2050,2,4,,4,23437,3.292569,-2.9358,2743.05,1972.601,28.9,
1473,1,SBT2050,2,4,,4,23476,3.28052,-2.9359,2743.05,2004.407,29,
1473,1,SBT2050,2,4,,4,23515,3.26901,-2.9361,2743.05,2036.213,29.1,
1473,1,SBT2050,2,4,,4,23554,3.25658,-2.9362,2743.05,2068.02,29.2,
1473,1,SBT2050,2,4,,4,23593,3.24346,-2.936,2743.05,2099.826,29.2,
1473,1,SBT2050,2,4,,4,23632,3.2299,-2.9357,2743.05,2131.632,29.2,
1473,1,SBT2050,2,4,,4,23671,3.21522,-2.9365,2743.05,2163.438,29.3,
1473,1,SBT2050,2,4,,4,23710,3.20013,-2.9362,2743.05,2195.244,29.4,
1473,1,SBT2050,2,4,,4,23749,3.184369,-2.9358,2743.05,2227.051,29.5,
1473,1,SBT2050,2,4,,4,23788,3.16711,-2.9358,2743.05,2258.857,29.6,
1473,1,SBT2050,2,4,,4,23827,3.148555,-2.9356,2743.05,2290.663,29.7,
1473,1,SBT2050,2,4,,4,23866,3.12904,-2.9358,2743.05,2322.469,29.9,
1473,1,SBT2050,2,4,,4,23905,3.10801,-2.9359,2743.05,2354.275,30,
1473,1,SBT2050,2,4,,4,23944,3.08547,-2.9359,2743.05,2386.082,30.2,
1473,1,SBT2050,2,4,,4,23983,3.060546,-2.9361,2743.05,2417.888,30.3,
1473,1,SBT2050,2,4,,4,24022,3.03364,-2.9363,2743.05,2449.694,30.5,
1473,1,SBT2050,2,4,,4,24061,3.00473,-2.9358,2743.05,2481.5,30.7,
1473,1,SBT2050,2,4,,4,24100,2.972411,-2.9358,2743.05,2513.306,30.9,
1473,1,SBT2050,2,4,,4,24139,2.936195,-2.9356,2743.05,2545.113,31.2,
1473,1,SBT2050,2,4,,4,24178,2.89476,-2.9362,2743.05,2576.919,31.5,
1473,1,SBT2050,2,4,,4,24217,2.84574,-2.936,2743.05,2608.725,31.8,
1473,1,SBT2050,2,4,,4,24256,2.78559,-2.9358,2743.05,2640.531,32.1,
1473,1,SBT2050,2,4,,4,24295,2.71038,-2.9361,2743.05,2672.337,32.5,
1473,1,SBT2050,2,4,,4,24334,2.61405,-2.936,2743.05,2704.144,33,
1473,1,SBT2050,2,4,,4,24373,2.49971,-2.8297,2743.05,2735.89,33.7,
1473,1,SBT2050,2,4,,4,24412,2.499844,-2.3219,2743.05,2763.484,34.3,
1473,1,SBT2050,2,4,,4,24451,2.49965,-1.9687,2743.05,2786.665,34.5,
1473,1,SBT2050,2,4,,4,24490,2.49974,-1.6723,2743.05,2806.338,34.4,
1473,1,SBT2050,2,4,,4,24529,2.499844,-1.4214,2743.05,2823.047,34.1,
1473,1,SBT2050,2,4,,4,24568,2.49972,-1.2133,2743.05,2837.278,33.7,
1473,1,SBT2050,2,4,,4,24607,2.49982,-1.0435,2743.05,2849.469,33.3,
1473,1,SBT2050,2,4,,4,24646,2.49978,-0.9034,2743.05,2859.991,32.7,
1473,1,SBT2050,2,4,,4,24685,2.49988,-0.7902,2743.05,2869.146,32.2,
1473,1,SBT2050,2,4,,4,24724,2.49982,-0.6938,2743.05,2877.167,31.6,
1473,1,SBT2050,2,4,,4,24763,2.499844,-0.6154,2743.05,2884.248,31.1,
1473,1,SBT2050,2,4,,4,24802,2.49978,-0.5494,2743.05,2890.545,30.6,
1473,1,SBT2050,2,4,,4,24841,2.49981,-0.4951,2743.05,2896.193,30.2,
1473,1,SBT2050,2,4,,4,24880,2.49981,-0.44748,2743.05,2901.289,29.7,
1473,1,SBT2050,2,4,,4,24919,2.49989,-0.4073,2743.05,2905.912,29.4,
1473,1,SBT2050,2,4,,4,24958,2.499844,-0.37305,2743.05,2910.133,29,
1473,1,SBT2050,2,4,,4,24997,2.49993,-0.34262,2743.05,2914.007,28.7,
1473,1,SBT2050,2,4,,4,25036,2.49975,-0.31716,2743.05,2917.58,28.4,
1473,1,SBT2050,2,4,,4,25075,2.49974,-0.29453,2743.05,2920.891,28.1,
1473,1,SBT2050,2,4,,4,25114,2.49976,-0.27475,2743.05,2923.972,27.9,
1473,1,SBT2050,2,4,,4,25153,2.49981,-0.25647,2743.05,2926.847,27.7,
1473,1,SBT2050,2,4,,4,25192,2.49992,-0.24058,2743.05,2929.541,27.5,
1473,1,SBT2050,2,4,,4,25231,2.49995,-0.22639,2743.05,2932.07,27.3,
1473,1,SBT2050,2,4,,4,25270,2.4999,-0.21317,2743.05,2934.449,27.1,
1473,1,SBT2050,2,4,,4,25309,2.499844,-0.20134,2743.05,2936.692,27,
1473,1,SBT2050,2,4,,4,25348,2.49993,-0.19014,2743.05,2938.81,26.8,
1473,1,SBT2050,2,4,,4,25387,2.49996,-0.1801,2743.05,2940.815,26.7,
1473,1,SBT2050,2,4,,4,25426,2.499987,-0.17095,2743.05,2942.715,26.6,
1473,1,SBT2050,2,4,,4,25465,2.49981,-0.16207,2743.05,2944.518,26.5,
1473,1,SBT2050,2,4,,4,25504,2.49982,-0.15408,2743.05,2946.231,26.4,
1473,1,SBT2050,2,4,,4,25543,2.49992,-0.14679,2743.05,2947.861,26.3,
1473,1,SBT2050,2,4,,4,25582,2.50006,-0.13987,2743.05,2949.413,26.2,
1473,1,SBT2050,2,4,,4,25621,2.49993,-0.13336,2743.05,2950.892,26.2,
1473,1,SBT2050,2,4,,4,25660,2.49982,-0.127,2743.05,2952.304,26.1,
1473,1,SBT2050,2,4,,4,25699,2.50007,-0.12183,2743.05,2953.652,26,
1473,1,SBT2050,2,4,,4,25738,2.49994,-0.11606,2743.05,2954.938,26,
1473,1,SBT2050,2,4,,4,25777,2.499987,-0.11095,2743.05,2956.167,25.9,
1473,1,SBT2050,2,4,,4,25816,2.50006,-0.10605,2743.05,2957.341,25.9,
1473,1,SBT2050,2,4,,4,25855,2.499987,-0.10116,2743.05,2958.464,25.9,
1473,1,SBT2050,2,4,,4,25894,2.49993,-0.09696,2743.05,2959.537,25.8,
1473,1,SBT2050,2,4,,4,25933,2.49982,-0.09248,2743.05,2960.563,25.8,
1473,1,SBT2050,2,4,,4,25972,2.5,-0.08853,2743.05,2961.542,25.7,
1473,1,SBT2050,2,4,,4,26011,2.499844,-0.08435,2743.05,2962.478,25.8,
1473,1,SBT2050,2,4,,4,26050,2.499844,-0.0807,2743.05,2963.373,25.7,
1473,1,SBT2050,2,4,,4,26089,2.4999,-0.07715,2743.05,2964.229,25.7,
1473,1,SBT2050,2,4,,4,26128,2.4999,-0.07382,2743.05,2965.047,25.6,
1473,1,SBT2050,2,4,,4,26167,2.50009,-0.07082,2743.05,2965.83,25.6,
1473,1,SBT2050,2,4,,4,26206,2.49988,-0.06753,2743.05,2966.578,25.6,
1473,1,SBT2050,2,4,,4,26245,2.4999,-0.0646,2743.05,2967.293,25.6,
1473,1,SBT2050,2,4,,4,26284,2.499987,-0.06162,2743.05,2967.976,25.6,
1473,1,SBT2050,2,4,,4,26323,2.50006,-0.05913,2743.05,2968.63,25.5,
1473,1,SBT2050,2,4,,4,26362,2.50009,-0.05653,2743.05,2969.256,25.5,
1473,1,SBT2050,2,4,,4,26401,2.500142,-0.05436,2743.05,2969.857,25.5,
1473,1,SBT2050,2,4,,4,26440,2.50002,-0.05198,2743.05,2970.432,25.5,
1473,1,SBT2050,2,4,,4,26479,2.49987,-0.04977,2743.05,2970.984,25.5,
1473,1,SBT2050,2,4,,4,26518,2.49987,-0.047485,2743.05,2971.513,25.4,
1473,1,SBT2050,2,4,,4,26557,2.499975,-0.045918,2743.05,2972.021,25.4,
1473,1,SBT2050,2,4,,4,26596,2.49993,-0.044051,2743.05,2972.508,25.4,
1473,1,SBT2050,2,4,,4,26635,2.50006,-0.042522,2743.05,2972.976,25.4,
1473,1,SBT2050,2,4,,4,26674,2.4999,-0.040605,2743.05,2973.426,25.5,
1473,1,SBT2050,2,4,,4,26713,2.50008,-0.039316,2743.05,2973.859,25.4,
1473,1,SBT2050,2,4,,4,26752,2.50005,-0.037679,2743.05,2974.275,25.4,
1473,1,SBT2050,2,4,,4,26791,2.50011,-0.036396,2743.05,2974.675,25.4,
1473,1,SBT2050,2,4,,4,26830,2.50005,-0.034758,2743.05,2975.058,25.4,
1473,1,SBT2050,2,4,,4,26869,2.49988,-0.033272,2743.05,2975.426,25.4,
1473,1,SBT2050,2,4,,4,26908,2.49992,-0.031901,2743.05,2975.779,25.4,
1473,1,SBT2050,2,4,,4,26947,2.49995,-0.030717,2743.05,2976.119,25.4,
1473,1,SBT2050,2,4,,4,26986,2.4999,-0.029431,2743.05,2976.445,25.4,
1473,1,SBT2050,2,4,,4,27025,2.49993,-0.028232,2743.05,2976.758,25.4,
1473,1,SBT2050,2,4,,4,27064,2.49989,-0.02724,2743.05,2977.058,25.4,
1473,1,SBT2050,2,4,,4,27103,2.49992,-0.026058,2743.05,2977.347,25.3,
1473,1,SBT2050,2,4,,4,27142,2.49996,-0.024826,2743.05,2977.625,25.3,
1473,1,SBT2050,2,4,,4,27181,2.49993,-0.02418,2743.05,2977.891,25.3,
1473,1,SBT2050,2,4,,4,27220,2.499987,-0.023084,2743.05,2978.148,25.3,
1473,1,SBT2050,2,4,,4,27259,2.5,-0.022342,2743.05,2978.395,25.3,
1473,1,SBT2050,2,4,,4,27298,2.500118,-0.021541,2743.05,2978.632,25.3,
1473,1,SBT2050,2,4,,4,27337,2.5,-0.020703,2743.05,2978.86,25.3,
1473,1,SBT2050,2,4,,4,27376,2.50015,-0.019896,2743.05,2979.079,25.3,
1473,1,SBT2050,2,4,,4,27415,2.50007,-0.019011,2743.05,2979.29,25.3,
1473,1,SBT2050,2,4,,4,27454,2.50011,-0.01855,2743.05,2979.493,25.3,
1473,1,SBT2050,2,4,,4,27493,2.49994,-0.017677,2743.05,2979.689,25.3,
1473,1,SBT2050,2,4,,4,27532,2.50005,-0.017052,2743.05,2979.877,25.2,
1473,1,SBT2050,2,4,,4,27571,2.50006,-0.016491,2743.05,2980.059,25.2,
1473,1,SBT2050,2,4,,4,27610,2.50011,-0.015984,2743.05,2980.234,25.2,
1473,1,SBT2050,2,4,,4,27649,2.50007,-0.015248,2743.05,2980.403,25.3,
1473,1,SBT2050,2,4,,4,27688,2.49989,-0.014766,2743.05,2980.566,25.2,
1473,1,SBT2050,2,4,,4,27727,2.4999,-0.01417,2743.05,2980.723,25.2,
1473,1,SBT2050,2,4,,4,27766,2.50006,-0.013645,2743.05,2980.874,25.2,
1473,1,SBT2050,2,4,,4,27805,2.49995,-0.013207,2743.05,2981.019,25.2,
1473,1,SBT2050,2,4,,4,27844,2.50007,-0.012782,2743.05,2981.16,25.2,
1473,1,SBT2050,2,4,,4,27883,2.50019,-0.01227,2743.05,2981.294,25.2,
1473,1,SBT2050,2,4,,4,27922,2.50006,-0.011632,2743.05,2981.424,25.2,
1473,1,SBT2050,2,4,,4,27961,2.49986,-0.011291,2743.05,2981.549,25.2,
1473,1,SBT2050,2,4,,4,28000,2.499975,-0.010973,2743.05,2981.669,25.2,
1473,1,SBT2050,2,4,,4,28039,2.499975,-0.010507,2743.05,2981.785,25.2,
1473,1,SBT2050,2,4,,5,28077,2.51007,0,2743.05,2981.863,25.2,
1473,1,SBT2050,2,4,,5,28116,2.53196,0,2743.05,2981.863,25.2,
1473,1,SBT2050,2,4,,5,28155,2.54977,0,2743.05,2981.863,25.2,
1473,1,SBT2050,2,4,,5,28194,2.56514,0,2743.05,2981.863,25.2,
1473,1,SBT2050,2,4,,5,28233,2.57914,0,2743.05,2981.863,25.2,
1473,1,SBT2050,2,4,,5,28272,2.59203,0,2743.05,2981.863,25.2,
1473,1,SBT2050,2,4,,5,28311,2.60356,0,2743.05,2981.863,25.2,
1473,1,SBT2050,2,4,,5,28350,2.61418,0,2743.05,2981.863,25.2,
1473,1,SBT2050,2,4,,5,28389,2.62389,0,2743.05,2981.863,25.1,
1473,1,SBT2050,2,4,,5,28428,2.63331,0,2743.05,2981.863,25.2,
1473,1,SBT2050,2,4,,5,28467,2.6414,0,2743.05,2981.863,25.1,
1473,1,SBT2050,2,4,,5,28506,2.64896,0,2743.05,2981.863,25.1,
1473,1,SBT2050,2,4,,5,28545,2.65627,0,2743.05,2981.863,25.2,
1473,1,SBT2050,2,4,,5,28584,2.66317,0,2743.05,2981.863,25.2,
1473,1,SBT2050,2,4,,5,28623,2.66924,0,2743.05,2981.863,25.1,
1473,1,SBT2050,2,4,,5,28662,2.6752,0,2743.05,2981.863,25.1,
1473,1,SBT2050,2,4,,5,28701,2.68075,0,2743.05,2981.863,25.1,
1473,1,SBT2050,2,4,,5,28740,2.68593,0,2743.05,2981.863,25.1,
1473,1,SBT2050,2,4,,5,28779,2.69108,0,2743.05,2981.863,25.1,
1473,1,SBT2050,2,4,,5,28818,2.69602,0,2743.05,2981.863,25.1,
1473,1,SBT2050,2,4,,5,28857,2.70008,0,2743.05,2981.863,25.2,
1473,1,SBT2050,2,4,,5,28896,2.70447,0,2743.05,2981.863,25.2,
1473,1,SBT2050,2,4,,5,28935,2.70858,0,2743.05,2981.863,25.2,
1473,1,SBT2050,2,4,,5,28974,2.712425,0,2743.05,2981.863,25.1,
1473,1,SBT2050,2,4,,5,29013,2.71627,0,2743.05,2981.863,25.1,
1473,1,SBT2050,2,4,,5,29052,2.71991,0,2743.05,2981.863,25.1,
1473,1,SBT2050,2,4,,5,29091,2.72327,0,2743.05,2981.863,25.1,
1473,1,SBT2050,2,4,,5,29130,2.72665,0,2743.05,2981.863,25.2,
1473,1,SBT2050,2,4,,5,29169,2.7298,0,2743.05,2981.863,25.1,
1473,1,SBT2050,2,4,,5,29208,2.73287,0,2743.05,2981.863,25.1,
1473,1,SBT2050,2,4,,5,29247,2.73584,0,2743.05,2981.863,25.1,
1473,1,SBT2050,2,4,,5,29286,2.73853,0,2743.05,2981.863,25.1,
1473,1,SBT2050,2,4,,5,29325,2.741004,0,2743.05,2981.863,25.1,
1473,1,SBT2050,2,4,,5,29364,2.74382,0,2743.05,2981.863,25.2,
1473,1,SBT2050,2,4,,5,29403,2.74613,0,2743.05,2981.863,25.1,
1473,1,SBT2050,2,4,,5,29442,2.74883,0,2743.05,2981.863,25.1,
1473,1,SBT2050,2,4,,5,29481,2.750741,0,2743.05,2981.863,25.2,
1473,1,SBT2050,2,4,,5,29520,2.753291,0,2743.05,2981.863,25.1,
1473,1,SBT2050,2,4,,5,29559,2.755436,0,2743.05,2981.863,25.1,
1473,1,SBT2050,2,4,,5,29598,2.75746,0,2743.05,2981.863,25.1,
1473,1,SBT2050,2,4,,5,29637,2.75966,0,2743.05,2981.863,25.2,
1473,1,SBT2050,2,4,,5,29676,2.76133,0,2743.05,2981.863,25.2,
1473,1,SBT2050,2,4,,5,29715,2.76328,0,2743.05,2981.863,25.2,
1473,1,SBT2050,2,4,,5,29754,2.76538,0,2743.05,2981.863,25.1,
1473,1,SBT2050,2,4,,5,29793,2.76693,0,2743.05,2981.863,25.1,
1473,1,SBT2050,2,4,,5,29832,2.768536,0,2743.05,2981.863,25.1,
1473,1,SBT2050,2,4,,5,29866.012,2.77017,-9.9E-05,2743.05,2981.863,,