File: 1C/Test1503.csv
Request Year:,2018,,,,,,,,,,,,
Test:,1503,,,,,,,,,,,,
Test Description:,,,,,,,,,,,,,
TestRegime Name:,Aging_Performance,,,,,,,,,,,,
TestRegime Suffix:,SHP_LC,,,,,,,,,,,,
TestRegime CellSize:,18650,,,,,,,,,,,,
TestRegime Version:,1,,,,,,,,,,,,
Number Of Cells:,1,,,,,,,,,,,,
LotID:,,,,,,,,,,,,,
Lot Description:,,,,,,,,,,,,,
Date Made:,1/21/2003 12:00 AM,,,,,,,,,,,,
Origin:,Other,,,,,,,,,,,,
Requestor:,Admin,,,,,,,,,,,,
Product ID:,Default product,,,,,,,,,,,,
Storage Temp:,R.T./AMB,,,,,,,,,,,,
Storage Delay:,0 days,,,,,,,,,,,,
Test Temp:,R.T./AMB,,,,,,,,,,,,
Start Time:,4/17/2018 5:21 PM,,,,,,,,,,,,
End Time:,4/18/2018 3:31 AM,,,,,,,,,,,,
Operator Instructions:,,,,,,,,,,,,,
Test,Cell,Rack,Shelf,Position,Cell ID,Step,Total Time (Seconds),Voltage (V),Current (A),Charge Capacity (mAh),Discharge Capacity (mAh),TC1 (Â°C),
1503,1,SBT2050,2,4,,0,1,3.362582,0,0,0,25.1,
1503,1,SBT2050,2,4,,0,49,3.3625,0,0,0,25,
1503,1,SBT2050,2,4,,0,97,3.36263,0,0,0,25.1,
1503,1,SBT2050,2,4,,0,145,3.363104,0,0,0,25.1,
1503,1,SBT2050,2,4,,0,193,3.36275,0,0,0,25.1,
1503,1,SBT2050,2,4,,0,241,3.36295,0,0,0,25,
1503,1,SBT2050,2,4,,0,289,3.36311,0,0,0,25.1,
1503,1,SBT2050,2,4,,1,337,2.49915,-2.1652,0,28.698,26,
1503,1,SBT2050,2,4,,1,385,2.49984,-1.5709,0,52.56,27.3,
1503,1,SBT2050,2,4,,1,433,2.49985,-1.3448,0,71.89,28.1,
1503,1,SBT2050,2,4,,1,481,2.49985,-1.1817,0,88.684,28.6,
1503,1,SBT2050,2,4,,1,529,2.499685,-1.0466,0,103.523,28.8,
1503,1,SBT2050,2,4,,1,577,2.50004,-0.9309,0,116.69,29,
1503,1,SBT2050,2,4,,1,625,2.49979,-0.8351,0,128.45,29,
1503,1,SBT2050,2,4,,1,673,2.49982,-0.754,0,139.033,28.8,
1503,1,SBT2050,2,4,,1,721,2.49996,-0.685,0,148.618,28.8,
1503,1,SBT2050,2,4,,1,769,2.4999,-0.6252,0,157.343,28.6,
1503,1,SBT2050,2,4,,1,817,2.4999,-0.5726,0,165.32,28.4,
1503,1,SBT2050,2,4,,1,865,2.4999,-0.5251,0,172.63,28.3,
1503,1,SBT2050,2,4,,1,913,2.49989,-0.4847,0,179.356,28.1,
1503,1,SBT2050,2,4,,1,961,2.4998,-0.4476,0,185.562,27.9,
1503,1,SBT2050,2,4,,1,1009,2.499983,-0.41604,0,191.314,27.8,
1503,1,SBT2050,2,4,,1,1057,2.49985,-0.38732,0,196.663,27.6,
1503,1,SBT2050,2,4,,1,1105,2.4999,-0.36164,0,201.653,27.4,
1503,1,SBT2050,2,4,,1,1153,2.499971,-0.33856,0,206.317,27.3,
1503,1,SBT2050,2,4,,1,1201,2.49996,-0.31735,0,210.688,27.1,
1503,1,SBT2050,2,4,,1,1249,2.499995,-0.29918,0,214.796,27,
1503,1,SBT2050,2,4,,1,1297,2.49985,-0.28214,0,218.669,26.9,
1503,1,SBT2050,2,4,,1,1345,2.49992,-0.26697,0,222.33,26.7,
1503,1,SBT2050,2,4,,1,1393,2.4998,-0.25278,0,225.795,26.7,
1503,1,SBT2050,2,4,,1,1441,2.49985,-0.23999,0,229.079,26.6,
1503,1,SBT2050,2,4,,1,1489,2.49986,-0.22856,0,232.202,26.4,
1503,1,SBT2050,2,4,,1,1537,2.49996,-0.21812,0,235.177,26.4,
1503,1,SBT2050,2,4,,1,1585,2.49995,-0.20831,0,238.019,26.4,
1503,1,SBT2050,2,4,,1,1633,2.499995,-0.19937,0,240.737,26.3,
1503,1,SBT2050,2,4,,1,1681,2.49984,-0.19079,0,243.339,26.2,
1503,1,SBT2050,2,4,,1,1729,2.499971,-0.18306,0,245.83,26.1,
1503,1,SBT2050,2,4,,1,1777,2.49989,-0.17559,0,248.22,26.1,
1503,1,SBT2050,2,4,,1,1825,2.49986,-0.1686,0,250.515,26,
1503,1,SBT2050,2,4,,1,1873,2.49984,-0.16243,0,252.723,26,
1503,1,SBT2050,2,4,,1,1921,2.49984,-0.15622,0,254.847,25.9,
1503,1,SBT2050,2,4,,1,1969,2.499971,-0.15044,0,256.892,25.8,
1503,1,SBT2050,2,4,,1,2017,2.49992,-0.14489,0,258.861,25.8,
1503,1,SBT2050,2,4,,1,2065,2.499983,-0.13953,0,260.757,25.8,
1503,1,SBT2050,2,4,,1,2113,2.49994,-0.13478,0,262.584,25.7,
1503,1,SBT2050,2,4,,1,2161,2.49994,-0.12998,0,264.348,25.7,
1503,1,SBT2050,2,4,,1,2209,2.50004,-0.12561,0,266.052,25.7,
1503,1,SBT2050,2,4,,1,2257,2.49982,-0.12136,0,267.698,25.7,
1503,1,SBT2050,2,4,,1,2305,2.50005,-0.11713,0,269.29,25.6,
1503,1,SBT2050,2,4,,1,2353,2.499995,-0.1136,0,270.83,25.6,
1503,1,SBT2050,2,4,,1,2401,2.49988,-0.10979,0,272.319,25.6,
1503,1,SBT2050,2,4,,1,2449,2.49986,-0.10647,0,273.761,25.6,
1503,1,SBT2050,2,4,,1,2497,2.50008,-0.10321,0,275.157,25.6,
1503,1,SBT2050,2,4,,1,2545,2.50002,-0.10007,0,276.511,25.5,
1503,1,SBT2050,2,4,,1,2593,2.50008,-0.09679,0,277.823,25.5,
1503,1,SBT2050,2,4,,1,2641,2.499995,-0.09374,0,279.093,25.4,
1503,1,SBT2050,2,4,,1,2689,2.50002,-0.09077,0,280.323,25.4,
1503,1,SBT2050,2,4,,1,2737,2.5001,-0.08803,0,281.514,25.4,
1503,1,SBT2050,2,4,,1,2785,2.50007,-0.08521,0,282.67,25.4,
1503,1,SBT2050,2,4,,1,2833,2.49985,-0.0828,0,283.79,25.4,
1503,1,SBT2050,2,4,,1,2881,2.50003,-0.08019,0,284.876,25.4,
1503,1,SBT2050,2,4,,1,2929,2.50003,-0.07748,0,285.927,25.4,
1503,1,SBT2050,2,4,,1,2977,2.50008,-0.07522,0,286.944,25.4,
1503,1,SBT2050,2,4,,1,3025,2.49994,-0.07278,0,287.929,25.4,
1503,1,SBT2050,2,4,,1,3073,2.4999,-0.0704,0,288.883,25.3,
1503,1,SBT2050,2,4,,1,3121,2.49996,-0.06835,0,289.808,25.3,
1503,1,SBT2050,2,4,,1,3169,2.499971,-0.06614,0,290.703,25.3,
1503,1,SBT2050,2,4,,1,3217,2.50007,-0.06402,0,291.57,25.3,
1503,1,SBT2050,2,4,,1,3265,2.50004,-0.062,0,292.409,25.3,
1503,1,SBT2050,2,4,,1,3313,2.50003,-0.06,0,293.222,25.3,
1503,1,SBT2050,2,4,,1,3361,2.50002,-0.058,0,294.007,25.3,
1503,1,SBT2050,2,4,,1,3409,2.499971,-0.05606,0,294.767,25.3,
1503,1,SBT2050,2,4,,1,3457,2.499971,-0.05406,0,295.502,25.3,
1503,1,SBT2050,2,4,,1,3505,2.49986,-0.05219,0,296.212,25.3,
1503,1,SBT2050,2,4,,1,3553,2.5001,-0.05065,0,296.899,25.2,
1503,1,SBT2050,2,4,,1,3601,2.49994,-0.04894,0,297.562,25.2,
1503,1,SBT2050,2,4,,1,3649,2.499971,-0.047269,0,298.202,25.2,
1503,1,SBT2050,2,4,,1,3697,2.49986,-0.04536,0,298.819,25.2,
1503,1,SBT2050,2,4,,1,3745,2.49991,-0.043923,0,299.415,25.2,
1503,1,SBT2050,2,4,,1,3793,2.50008,-0.042576,0,299.99,25.2,
1503,1,SBT2050,2,4,,1,3841,2.4999,-0.040935,0,300.545,25.2,
1503,1,SBT2050,2,4,,1,3889,2.49996,-0.039584,0,301.082,25.2,
1503,1,SBT2050,2,4,,1,3937,2.500138,-0.038232,0,301.599,25.2,
1503,1,SBT2050,2,4,,1,3985,2.499995,-0.036972,0,302.098,25.2,
1503,1,SBT2050,2,4,,1,4033,2.499983,-0.035691,0,302.581,25.2,
1503,1,SBT2050,2,4,,1,4081,2.5001,-0.034394,0,303.048,25.2,
1503,1,SBT2050,2,4,,1,4129,2.500138,-0.033472,0,303.499,25.2,
1503,1,SBT2050,2,4,,1,4177,2.50005,-0.032315,0,303.938,25.2,
1503,1,SBT2050,2,4,,1,4225,2.49992,-0.031559,0,304.362,25.2,
1503,1,SBT2050,2,4,,1,4273,2.49988,-0.030334,0,304.773,25.1,
1503,1,SBT2050,2,4,,1,4321,2.50009,-0.029363,0,305.171,25.1,
1503,1,SBT2050,2,4,,1,4369,2.50002,-0.028641,0,305.558,25.1,
1503,1,SBT2050,2,4,,1,4417,2.499983,-0.027702,0,305.934,25.2,
1503,1,SBT2050,2,4,,1,4465,2.49992,-0.026806,0,306.298,25.2,
1503,1,SBT2050,2,4,,1,4513,2.50009,-0.026082,0,306.652,25.1,
1503,1,SBT2050,2,4,,1,4561,2.49996,-0.025436,0,306.994,25.1,
1503,1,SBT2050,2,4,,1,4609,2.50001,-0.024479,0,307.327,25.1,
1503,1,SBT2050,2,4,,1,4657,2.49988,-0.023845,0,307.65,25.1,
1503,1,SBT2050,2,4,,1,4705,2.49994,-0.023085,0,307.963,25.1,
1503,1,SBT2050,2,4,,1,4753,2.50004,-0.022513,0,308.267,25.1,
1503,1,SBT2050,2,4,,1,4801,2.50009,-0.021774,0,308.563,25.1,
1503,1,SBT2050,2,4,,1,4849,2.50023,-0.021166,0,308.849,25.1,
1503,1,SBT2050,2,4,,1,4897,2.49996,-0.020446,0,309.127,25.1,
1503,1,SBT2050,2,4,,1,4945,2.500114,-0.020092,0,309.396,25.1,
1503,1,SBT2050,2,4,,1,4993,2.499995,-0.019319,0,309.657,25.1,
1503,1,SBT2050,2,4,,1,5041,2.49985,-0.018712,0,309.911,25.1,
1503,1,SBT2050,2,4,,1,5089,2.49992,-0.018079,0,310.157,25,
1503,1,SBT2050,2,4,,1,5137,2.4999,-0.017767,0,310.395,25.1,
1503,1,SBT2050,2,4,,1,5185,2.500114,-0.017213,0,310.627,25.1,
1503,1,SBT2050,2,4,,1,5233,2.5001,-0.016532,0,310.852,25.1,
1503,1,SBT2050,2,4,,1,5281,2.49995,-0.016162,0,311.07,25,
1503,1,SBT2050,2,4,,1,5329,2.50002,-0.015545,0,311.282,25.1,
1503,1,SBT2050,2,4,,1,5377,2.49996,-0.01502,0,311.488,25,
1503,1,SBT2050,2,4,,1,5425,2.50008,-0.014902,0,311.688,25,
1503,1,SBT2050,2,4,,1,5473,2.50002,-0.014441,0,311.882,25.1,
1503,1,SBT2050,2,4,,1,5521,2.500138,-0.014066,0,312.071,25.1,
1503,1,SBT2050,2,4,,1,5569,2.49986,-0.013483,0,312.254,25,
1503,1,SBT2050,2,4,,1,5617,2.50004,-0.013124,0,312.432,25.1,
1503,1,SBT2050,2,4,,1,5665,2.49995,-0.012693,0,312.605,25,
1503,1,SBT2050,2,4,,1,5713,2.49984,-0.01239,0,312.773,25,
1503,1,SBT2050,2,4,,1,5761,2.4999,-0.011997,0,312.936,25,
1503,1,SBT2050,2,4,,1,5809,2.49996,-0.011647,0,313.094,25.1,
1503,1,SBT2050,2,4,,1,5857,2.50004,-0.011205,0,313.247,25.1,
1503,1,SBT2050,2,4,,1,5905,2.50008,-0.011145,0,313.396,25.1,
1503,1,SBT2050,2,4,,1,5953,2.499995,-0.010664,0,313.541,25,
1503,1,SBT2050,2,4,,1,6001,2.49985,-0.010213,0,313.681,25,
1503,1,SBT2050,2,4,,2,6048,3.27261,2.9355,16.268,313.758,25.1,
1503,1,SBT2050,2,4,,2,6096,3.5106,2.9359,55.414,313.758,25.5,
1503,1,SBT2050,2,4,,2,6144,3.62185,2.9363,94.56,313.758,25.9,
1503,1,SBT2050,2,4,,2,6192,3.65554,2.936,133.706,313.758,26.4,
1503,1,SBT2050,2,4,,2,6240,3.67021,2.9358,172.852,313.758,27,
1503,1,SBT2050,2,4,,2,6288,3.68484,2.9361,211.998,313.758,27.6,
1503,1,SBT2050,2,4,,2,6336,3.69923,2.936,251.143,313.758,28,
1503,1,SBT2050,2,4,,2,6384,3.713088,2.9361,290.289,313.758,28.3,
1503,1,SBT2050,2,4,,2,6432,3.72559,2.9362,329.435,313.758,28.6,
1503,1,SBT2050,2,4,,2,6480,3.73678,2.936,368.581,313.758,28.8,
1503,1,SBT2050,2,4,,2,6528,3.74578,2.9359,407.727,313.758,29,
1503,1,SBT2050,2,4,,2,6576,3.753324,2.9357,446.873,313.758,29.2,
1503,1,SBT2050,2,4,,2,6624,3.76062,2.9365,486.019,313.758,29.3,
1503,1,SBT2050,2,4,,2,6672,3.76782,2.9357,525.165,313.758,29.3,
1503,1,SBT2050,2,4,,2,6720,3.775,2.936,564.31,313.758,29.4,
1503,1,SBT2050,2,4,,2,6768,3.78327,2.9357,603.456,313.758,29.4,
1503,1,SBT2050,2,4,,2,6816,3.79136,2.9362,642.602,313.758,29.4,
1503,1,SBT2050,2,4,,2,6864,3.79958,2.9361,681.748,313.758,29.5,
1503,1,SBT2050,2,4,,2,6912,3.80815,2.9357,720.894,313.758,29.5,
1503,1,SBT2050,2,4,,2,6960,3.81661,2.9363,760.04,313.758,29.5,
1503,1,SBT2050,2,4,,2,7008,3.82534,2.9357,799.186,313.758,29.5,
1503,1,SBT2050,2,4,,2,7056,3.83435,2.9358,838.331,313.758,29.5,
1503,1,SBT2050,2,4,,2,7104,3.84351,2.9361,877.477,313.758,29.5,
1503,1,SBT2050,2,4,,2,7152,3.852698,2.9362,916.623,313.758,29.5,
1503,1,SBT2050,2,4,,2,7200,3.86317,2.9359,955.769,313.758,29.4,
1503,1,SBT2050,2,4,,2,7248,3.87325,2.9357,994.915,313.758,29.5,
1503,1,SBT2050,2,4,,2,7296,3.88404,2.9362,1034.061,313.758,29.5,
1503,1,SBT2050,2,4,,2,7344,3.895472,2.9359,1073.207,313.758,29.5,
1503,1,SBT2050,2,4,,2,7392,3.90748,2.9354,1112.353,313.758,29.6,
1503,1,SBT2050,2,4,,2,7440,3.9198,2.9358,1151.499,313.758,29.6,
1503,1,SBT2050,2,4,,2,7488,3.93221,2.9356,1190.644,313.758,29.6,
1503,1,SBT2050,2,4,,2,7536,3.945188,2.936,1229.79,313.758,29.6,
1503,1,SBT2050,2,4,,2,7584,3.95853,2.9361,1268.936,313.758,29.7,
1503,1,SBT2050,2,4,,2,7632,3.97239,2.9362,1308.082,313.758,29.7,
1503,1,SBT2050,2,4,,2,7680,3.98579,2.9358,1347.228,313.758,29.8,
1503,1,SBT2050,2,4,,2,7728,3.999942,2.9362,1386.374,313.758,29.8,
1503,1,SBT2050,2,4,,2,7776,4.01396,2.9359,1425.52,313.758,29.9,
1503,1,SBT2050,2,4,,2,7824,4.02864,2.9358,1464.665,313.758,29.9,
1503,1,SBT2050,2,4,,2,7872,4.0428,2.9363,1503.811,313.758,29.9,
1503,1,SBT2050,2,4,,2,7920,4.05754,2.9361,1542.957,313.758,30,
1503,1,SBT2050,2,4,,2,7968,4.07213,2.9362,1582.103,313.758,29.9,
1503,1,SBT2050,2,4,,2,8016,4.08714,2.9364,1621.249,313.758,30.1,
1503,1,SBT2050,2,4,,2,8064,4.10229,2.936,1660.395,313.758,30.1,
1503,1,SBT2050,2,4,,2,8112,4.11799,2.9358,1699.541,313.758,30.1,
1503,1,SBT2050,2,4,,2,8160,4.13287,2.9357,1738.687,313.758,30.2,
1503,1,SBT2050,2,4,,2,8208,4.14842,2.9359,1777.833,313.758,30.2,
1503,1,SBT2050,2,4,,2,8256,4.15016,2.7331,1815.638,313.758,30.3,
1503,1,SBT2050,2,4,,2,8304,4.1499,2.5647,1850.927,313.758,30.1,
1503,1,SBT2050,2,4,,2,8352,4.15014,2.408,1884.067,313.758,30,
1503,1,SBT2050,2,4,,2,8400,4.15002,2.2617,1915.186,313.758,29.9,
1503,1,SBT2050,2,4,,2,8448,4.1502,2.1237,1944.413,313.758,29.7,
1503,1,SBT2050,2,4,,2,8496,4.149938,1.996,1971.874,313.758,29.5,
1503,1,SBT2050,2,4,,2,8544,4.15012,1.8752,1997.679,313.758,29.2,
1503,1,SBT2050,2,4,,2,8592,4.15008,1.7656,2021.945,313.758,29,
1503,1,SBT2050,2,4,,2,8640,4.14984,1.6612,2044.788,313.758,28.8,
1503,1,SBT2050,2,4,,2,8688,4.14984,1.5668,2066.305,313.758,28.6,
1503,1,SBT2050,2,4,,2,8736,4.149962,1.4795,2086.613,313.758,28.3,
1503,1,SBT2050,2,4,,2,8784,4.15015,1.3996,2105.807,313.758,28.1,
1503,1,SBT2050,2,4,,2,8832,4.14977,1.3251,2123.949,313.758,27.9,
1503,1,SBT2050,2,4,,2,8880,4.15007,1.2553,2141.141,313.758,27.7,
1503,1,SBT2050,2,4,,2,8928,4.14999,1.19,2157.438,313.758,27.6,
1503,1,SBT2050,2,4,,2,8976,4.15008,1.1317,2172.917,313.758,27.4,
1503,1,SBT2050,2,4,,2,9024,4.15009,1.078,2187.649,313.758,27.3,
1503,1,SBT2050,2,4,,2,9072,4.14999,1.0252,2201.657,313.758,27.1,
1503,1,SBT2050,2,4,,2,9120,4.149914,0.9781,2215.011,313.758,26.9,
1503,1,SBT2050,2,4,,2,9168,4.1501,0.9292,2227.739,313.758,26.8,
1503,1,SBT2050,2,4,,2,9216,4.14985,0.8908,2239.879,313.758,26.7,
1503,1,SBT2050,2,4,,2,9264,4.150212,0.8505,2251.493,313.758,26.6,
1503,1,SBT2050,2,4,,2,9312,4.15008,0.8141,2262.592,313.758,26.5,
1503,1,SBT2050,2,4,,2,9360,4.15001,0.779,2273.206,313.758,26.4,
1503,1,SBT2050,2,4,,2,9408,4.14999,0.7461,2283.366,313.758,26.3,
1503,1,SBT2050,2,4,,2,9456,4.15002,0.7157,2293.106,313.758,26.3,
1503,1,SBT2050,2,4,,2,9504,4.15031,0.6871,2302.451,313.758,26.2,
1503,1,SBT2050,2,4,,2,9552,4.15005,0.6611,2311.431,313.758,26.1,
1503,1,SBT2050,2,4,,2,9600,4.15018,0.6341,2320.061,313.758,26,
1503,1,SBT2050,2,4,,2,9648,4.1501,0.6092,2328.358,313.758,25.9,
1503,1,SBT2050,2,4,,2,9696,4.14997,0.5862,2336.335,313.758,25.9,
1503,1,SBT2050,2,4,,2,9744,4.15001,0.566,2344.014,313.758,25.9,
1503,1,SBT2050,2,4,,2,9792,4.15002,0.5456,2351.419,313.758,25.9,
1503,1,SBT2050,2,4,,2,9840,4.14995,0.5267,2358.559,313.758,25.8,
1503,1,SBT2050,2,4,,2,9888,4.14977,0.5078,2365.444,313.758,25.7,
1503,1,SBT2050,2,4,,2,9936,4.149962,0.4893,2372.085,313.758,25.7,
1503,1,SBT2050,2,4,,2,9984,4.15013,0.4729,2378.502,313.758,25.6,
1503,1,SBT2050,2,4,,2,10032,4.149926,0.45711,2384.7,313.758,25.6,
1503,1,SBT2050,2,4,,2,10080,4.14971,0.44195,2390.694,313.758,25.6,
1503,1,SBT2050,2,4,,2,10128,4.15016,0.42738,2396.497,313.758,25.6,
1503,1,SBT2050,2,4,,2,10176,4.15007,0.41507,2402.114,313.758,25.5,
1503,1,SBT2050,2,4,,2,10224,4.15013,0.40245,2407.553,313.758,25.5,
1503,1,SBT2050,2,4,,2,10272,4.149938,0.39002,2412.826,313.758,25.5,
1503,1,SBT2050,2,4,,2,10320,4.15005,0.37799,2417.941,313.758,25.4,
1503,1,SBT2050,2,4,,2,10368,4.15016,0.36639,2422.903,313.758,25.4,
1503,1,SBT2050,2,4,,2,10416,4.150224,0.35494,2427.716,313.758,25.4,
1503,1,SBT2050,2,4,,2,10464,4.149914,0.34636,2432.39,313.758,25.4,
1503,1,SBT2050,2,4,,2,10512,4.15008,0.33687,2436.944,313.758,25.4,
1503,1,SBT2050,2,4,,2,10560,4.14997,0.32729,2441.368,313.758,25.4,
1503,1,SBT2050,2,4,,2,10608,4.15001,0.31862,2445.68,313.758,25.4,
1503,1,SBT2050,2,4,,2,10656,4.14985,0.30981,2449.868,313.758,25.5,
1503,1,SBT2050,2,4,,2,10704,4.149938,0.30206,2453.944,313.758,25.5,
1503,1,SBT2050,2,4,,2,10752,4.15009,0.29413,2457.914,313.758,25.5,
1503,1,SBT2050,2,4,,2,10800,4.15019,0.28637,2461.785,313.758,25.4,
1503,1,SBT2050,2,4,,2,10848,4.15006,0.27973,2465.559,313.758,25.3,
1503,1,SBT2050,2,4,,2,10896,4.14982,0.27232,2469.237,313.758,25.3,
1503,1,SBT2050,2,4,,2,10944,4.149926,0.26578,2472.824,313.758,25.3,
1503,1,SBT2050,2,4,,2,10992,4.149938,0.25948,2476.322,313.758,25.3,
1503,1,SBT2050,2,4,,2,11040,4.15016,0.25284,2479.744,313.758,25.2,
1503,1,SBT2050,2,4,,2,11088,4.15003,0.2473,2483.088,313.758,25.2,
1503,1,SBT2050,2,4,,2,11136,4.1501,0.24197,2486.354,313.758,25.3,
1503,1,SBT2050,2,4,,2,11184,4.14999,0.23745,2489.551,313.758,25.2,
1503,1,SBT2050,2,4,,2,11232,4.14997,0.23178,2492.675,313.758,25.2,
1503,1,SBT2050,2,4,,2,11280,4.15002,0.22688,2495.734,313.758,25.2,
1503,1,SBT2050,2,4,,2,11328,4.15006,0.22182,2498.723,313.758,25.2,
1503,1,SBT2050,2,4,,2,11376,4.14983,0.21762,2501.649,313.758,25.2,
1503,1,SBT2050,2,4,,2,11424,4.149962,0.21271,2504.518,313.758,25.2,
1503,1,SBT2050,2,4,,2,11472,4.14995,0.20895,2507.327,313.758,25.2,
1503,1,SBT2050,2,4,,2,11520,4.15005,0.20457,2510.079,313.758,25.2,
1503,1,SBT2050,2,4,,2,11568,4.15007,0.20031,2512.785,313.758,25.2,
1503,1,SBT2050,2,4,,2,11616,4.15031,0.19623,2515.431,313.758,25.2,
1503,1,SBT2050,2,4,,2,11664,4.15,0.19277,2518.03,313.758,25.2,
1503,1,SBT2050,2,4,,2,11712,4.15003,0.18916,2520.576,313.758,25.1,
1503,1,SBT2050,2,4,,2,11760,4.15002,0.1853,2523.072,313.758,25.1,
1503,1,SBT2050,2,4,,2,11808,4.149914,0.18219,2525.521,313.758,25.1,
1503,1,SBT2050,2,4,,2,11856,4.14995,0.17892,2527.925,313.758,25.1,
1503,1,SBT2050,2,4,,2,11904,4.150224,0.17541,2530.283,313.758,25.1,
1503,1,SBT2050,2,4,,2,11952,4.14975,0.17241,2532.601,313.758,25.1,
1503,1,SBT2050,2,4,,2,12000,4.149914,0.16923,2534.876,313.758,25.1,
1503,1,SBT2050,2,4,,2,12048,4.15,0.16604,2537.108,313.758,25.1,
1503,1,SBT2050,2,4,,2,12096,4.15,0.16281,2539.3,313.758,25.1,
1503,1,SBT2050,2,4,,2,12144,4.15008,0.1594,2541.448,313.758,25.1,
1503,1,SBT2050,2,4,,2,12192,4.14999,0.15667,2543.557,313.758,25.2,
1503,1,SBT2050,2,4,,2,12240,4.150224,0.15413,2545.631,313.758,25.1,
1503,1,SBT2050,2,4,,2,12288,4.14995,0.15138,2547.67,313.758,25.1,
1503,1,SBT2050,2,4,,2,12336,4.15009,0.14935,2549.672,313.758,25.1,
1503,1,SBT2050,2,4,,2,12384,4.15026,0.14579,2551.636,313.758,25.1,
1503,1,SBT2050,2,4,,2,12432,4.15018,0.14308,2553.559,313.758,25.1,
1503,1,SBT2050,2,4,,2,12480,4.149962,0.14032,2555.454,313.758,25.1,
1503,1,SBT2050,2,4,,2,12528,4.15007,0.13848,2557.317,313.758,25.1,
1503,1,SBT2050,2,4,,2,12576,4.149962,0.13597,2559.147,313.758,25.1,
1503,1,SBT2050,2,4,,2,12624,4.15005,0.13418,2560.949,313.758,25.1,
1503,1,SBT2050,2,4,,2,12672,4.1501,0.13146,2562.719,313.758,25.1,
1503,1,SBT2050,2,4,,2,12720,4.15007,0.12934,2564.464,313.758,25,
1503,1,SBT2050,2,4,,2,12768,4.15008,0.12708,2566.173,313.758,25.1,
1503,1,SBT2050,2,4,,2,12816,4.14989,0.12531,2567.855,313.758,25.1,
1503,1,SBT2050,2,4,,2,12864,4.149962,0.12319,2569.511,313.758,25.1,
1503,1,SBT2050,2,4,,2,12912,4.14999,0.12102,2571.144,313.758,25.1,
1503,1,SBT2050,2,4,,2,12960,4.1499,0.11902,2572.744,313.758,25.1,
1503,1,SBT2050,2,4,,2,13008,4.15005,0.11703,2574.32,313.758,25.1,
1503,1,SBT2050,2,4,,2,13056,4.15007,0.11491,2575.87,313.758,25.1,
1503,1,SBT2050,2,4,,2,13104,4.15012,0.11344,2577.395,313.758,25.1,
1503,1,SBT2050,2,4,,2,13152,4.15015,0.11139,2578.891,313.758,25.1,
1503,1,SBT2050,2,4,,2,13200,4.14997,0.10984,2580.367,313.758,25.1,
1503,1,SBT2050,2,4,,2,13248,4.15002,0.10796,2581.819,313.758,25.1,
1503,1,SBT2050,2,4,,2,13296,4.15,0.10607,2583.247,313.758,25.1,
1503,1,SBT2050,2,4,,2,13344,4.14985,0.1049,2584.652,313.758,25.1,
1503,1,SBT2050,2,4,,2,13392,4.149938,0.10266,2586.034,313.758,25.1,
1503,1,SBT2050,2,4,,2,13440,4.15003,0.10129,2587.395,313.758,25.1,
1503,1,SBT2050,2,4,,2,13488,4.14999,0.10004,2588.736,313.758,25,
1503,1,SBT2050,2,4,,2,13536,4.15001,0.09866,2590.06,313.758,25,
1503,1,SBT2050,2,4,,2,13584,4.14987,0.0974,2591.365,313.758,25.1,
1503,1,SBT2050,2,4,,2,13632,4.15005,0.09576,2592.65,313.758,25.1,
1503,1,SBT2050,2,4,,2,13680,4.14997,0.09423,2593.916,313.758,25.1,
1503,1,SBT2050,2,4,,2,13728,4.150224,0.09285,2595.16,313.758,25.1,
1503,1,SBT2050,2,4,,2,13776,4.15001,0.09105,2596.39,313.758,25,
1503,1,SBT2050,2,4,,2,13824,4.15019,0.09027,2597.602,313.758,25,
1503,1,SBT2050,2,4,,2,13872,4.1501,0.08868,2598.796,313.758,25,
1503,1,SBT2050,2,4,,2,13920,4.14999,0.08747,2599.968,313.758,25,
1503,1,SBT2050,2,4,,2,13968,4.149938,0.086,2601.124,313.758,25,
1503,1,SBT2050,2,4,,2,14016,4.150236,0.08431,2602.258,313.758,25,
1503,1,SBT2050,2,4,,2,14064,4.149926,0.08337,2603.378,313.758,25,
1503,1,SBT2050,2,4,,2,14112,4.15009,0.0821,2604.485,313.758,25,
1503,1,SBT2050,2,4,,2,14160,4.14995,0.08099,2605.573,313.758,25,
1503,1,SBT2050,2,4,,2,14208,4.15012,0.08046,2606.651,313.758,25,
1503,1,SBT2050,2,4,,2,14256,4.15005,0.07911,2607.712,313.758,25,
1503,1,SBT2050,2,4,,2,14304,4.14988,0.07872,2608.758,313.758,25,
1503,1,SBT2050,2,4,,2,14352,4.149938,0.07657,2609.79,313.758,25.1,
1503,1,SBT2050,2,4,,2,14400,4.15013,0.07593,2610.807,313.758,25,
1503,1,SBT2050,2,4,,2,14448,4.15,0.07463,2611.809,313.758,25,
1503,1,SBT2050,2,4,,2,14496,4.15018,0.0739,2612.796,313.758,25,
1503,1,SBT2050,2,4,,2,14544,4.1501,0.07232,2613.77,313.758,25,
1503,1,SBT2050,2,4,,2,14592,4.15014,0.07149,2614.732,313.758,25,
1503,1,SBT2050,2,4,,2,14640,4.15001,0.07055,2615.679,313.758,25,
1503,1,SBT2050,2,4,,2,14688,4.14982,0.06976,2616.618,313.758,25,
1503,1,SBT2050,2,4,,2,14736,4.15006,0.0689,2617.541,313.758,25,
1503,1,SBT2050,2,4,,2,14784,4.15005,0.06767,2618.452,313.758,25,
1503,1,SBT2050,2,4,,2,14832,4.14987,0.06773,2619.351,313.758,25,
1503,1,SBT2050,2,4,,2,14880,4.14978,0.06652,2620.242,313.758,25,
1503,1,SBT2050,2,4,,2,14928,4.15006,0.065,2621.118,313.758,25,
1503,1,SBT2050,2,4,,2,14976,4.14995,0.06485,2621.982,313.758,25,
1503,1,SBT2050,2,4,,2,15024,4.15015,0.06324,2622.835,313.758,25,
1503,1,SBT2050,2,4,,2,15072,4.14997,0.06247,2623.676,313.758,25,
1503,1,SBT2050,2,4,,2,15120,4.14995,0.0621,2624.506,313.758,25,
1503,1,SBT2050,2,4,,2,15168,4.15009,0.0613,2625.327,313.758,25,
1503,1,SBT2050,2,4,,2,15216,4.149938,0.06069,2626.136,313.758,25,
1503,1,SBT2050,2,4,,2,15264,4.14989,0.05919,2626.934,313.758,25,
1503,1,SBT2050,2,4,,2,15312,4.14981,0.0588,2627.724,313.758,25,
1503,1,SBT2050,2,4,,2,15360,4.150212,0.05792,2628.502,313.758,25,
1503,1,SBT2050,2,4,,2,15408,4.15002,0.05736,2629.27,313.758,25,
1503,1,SBT2050,2,4,,2,15456,4.1499,0.05654,2630.031,313.758,25,
1503,1,SBT2050,2,4,,2,15504,4.149938,0.05619,2630.778,313.758,25,
1503,1,SBT2050,2,4,,2,15552,4.14984,0.05507,2631.516,313.758,25,
1503,1,SBT2050,2,4,,2,15600,4.14989,0.05424,2632.244,313.758,25,
1503,1,SBT2050,2,4,,2,15648,4.14987,0.05351,2632.964,313.758,25,
1503,1,SBT2050,2,4,,2,15696,4.150224,0.05311,2633.676,313.758,25,
1503,1,SBT2050,2,4,,2,15744,4.14984,0.05304,2634.379,313.758,25,
1503,1,SBT2050,2,4,,2,15792,4.149938,0.0517,2635.079,313.758,25,
1503,1,SBT2050,2,4,,2,15840,4.149914,0.0513,2635.764,313.758,25,
1503,1,SBT2050,2,4,,2,15888,4.15014,0.05076,2636.444,313.758,25,
1503,1,SBT2050,2,4,,2,15936,4.149926,0.05026,2637.116,313.758,24.9,
1503,1,SBT2050,2,4,,2,15984,4.15009,0.04955,2637.783,313.758,25,
1503,1,SBT2050,2,4,,2,16032,4.15012,0.04852,2638.438,313.758,25,
1503,1,SBT2050,2,4,,2,16080,4.15009,0.04858,2639.087,313.758,25,
1503,1,SBT2050,2,4,,2,16128,4.15019,0.047329,2639.728,313.758,25,
1503,1,SBT2050,2,4,,2,16176,4.15009,0.046968,2640.363,313.758,25,
1503,1,SBT2050,2,4,,2,16224,4.15008,0.046277,2640.983,313.758,25,
1503,1,SBT2050,2,4,,2,16272,4.149962,0.046147,2641.604,313.758,25,
1503,1,SBT2050,2,4,,2,16320,4.15005,0.045068,2642.211,313.758,25,
1503,1,SBT2050,2,4,,2,16368,4.15006,0.044629,2642.812,313.758,25,
1503,1,SBT2050,2,4,,2,16416,4.15002,0.044501,2643.406,313.758,25,
1503,1,SBT2050,2,4,,2,16464,4.14985,0.043743,2643.993,313.758,25,
1503,1,SBT2050,2,4,,2,16512,4.15008,0.043385,2644.576,313.758,25,
1503,1,SBT2050,2,4,,2,16560,4.149962,0.042878,2645.15,313.758,25,
1503,1,SBT2050,2,4,,2,16608,4.149914,0.042514,2645.722,313.758,25,
1503,1,SBT2050,2,4,,2,16656,4.14985,0.041736,2646.282,313.758,24.9,
1503,1,SBT2050,2,4,,2,16704,4.14985,0.041692,2646.837,313.758,25,
1503,1,SBT2050,2,4,,2,16752,4.15014,0.04082,2647.388,313.758,25,
1503,1,SBT2050,2,4,,2,16800,4.14997,0.040836,2647.933,313.758,25,
1503,1,SBT2050,2,4,,2,16848,4.149938,0.040224,2648.472,313.758,25,
1503,1,SBT2050,2,4,,2,16896,4.14981,0.040117,2649.007,313.758,25,
1503,1,SBT2050,2,4,,2,16944,4.15006,0.039144,2649.538,313.758,25,
1503,1,SBT2050,2,4,,2,16992,4.15026,0.039288,2650.065,313.758,24.9,
1503,1,SBT2050,2,4,,2,17040,4.15006,0.038038,2650.581,313.758,25,
1503,1,SBT2050,2,4,,2,17088,4.15,0.038033,2651.091,313.758,25,
1503,1,SBT2050,2,4,,2,17136,4.14976,0.037936,2651.599,313.758,25,
1503,1,SBT2050,2,4,,2,17184,4.15015,0.037487,2652.1,313.758,25,
1503,1,SBT2050,2,4,,2,17232,4.1501,0.037437,2652.596,313.758,25,
1503,1,SBT2050,2,4,,2,17280,4.15002,0.036591,2653.091,313.758,25,
1503,1,SBT2050,2,4,,2,17328,4.15007,0.036479,2653.579,313.758,25.1,
1503,1,SBT2050,2,4,,2,17376,4.15005,0.035952,2654.061,313.758,25,
1503,1,SBT2050,2,4,,2,17424,4.149962,0.03543,2654.534,313.758,25.1,
1503,1,SBT2050,2,4,,2,17472,4.15001,0.035198,2655.004,313.758,25,
1503,1,SBT2050,2,4,,2,17520,4.14999,0.035053,2655.471,313.758,25,
1503,1,SBT2050,2,4,,2,17568,4.15025,0.034519,2655.933,313.758,25,
1503,1,SBT2050,2,4,,2,17616,4.149914,0.03461,2656.391,313.758,25,
1503,1,SBT2050,2,4,,2,17664,4.149938,0.033683,2656.85,313.758,25,
1503,1,SBT2050,2,4,,2,17712,4.14995,0.033433,2657.297,313.758,25,
1503,1,SBT2050,2,4,,2,17760,4.15008,0.033463,2657.742,313.758,25,
1503,1,SBT2050,2,4,,2,17808,4.15043,0.03258,2658.181,313.758,25,
1503,1,SBT2050,2,4,,2,17856,4.14989,0.032046,2658.614,313.758,25,
1503,1,SBT2050,2,4,,2,17904,4.15014,0.032432,2659.045,313.758,25,
1503,1,SBT2050,2,4,,2,17952,4.14999,0.031426,2659.473,313.758,24.9,
1503,1,SBT2050,2,4,,2,18000,4.149914,0.031021,2659.89,313.758,24.9,
1503,1,SBT2050,2,4,,2,18048,4.14997,0.0312,2660.305,313.758,25,
1503,1,SBT2050,2,4,,2,18096,4.1502,0.030841,2660.718,313.758,25,
1503,1,SBT2050,2,4,,2,18144,4.15008,0.030278,2661.128,313.758,25,
1503,1,SBT2050,2,4,,2,18192,4.150212,0.030088,2661.533,313.758,25,
1503,1,SBT2050,2,4,,2,18240,4.14997,0.02998,2661.933,313.758,25,
1503,1,SBT2050,2,4,,2,18288,4.14983,0.029603,2662.331,313.758,25,
1503,1,SBT2050,2,4,,2,18336,4.15,0.029304,2662.723,313.758,25,
1503,1,SBT2050,2,4,,2,18384,4.15016,0.028904,2663.114,313.758,25,
1503,1,SBT2050,2,4,,2,18432,4.14985,0.029181,2663.502,313.758,25,
1503,1,SBT2050,2,4,,2,18480,4.15001,0.029075,2663.885,313.758,25,
1503,1,SBT2050,2,4,,2,18528,4.14975,0.028009,2664.265,313.758,25,
1503,1,SBT2050,2,4,,2,18576,4.15008,0.027763,2664.638,313.758,25,
1503,1,SBT2050,2,4,,2,18624,4.15012,0.027992,2665.009,313.758,25,
1503,1,SBT2050,2,4,,2,18672,4.14982,0.027267,2665.378,313.758,25,
1503,1,SBT2050,2,4,,2,18720,4.15012,0.027079,2665.74,313.758,25,
1503,1,SBT2050,2,4,,2,18768,4.15018,0.026785,2666.101,313.758,25,
1503,1,SBT2050,2,4,,2,18816,4.14995,0.02671,2666.46,313.758,25,
1503,1,SBT2050,2,4,,2,18864,4.1501,0.026745,2666.813,313.758,25,
1503,1,SBT2050,2,4,,2,18912,4.15025,0.025999,2667.165,313.758,25,
1503,1,SBT2050,2,4,,2,18960,4.15025,0.026096,2667.513,313.758,25,
1503,1,SBT2050,2,4,,2,19008,4.15003,0.02546,2667.861,313.758,25,
1503,1,SBT2050,2,4,,2,19056,4.14995,0.025466,2668.202,313.758,25.1,
1503,1,SBT2050,2,4,,2,19104,4.14976,0.025125,2668.54,313.758,25,
1503,1,SBT2050,2,4,,2,19152,4.149914,0.025081,2668.874,313.758,25.1,
1503,1,SBT2050,2,4,,2,19200,4.14978,0.025489,2669.207,313.758,25,
1503,1,SBT2050,2,4,,2,19248,4.15009,0.024104,2669.539,313.758,24.9,
1503,1,SBT2050,2,4,,2,19296,4.14977,0.024376,2669.862,313.758,24.9,
1503,1,SBT2050,2,4,,2,19344,4.15003,0.024121,2670.183,313.758,24.9,
1503,1,SBT2050,2,4,,2,19392,4.15002,0.023734,2670.503,313.758,24.9,
1503,1,SBT2050,2,4,,2,19440,4.15007,0.023329,2670.818,313.758,24.9,
1503,1,SBT2050,2,4,,2,19488,4.15005,0.023199,2671.129,313.758,24.8,
1503,1,SBT2050,2,4,,2,19536,4.15005,0.023259,2671.438,313.758,24.9,
1503,1,SBT2050,2,4,,2,19584,4.14997,0.022933,2671.746,313.758,24.9,
1503,1,SBT2050,2,4,,2,19632,4.1501,0.022474,2672.053,313.758,24.9,
1503,1,SBT2050,2,4,,2,19680,4.149962,0.022727,2672.356,313.758,24.9,
1503,1,SBT2050,2,4,,2,19728,4.15014,0.022097,2672.656,313.758,25,
1503,1,SBT2050,2,4,,2,19776,4.15,0.022378,2672.952,313.758,25,
1503,1,SBT2050,2,4,,2,19824,4.14989,0.022085,2673.247,313.758,24.9,
1503,1,SBT2050,2,4,,2,19872,4.149962,0.021855,2673.538,313.758,25,
1503,1,SBT2050,2,4,,2,19920,4.1497,0.022126,2673.831,313.758,25,
1503,1,SBT2050,2,4,,2,19968,4.14984,0.02178,2674.119,313.758,25,
1503,1,SBT2050,2,4,,2,20016,4.149962,0.022195,2674.411,313.758,25,
1503,1,SBT2050,2,4,,2,20064,4.14995,0.021573,2674.701,313.758,25,
1503,1,SBT2050,2,4,,2,20112,4.15018,0.020857,2674.981,313.758,24.9,
1503,1,SBT2050,2,4,,2,20160,4.14983,0.02084,2675.259,313.758,25,
1503,1,SBT2050,2,4,,2,20208,4.15013,0.020511,2675.535,313.758,25,
1503,1,SBT2050,2,4,,2,20256,4.14999,0.020027,2675.812,313.758,25,
1503,1,SBT2050,2,4,,2,20304,4.15016,0.020044,2676.082,313.758,25,
1503,1,SBT2050,2,4,,2,20352,4.14983,0.020195,2676.353,313.758,24.9,
1503,1,SBT2050,2,4,,2,20400,4.14997,0.019909,2676.62,313.758,24.9,
1503,1,SBT2050,2,4,,2,20448,4.15005,0.019398,2676.884,313.758,24.9,
1503,1,SBT2050,2,4,,2,20496,4.14969,0.019614,2677.146,313.758,25,
1503,1,SBT2050,2,4,,2,20544,4.15001,0.019322,2677.409,313.758,25,
1503,1,SBT2050,2,4,,2,20592,4.15,0.018939,2677.664,313.758,25,
1503,1,SBT2050,2,4,,2,20640,4.14984,0.018815,2677.918,313.758,25,
1503,1,SBT2050,2,4,,2,20688,4.15012,0.019408,2678.172,313.758,25,
1503,1,SBT2050,2,4,,2,20736,4.15016,0.019076,2678.426,313.758,25,
1503,1,SBT2050,2,4,,2,20784,4.15005,0.018263,2678.677,313.758,25,
1503,1,SBT2050,2,4,,2,20832,4.149962,0.018902,2678.924,313.758,25,
1503,1,SBT2050,2,4,,2,20880,4.15014,0.018337,2679.171,313.758,25,
1503,1,SBT2050,2,4,,2,20928,4.14982,0.018183,2679.413,313.758,25,
1503,1,SBT2050,2,4,,2,20976,4.150224,0.018037,2679.657,313.758,25,
1503,1,SBT2050,2,4,,2,21024,4.15009,0.017938,2679.898,313.758,25,
1503,1,SBT2050,2,4,,2,21072,4.15003,0.017656,2680.135,313.758,25,
1503,1,SBT2050,2,4,,2,21120,4.1499,0.017964,2680.372,313.758,25,
1503,1,SBT2050,2,4,,2,21168,4.149962,0.017823,2680.609,313.758,25,
1503,1,SBT2050,2,4,,2,21216,4.15009,0.017456,2680.843,313.758,25,
1503,1,SBT2050,2,4,,2,21264,4.14981,0.017653,2681.081,313.758,25.1,
1503,1,SBT2050,2,4,,2,21312,4.15002,0.017366,2681.314,313.758,25.1,
1503,1,SBT2050,2,4,,2,21360,4.15014,0.017734,2681.547,313.758,25.1,
1503,1,SBT2050,2,4,,2,21408,4.1503,0.016549,2681.775,313.758,25,
1503,1,SBT2050,2,4,,2,21456,4.15007,0.01657,2681.999,313.758,25,
1503,1,SBT2050,2,4,,2,21504,4.15012,0.015992,2682.216,313.758,25,
1503,1,SBT2050,2,4,,2,21552,4.15002,0.016619,2682.434,313.758,24.9,
1503,1,SBT2050,2,4,,2,21600,4.149962,0.016412,2682.651,313.758,24.9,
1503,1,SBT2050,2,4,,2,21648,4.15015,0.016332,2682.867,313.758,24.9,
1503,1,SBT2050,2,4,,2,21696,4.15009,0.015745,2683.082,313.758,24.9,
1503,1,SBT2050,2,4,,2,21744,4.15013,0.016023,2683.295,313.758,24.9,
1503,1,SBT2050,2,4,,2,21792,4.15005,0.015872,2683.509,313.758,24.9,
1503,1,SBT2050,2,4,,2,21840,4.15006,0.016411,2683.723,313.758,24.9,
1503,1,SBT2050,2,4,,2,21888,4.14995,0.015666,2683.934,313.758,24.9,
1503,1,SBT2050,2,4,,2,21936,4.15002,0.015631,2684.142,313.758,24.9,
1503,1,SBT2050,2,4,,2,21984,4.15002,0.015329,2684.349,313.758,25,
1503,1,SBT2050,2,4,,2,22032,4.14983,0.015342,2684.555,313.758,25,
1503,1,SBT2050,2,4,,2,22080,4.149926,0.015451,2684.762,313.758,25,
1503,1,SBT2050,2,4,,2,22128,4.15006,0.015382,2684.967,313.758,24.9,
1503,1,SBT2050,2,4,,2,22176,4.149962,0.015178,2685.17,313.758,24.9,
1503,1,SBT2050,2,4,,2,22224,4.14975,0.015181,2685.37,313.758,24.9,
1503,1,SBT2050,2,4,,2,22272,4.14989,0.014779,2685.569,313.758,24.9,
1503,1,SBT2050,2,4,,2,22320,4.15,0.014621,2685.765,313.758,25,
1503,1,SBT2050,2,4,,2,22368,4.15,0.014527,2685.961,313.758,25,
1503,1,SBT2050,2,4,,2,22416,4.15006,0.014563,2686.155,313.758,25,
1503,1,SBT2050,2,4,,2,22464,4.15012,0.013982,2686.348,313.758,25,
1503,1,SBT2050,2,4,,2,22512,4.15015,0.014448,2686.543,313.758,25,
1503,1,SBT2050,2,4,,2,22560,4.15003,0.013961,2686.734,313.758,25,
1503,1,SBT2050,2,4,,2,22608,4.14988,0.014397,2686.921,313.758,25,
1503,1,SBT2050,2,4,,2,22656,4.15006,0.013762,2687.109,313.758,25,
1503,1,SBT2050,2,4,,2,22704,4.15007,0.01377,2687.296,313.758,25,
1503,1,SBT2050,2,4,,2,22752,4.14989,0.013699,2687.479,313.758,25,
1503,1,SBT2050,2,4,,2,22800,4.15001,0.013829,2687.663,313.758,25,
1503,1,SBT2050,2,4,,2,22848,4.149962,0.013979,2687.851,313.758,24.9,
1503,1,SBT2050,2,4,,2,22896,4.14981,0.013667,2688.035,313.758,25,
1503,1,SBT2050,2,4,,2,22944,4.14997,0.013374,2688.216,313.758,24.9,
1503,1,SBT2050,2,4,,2,22992,4.14997,0.013602,2688.398,313.758,25,
1503,1,SBT2050,2,4,,2,23040,4.15013,0.013342,2688.578,313.758,25,
1503,1,SBT2050,2,4,,2,23088,4.149926,0.01353,2688.756,313.758,25,
1503,1,SBT2050,2,4,,2,23136,4.15008,0.012904,2688.934,313.758,25,
1503,1,SBT2050,2,4,,2,23184,4.1499,0.013116,2689.106,313.758,25,
1503,1,SBT2050,2,4,,2,23232,4.15009,0.013458,2689.279,313.758,25,
1503,1,SBT2050,2,4,,2,23280,4.14982,0.012752,2689.452,313.758,25,
1503,1,SBT2050,2,4,,2,23328,4.15,0.013464,2689.625,313.758,25,
1503,1,SBT2050,2,4,,2,23376,4.15003,0.012617,2689.797,313.758,25,
1503,1,SBT2050,2,4,,2,23424,4.150212,0.012079,2689.966,313.758,25,
1503,1,SBT2050,2,4,,2,23472,4.14987,0.012605,2690.134,313.758,25,
1503,1,SBT2050,2,4,,2,23520,4.14983,0.012804,2690.303,313.758,25.1,
1503,1,SBT2050,2,4,,2,23568,4.15006,0.012391,2690.469,313.758,25.1,
1503,1,SBT2050,2,4,,2,23616,4.14979,0.012303,2690.632,313.758,25.1,
1503,1,SBT2050,2,4,,2,23664,4.150212,0.012352,2690.794,313.758,25.1,
1503,1,SBT2050,2,4,,2,23712,4.149926,0.012021,2690.956,313.758,25.1,
1503,1,SBT2050,2,4,,2,23760,4.14984,0.011751,2691.116,313.758,25,
1503,1,SBT2050,2,4,,2,23808,4.14997,0.012051,2691.276,313.758,25,
1503,1,SBT2050,2,4,,2,23856,4.15008,0.011639,2691.439,313.758,24.9,
1503,1,SBT2050,2,4,,2,23904,4.15036,0.011219,2691.593,313.758,24.9,
1503,1,SBT2050,2,4,,2,23952,4.14989,0.011606,2691.747,313.758,24.9,
1503,1,SBT2050,2,4,,2,24000,4.14985,0.011921,2691.903,313.758,24.8,
1503,1,SBT2050,2,4,,2,24048,4.1502,0.011395,2692.056,313.758,24.8,
1503,1,SBT2050,2,4,,2,24096,4.149962,0.011405,2692.211,313.758,24.9,
1503,1,SBT2050,2,4,,2,24144,4.15001,0.011282,2692.364,313.758,24.9,
1503,1,SBT2050,2,4,,2,24192,4.1499,0.011128,2692.514,313.758,24.9,
1503,1,SBT2050,2,4,,2,24240,4.15016,0.011278,2692.664,313.758,24.9,
1503,1,SBT2050,2,4,,2,24288,4.150236,0.010921,2692.813,313.758,24.9,
1503,1,SBT2050,2,4,,2,24336,4.1501,0.010835,2692.961,313.758,24.9,
1503,1,SBT2050,2,4,,2,24384,4.15002,0.010752,2693.109,313.758,25,
1503,1,SBT2050,2,4,,2,24432,4.149926,0.010658,2693.253,313.758,25,
1503,1,SBT2050,2,4,,2,24480,4.14989,0.010509,2693.395,313.758,25,
1503,1,SBT2050,2,4,,2,24528,4.15013,0.010786,2693.538,313.758,24.9,
1503,1,SBT2050,2,4,,2,24576,4.15014,0.010485,2693.679,313.758,24.9,
1503,1,SBT2050,2,4,,3,24623,4.14836,0,2693.805,313.758,24.9,
1503,1,SBT2050,2,4,,3,24671,4.14752,0,2693.805,313.758,24.9,
1503,1,SBT2050,2,4,,3,24719,4.146736,0,2693.805,313.758,25,
1503,1,SBT2050,2,4,,3,24767,4.14656,0,2693.805,313.758,25,
1503,1,SBT2050,2,4,,3,24815,4.14638,0,2693.805,313.758,25,
1503,1,SBT2050,2,4,,3,24863,4.14625,0,2693.805,313.758,25,
1503,1,SBT2050,2,4,,3,24911,4.14598,0,2693.805,313.758,24.9,
1503,1,SBT2050,2,4,,3,24959,4.146,0,2693.805,313.758,24.9,
1503,1,SBT2050,2,4,,3,25007,4.14575,0,2693.805,313.758,24.9,
1503,1,SBT2050,2,4,,3,25055,4.145152,0,2693.805,313.758,25,
1503,1,SBT2050,2,4,,3,25103,4.14517,0,2693.805,313.758,25,
1503,1,SBT2050,2,4,,3,25151,4.14472,0,2693.805,313.758,25,
1503,1,SBT2050,2,4,,3,25199,4.14483,0,2693.805,313.758,25,
1503,1,SBT2050,2,4,,3,25247,4.144716,0,2693.805,313.758,25,
1503,1,SBT2050,2,4,,3,25295,4.144494,0,2693.805,313.758,25,
1503,1,SBT2050,2,4,,3,25343,4.144262,0,2693.805,313.758,25,
1503,1,SBT2050,2,4,,3,25391,4.14432,0,2693.805,313.758,24.9,
1503,1,SBT2050,2,4,,3,25439,4.14452,0,2693.805,313.758,25,
1503,1,SBT2050,2,4,,3,25487,4.14402,0,2693.805,313.758,25,
1503,1,SBT2050,2,4,,3,25535,4.14399,0,2693.805,313.758,25,
1503,1,SBT2050,2,4,,3,25583,4.14401,0,2693.805,313.758,25,
1503,1,SBT2050,2,4,,3,25631,4.14391,0,2693.805,313.758,25,
1503,1,SBT2050,2,4,,3,25679,4.14373,0,2693.805,313.758,25,
1503,1,SBT2050,2,4,,3,25727,4.14398,0,2693.805,313.758,25,
1503,1,SBT2050,2,4,,3,25775,4.14354,0,2693.805,313.758,25,
1503,1,SBT2050,2,4,,3,25823,4.14362,0,2693.805,313.758,25.1,
1503,1,SBT2050,2,4,,3,25871,4.14375,0,2693.805,313.758,25.1,
1503,1,SBT2050,2,4,,3,25919,4.14321,0,2693.805,313.758,25.1,
1503,1,SBT2050,2,4,,3,25967,4.14309,0,2693.805,313.758,25,
1503,1,SBT2050,2,4,,3,26015,4.14326,0,2693.805,313.758,25,
1503,1,SBT2050,2,4,,3,26063,4.14332,0,2693.805,313.758,25,
1503,1,SBT2050,2,4,,3,26111,4.14313,0,2693.805,313.758,25,
1503,1,SBT2050,2,4,,3,26159,4.14278,0,2693.805,313.758,24.9,
1503,1,SBT2050,2,4,,3,26207,4.14301,0,2693.805,313.758,24.9,
1503,1,SBT2050,2,4,,3,26255,4.142928,0,2693.805,313.758,24.9,
1503,1,SBT2050,2,4,,3,26303,4.14263,0,2693.805,313.758,24.8,
1503,1,SBT2050,2,4,,3,26351,4.14295,0,2693.805,313.758,24.8,
1503,1,SBT2050,2,4,,3,26399,4.14257,0,2693.805,313.758,24.9,
1503,1,SBT2050,2,4,,4,26446,3.80118,-2.9362,2693.805,335.694,25.1,
1503,1,SBT2050,2,4,,4,26494,3.75604,-2.9364,2693.805,374.84,25.8,
1503,1,SBT2050,2,4,,4,26542,3.73661,-2.9353,2693.805,413.986,26.5,
1503,1,SBT2050,2,4,,4,26590,3.72523,-2.9364,2693.805,453.131,27.1,
1503,1,SBT2050,2,4,,4,26638,3.71622,-2.9358,2693.805,492.277,27.5,
1503,1,SBT2050,2,4,,4,26686,3.70842,-2.9358,2693.805,531.423,27.9,
1503,1,SBT2050,2,4,,4,26734,3.70032,-2.936,2693.805,570.569,28.1,
1503,1,SBT2050,2,4,,4,26782,3.69222,-2.9358,2693.805,609.715,28.3,
1503,1,SBT2050,2,4,,4,26830,3.683142,-2.936,2693.805,648.86,28.5,
1503,1,SBT2050,2,4,,4,26878,3.67329,-2.9357,2693.805,688.006,28.6,
1503,1,SBT2050,2,4,,4,26926,3.66312,-2.936,2693.805,727.152,28.7,
1503,1,SBT2050,2,4,,4,26974,3.65217,-2.9357,2693.805,766.298,28.8,
1503,1,SBT2050,2,4,,4,27022,3.640982,-2.9362,2693.805,805.444,28.8,
1503,1,SBT2050,2,4,,4,27070,3.62934,-2.9357,2693.805,844.59,28.9,
1503,1,SBT2050,2,4,,4,27118,3.61716,-2.936,2693.805,883.735,28.9,
1503,1,SBT2050,2,4,,4,27166,3.60481,-2.9358,2693.805,922.881,28.9,
1503,1,SBT2050,2,4,,4,27214,3.59243,-2.9359,2693.805,962.027,28.9,
1503,1,SBT2050,2,4,,4,27262,3.57946,-2.9364,2693.805,1001.173,28.9,
1503,1,SBT2050,2,4,,4,27310,3.5662,-2.936,2693.805,1040.319,29,
1503,1,SBT2050,2,4,,4,27358,3.553086,-2.9361,2693.805,1079.465,29,
1503,1,SBT2050,2,4,,4,27406,3.53981,-2.9364,2693.805,1118.611,29,
1503,1,SBT2050,2,4,,4,27454,3.52637,-2.9359,2693.805,1157.757,29.1,
1503,1,SBT2050,2,4,,4,27502,3.51297,-2.9361,2693.805,1196.903,29.1,
1503,1,SBT2050,2,4,,4,27550,3.49961,-2.9361,2693.805,1236.049,29.1,
1503,1,SBT2050,2,4,,4,27598,3.48588,-2.9361,2693.805,1275.195,29.1,
1503,1,SBT2050,2,4,,4,27646,3.47202,-2.9354,2693.805,1314.341,29.1,
1503,1,SBT2050,2,4,,4,27694,3.4581,-2.9362,2693.805,1353.487,29.1,
1503,1,SBT2050,2,4,,4,27742,3.444912,-2.9363,2693.805,1392.633,29,
1503,1,SBT2050,2,4,,4,27790,3.43108,-2.9359,2693.805,1431.779,29.1,
1503,1,SBT2050,2,4,,4,27838,3.417414,-2.9361,2693.805,1470.925,29.1,
1503,1,SBT2050,2,4,,4,27886,3.4038,-2.9358,2693.805,1510.071,29.1,
1503,1,SBT2050,2,4,,4,27934,3.39015,-2.9355,2693.805,1549.217,29.1,
1503,1,SBT2050,2,4,,4,27982,3.37629,-2.9362,2693.805,1588.363,29.2,
1503,1,SBT2050,2,4,,4,28030,3.36253,-2.9357,2693.805,1627.509,29.2,
1503,1,SBT2050,2,4,,4,28078,3.3486,-2.936,2693.805,1666.655,29.2,
1503,1,SBT2050,2,4,,4,28126,3.33459,-2.936,2693.805,1705.801,29.3,
1503,1,SBT2050,2,4,,4,28174,3.32068,-2.9362,2693.805,1744.947,29.3,
1503,1,SBT2050,2,4,,4,28222,3.30635,-2.9359,2693.805,1784.093,29.4,
1503,1,SBT2050,2,4,,4,28270,3.29146,-2.936,2693.805,1823.239,29.5,
1503,1,SBT2050,2,4,,4,28318,3.276268,-2.936,2693.805,1862.385,29.5,
1503,1,SBT2050,2,4,,4,28366,3.260874,-2.9362,2693.805,1901.531,29.5,
1503,1,SBT2050,2,4,,4,28414,3.24479,-2.9358,2693.805,1940.677,29.6,
1503,1,SBT2050,2,4,,4,28462,3.22846,-2.9359,2693.805,1979.823,29.7,
1503,1,SBT2050,2,4,,4,28510,3.21138,-2.9354,2693.805,2018.969,29.8,
1503,1,SBT2050,2,4,,4,28558,3.19335,-2.9358,2693.805,2058.115,29.9,
1503,1,SBT2050,2,4,,4,28606,3.17418,-2.9361,2693.805,2097.261,29.9,
1503,1,SBT2050,2,4,,4,28654,3.15419,-2.9353,2693.805,2136.407,30,
1503,1,SBT2050,2,4,,4,28702,3.13336,-2.9359,2693.805,2175.553,30.1,
1503,1,SBT2050,2,4,,4,28750,3.11085,-2.9356,2693.805,2214.699,30.3,
1503,1,SBT2050,2,4,,4,28798,3.08731,-2.9357,2693.805,2253.845,30.6,
1503,1,SBT2050,2,4,,4,28846,3.06183,-2.9357,2693.805,2292.991,30.7,
1503,1,SBT2050,2,4,,4,28894,3.03435,-2.9361,2693.805,2332.137,30.9,
1503,1,SBT2050,2,4,,4,28942,3.00456,-2.9362,2693.805,2371.283,31.1,
1503,1,SBT2050,2,4,,4,28990,2.971478,-2.936,2693.805,2410.429,31.4,
1503,1,SBT2050,2,4,,4,29038,2.93475,-2.9358,2693.805,2449.575,31.6,
1503,1,SBT2050,2,4,,4,29086,2.89311,-2.9357,2693.805,2488.72,31.9,
1503,1,SBT2050,2,4,,4,29134,2.84345,-2.9359,2693.805,2527.866,32.3,
1503,1,SBT2050,2,4,,4,29182,2.78466,-2.9361,2693.805,2567.012,32.6,
1503,1,SBT2050,2,4,,4,29230,2.71188,-2.9364,2693.805,2606.158,33.1,
1503,1,SBT2050,2,4,,4,29278,2.61634,-2.9359,2693.805,2645.304,33.6,
1503,1,SBT2050,2,4,,4,29326,2.49967,-2.7579,2693.805,2684.219,34.4,
1503,1,SBT2050,2,4,,4,29374,2.49984,-2.225,2693.805,2717.12,34.8,
1503,1,SBT2050,2,4,,4,29422,2.49971,-1.847,2693.805,2744.167,34.9,
1503,1,SBT2050,2,4,,4,29470,2.49973,-1.5454,2693.805,2766.71,34.6,
1503,1,SBT2050,2,4,,4,29518,2.49983,-1.3031,2693.805,2785.644,34.1,
1503,1,SBT2050,2,4,,4,29566,2.4997,-1.1097,2693.805,2801.685,33.5,
1503,1,SBT2050,2,4,,4,29614,2.499934,-0.9538,2693.805,2815.402,33,
1503,1,SBT2050,2,4,,4,29662,2.50001,-0.8264,2693.805,2827.239,32.3,
1503,1,SBT2050,2,4,,4,29710,2.49985,-0.7242,2693.805,2837.554,31.6,
1503,1,SBT2050,2,4,,4,29758,2.49973,-0.642,2693.805,2846.647,31,
1503,1,SBT2050,2,4,,4,29806,2.49984,-0.5761,2693.805,2854.756,30.4,
1503,1,SBT2050,2,4,,4,29854,2.50005,-0.5226,2693.805,2862.066,29.9,
1503,1,SBT2050,2,4,,4,29902,2.49996,-0.4771,2693.805,2868.719,29.4,
1503,1,SBT2050,2,4,,4,29950,2.49986,-0.43911,2693.805,2874.816,29,
1503,1,SBT2050,2,4,,4,29998,2.4999,-0.40787,2693.805,2880.46,28.6,
1503,1,SBT2050,2,4,,4,30046,2.49987,-0.38168,2693.805,2885.722,28.4,
1503,1,SBT2050,2,4,,4,30094,2.4999,-0.35967,2693.805,2890.662,28.1,
1503,1,SBT2050,2,4,,4,30142,2.49999,-0.34039,2693.805,2895.324,27.8,
1503,1,SBT2050,2,4,,4,30190,2.499803,-0.32316,2693.805,2899.744,27.6,
1503,1,SBT2050,2,4,,4,30238,2.499934,-0.30818,2693.805,2903.95,27.5,
1503,1,SBT2050,2,4,,4,30286,2.499934,-0.29477,2693.805,2907.968,27.3,
1503,1,SBT2050,2,4,,4,30334,2.50005,-0.28238,2693.805,2911.814,27.1,
1503,1,SBT2050,2,4,,4,30382,2.50001,-0.27073,2693.805,2915.502,27,
1503,1,SBT2050,2,4,,4,30430,2.49983,-0.26001,2693.805,2919.043,26.9,
1503,1,SBT2050,2,4,,4,30478,2.500077,-0.25022,2693.805,2922.446,26.8,
1503,1,SBT2050,2,4,,4,30526,2.49986,-0.24069,2693.805,2925.719,26.7,
1503,1,SBT2050,2,4,,4,30574,2.49991,-0.23174,2693.805,2928.869,26.7,
1503,1,SBT2050,2,4,,4,30622,2.49997,-0.22292,2693.805,2931.898,26.5,
1503,1,SBT2050,2,4,,4,30670,2.49991,-0.2145,2693.805,2934.812,26.5,
1503,1,SBT2050,2,4,,4,30718,2.50002,-0.2064,2693.805,2937.617,26.4,
1503,1,SBT2050,2,4,,4,30766,2.49989,-0.19861,2693.805,2940.318,26.3,
1503,1,SBT2050,2,4,,4,30814,2.49984,-0.19115,2693.805,2942.917,26.2,
1503,1,SBT2050,2,4,,4,30862,2.49981,-0.18383,2693.805,2945.418,26,
1503,1,SBT2050,2,4,,4,30910,2.49987,-0.17692,2693.805,2947.823,26,
1503,1,SBT2050,2,4,,4,30958,2.49998,-0.17025,2693.805,2950.136,25.9,
1503,1,SBT2050,2,4,,4,31006,2.49998,-0.16396,2693.805,2952.364,25.9,
1503,1,SBT2050,2,4,,4,31054,2.49987,-0.15798,2693.805,2954.509,25.8,
1503,1,SBT2050,2,4,,4,31102,2.49983,-0.15203,2693.805,2956.574,25.8,
1503,1,SBT2050,2,4,,4,31150,2.499922,-0.1462,2693.805,2958.563,25.8,
1503,1,SBT2050,2,4,,4,31198,2.50007,-0.14095,2693.805,2960.478,25.8,
1503,1,SBT2050,2,4,,4,31246,2.49996,-0.13559,2693.805,2962.321,25.8,
1503,1,SBT2050,2,4,,4,31294,2.50003,-0.1305,2693.805,2964.095,25.7,
1503,1,SBT2050,2,4,,4,31342,2.50001,-0.12574,2693.805,2965.801,25.7,
1503,1,SBT2050,2,4,,4,31390,2.500089,-0.12101,2693.805,2967.444,25.7,
1503,1,SBT2050,2,4,,4,31438,2.49989,-0.11632,2693.805,2969.026,25.6,
1503,1,SBT2050,2,4,,4,31486,2.50003,-0.11196,2693.805,2970.549,25.6,
1503,1,SBT2050,2,4,,4,31534,2.50003,-0.1077,2693.805,2972.014,25.6,
1503,1,SBT2050,2,4,,4,31582,2.49998,-0.1038,2693.805,2973.424,25.5,
1503,1,SBT2050,2,4,,4,31630,2.49991,-0.09985,2693.805,2974.78,25.5,
1503,1,SBT2050,2,4,,4,31678,2.499946,-0.09574,2693.805,2976.084,25.5,
1503,1,SBT2050,2,4,,4,31726,2.49987,-0.09221,2693.805,2977.337,25.5,
1503,1,SBT2050,2,4,,4,31774,2.499803,-0.0885,2693.805,2978.542,25.4,
1503,1,SBT2050,2,4,,4,31822,2.499946,-0.08507,2693.805,2979.7,25.4,
1503,1,SBT2050,2,4,,4,31870,2.50007,-0.08199,2693.805,2980.813,25.4,
1503,1,SBT2050,2,4,,4,31918,2.500077,-0.07869,2693.805,2981.884,25.4,
1503,1,SBT2050,2,4,,4,31966,2.499779,-0.07567,2693.805,2982.914,25.3,
1503,1,SBT2050,2,4,,4,32014,2.49983,-0.07278,2693.805,2983.906,25.4,
1503,1,SBT2050,2,4,,4,32062,2.49999,-0.07025,2693.805,2984.86,25.3,
1503,1,SBT2050,2,4,,4,32110,2.50005,-0.06773,2693.805,2985.78,25.3,
1503,1,SBT2050,2,4,,4,32158,2.49983,-0.06529,2693.805,2986.666,25.3,
1503,1,SBT2050,2,4,,4,32206,2.50001,-0.06299,2693.805,2987.52,25.3,
1503,1,SBT2050,2,4,,4,32254,2.49984,-0.06064,2693.805,2988.343,25.3,
1503,1,SBT2050,2,4,,4,32302,2.49999,-0.05842,2693.805,2989.136,25.3,
1503,1,SBT2050,2,4,,4,32350,2.50004,-0.05648,2693.805,2989.902,25.3,
1503,1,SBT2050,2,4,,4,32398,2.49999,-0.05448,2693.805,2990.641,25.3,
1503,1,SBT2050,2,4,,4,32446,2.499934,-0.05259,2693.805,2991.354,25.3,
1503,1,SBT2050,2,4,,4,32494,2.50004,-0.05095,2693.805,2992.043,25.2,
1503,1,SBT2050,2,4,,4,32542,2.500089,-0.0491,2693.805,2992.71,25.2,
1503,1,SBT2050,2,4,,4,32590,2.49996,-0.047691,2693.805,2993.354,25.3,
1503,1,SBT2050,2,4,,4,32638,2.49997,-0.04608,2693.805,2993.978,25.3,
1503,1,SBT2050,2,4,,4,32686,2.49997,-0.044607,2693.805,2994.582,25.3,
1503,1,SBT2050,2,4,,4,32734,2.499922,-0.043238,2693.805,2995.168,25.3,
1503,1,SBT2050,2,4,,4,32782,2.4999,-0.041929,2693.805,2995.737,25.3,
1503,1,SBT2050,2,4,,4,32830,2.499791,-0.040677,2693.805,2996.288,25.3,
1503,1,SBT2050,2,4,,4,32878,2.49997,-0.039486,2693.805,2996.822,25.2,
1503,1,SBT2050,2,4,,4,32926,2.499946,-0.038312,2693.805,2997.341,25.3,
1503,1,SBT2050,2,4,,4,32974,2.49997,-0.0371,2693.805,2997.844,25.3,
1503,1,SBT2050,2,4,,4,33022,2.4999,-0.035885,2693.805,2998.331,25.2,
1503,1,SBT2050,2,4,,4,33070,2.50005,-0.034947,2693.805,2998.804,25.2,
1503,1,SBT2050,2,4,,4,33118,2.500089,-0.033918,2693.805,2999.264,25.2,
1503,1,SBT2050,2,4,,4,33166,2.49985,-0.032755,2693.805,2999.709,25.2,
1503,1,SBT2050,2,4,,4,33214,2.49996,-0.031867,2693.805,3000.141,25.1,
1503,1,SBT2050,2,4,,4,33262,2.50001,-0.030862,2693.805,3000.559,25,
1503,1,SBT2050,2,4,,4,33310,2.49991,-0.029738,2693.805,3000.965,25,
1503,1,SBT2050,2,4,,4,33358,2.50005,-0.02913,2693.805,3001.358,25,
1503,1,SBT2050,2,4,,4,33406,2.49997,-0.02805,2693.805,3001.739,25,
1503,1,SBT2050,2,4,,4,33454,2.50004,-0.027303,2693.805,3002.109,25.1,
1503,1,SBT2050,2,4,,4,33502,2.50003,-0.026369,2693.805,3002.466,25.1,
1503,1,SBT2050,2,4,,4,33550,2.50001,-0.025465,2693.805,3002.812,25.1,
1503,1,SBT2050,2,4,,4,33598,2.50002,-0.024594,2693.805,3003.146,25.1,
1503,1,SBT2050,2,4,,4,33646,2.499934,-0.023672,2693.805,3003.469,25.1,
1503,1,SBT2050,2,4,,4,33694,2.49996,-0.022953,2693.805,3003.781,25.1,
1503,1,SBT2050,2,4,,4,33742,2.49989,-0.022311,2693.805,3004.083,25.1,
1503,1,SBT2050,2,4,,4,33790,2.49987,-0.02162,2693.805,3004.375,25,
1503,1,SBT2050,2,4,,4,33838,2.499934,-0.020655,2693.805,3004.657,25.1,
1503,1,SBT2050,2,4,,4,33886,2.5002,-0.020004,2693.805,3004.929,25,
1503,1,SBT2050,2,4,,4,33934,2.50005,-0.019355,2693.805,3005.192,25.1,
1503,1,SBT2050,2,4,,4,33982,2.49998,-0.018918,2693.805,3005.447,25.1,
1503,1,SBT2050,2,4,,4,34030,2.50003,-0.018152,2693.805,3005.692,25.1,
1503,1,SBT2050,2,4,,4,34078,2.49985,-0.017306,2693.805,3005.929,25.1,
1503,1,SBT2050,2,4,,4,34126,2.50003,-0.016965,2693.805,3006.158,25,
1503,1,SBT2050,2,4,,4,34174,2.499922,-0.016335,2693.805,3006.379,25,
1503,1,SBT2050,2,4,,4,34222,2.49985,-0.015771,2693.805,3006.592,25,
1503,1,SBT2050,2,4,,4,34270,2.50012,-0.015214,2693.805,3006.798,25,
1503,1,SBT2050,2,4,,4,34318,2.499946,-0.014565,2693.805,3006.997,25,
1503,1,SBT2050,2,4,,4,34366,2.499791,-0.013926,2693.805,3007.189,25,
1503,1,SBT2050,2,4,,4,34414,2.50007,-0.013565,2693.805,3007.374,25,
1503,1,SBT2050,2,4,,4,34462,2.499922,-0.013078,2693.805,3007.552,25,
1503,1,SBT2050,2,4,,4,34510,2.50014,-0.012764,2693.805,3007.725,25,
1503,1,SBT2050,2,4,,4,34558,2.499946,-0.012457,2693.805,3007.891,25,
1503,1,SBT2050,2,4,,4,34606,2.50014,-0.011968,2693.805,3008.052,25,
1503,1,SBT2050,2,4,,4,34654,2.4999,-0.011418,2693.805,3008.207,25,
1503,1,SBT2050,2,4,,4,34702,2.49997,-0.010973,2693.805,3008.357,25,
1503,1,SBT2050,2,4,,4,34750,2.50007,-0.010702,2693.805,3008.502,25,
1503,1,SBT2050,2,4,,4,34798,2.4999,-0.010368,2693.805,3008.642,25,
1503,1,SBT2050,2,4,,5,34845,2.51841,0,2693.805,3008.708,25,
1503,1,SBT2050,2,4,,5,34893,2.54274,0,2693.805,3008.708,25,
1503,1,SBT2050,2,4,,5,34941,2.56274,0,2693.805,3008.708,25,
1503,1,SBT2050,2,4,,5,34989,2.58076,0,2693.805,3008.708,25,
1503,1,SBT2050,2,4,,5,35037,2.597,0,2693.805,3008.708,25,
1503,1,SBT2050,2,4,,5,35085,2.61122,0,2693.805,3008.708,25,
1503,1,SBT2050,2,4,,5,35133,2.62411,0,2693.805,3008.708,25,
1503,1,SBT2050,2,4,,5,35181,2.635744,0,2693.805,3008.708,25.1,
1503,1,SBT2050,2,4,,5,35229,2.64628,0,2693.805,3008.708,25.1,
1503,1,SBT2050,2,4,,5,35277,2.65571,0,2693.805,3008.708,25.1,
1503,1,SBT2050,2,4,,5,35325,2.66462,0,2693.805,3008.708,25.1,
1503,1,SBT2050,2,4,,5,35373,2.6724,0,2693.805,3008.708,25.1,
1503,1,SBT2050,2,4,,5,35421,2.67948,0,2693.805,3008.708,25.1,
1503,1,SBT2050,2,4,,5,35469,2.686191,0,2693.805,3008.708,25,
1503,1,SBT2050,2,4,,5,35517,2.69222,0,2693.805,3008.708,25,
1503,1,SBT2050,2,4,,5,35565,2.69788,0,2693.805,3008.708,24.9,
1503,1,SBT2050,2,4,,5,35613,2.70318,0,2693.805,3008.708,24.9,
1503,1,SBT2050,2,4,,5,35661,2.70811,0,2693.805,3008.708,24.9,
1503,1,SBT2050,2,4,,5,35709,2.71274,0,2693.805,3008.708,24.9,
1503,1,SBT2050,2,4,,5,35757,2.71701,0,2693.805,3008.708,24.9,
1503,1,SBT2050,2,4,,5,35805,2.721115,0,2693.805,3008.708,24.9,
1503,1,SBT2050,2,4,,5,35853,2.72461,0,2693.805,3008.708,24.9,
1503,1,SBT2050,2,4,,5,35901,2.72835,0,2693.805,3008.708,24.9,
1503,1,SBT2050,2,4,,5,35949,2.7317,0,2693.805,3008.708,24.9,
1503,1,SBT2050,2,4,,5,35997,2.73484,0,2693.805,3008.708,25,
1503,1,SBT2050,2,4,,5,36045,2.737775,0,2693.805,3008.708,25,
1503,1,SBT2050,2,4,,5,36093,2.74061,0,2693.805,3008.708,25,
1503,1,SBT2050,2,4,,5,36141,2.7434,0,2693.805,3008.708,25,
1503,1,SBT2050,2,4,,5,36189,2.74593,0,2693.805,3008.708,24.9,
1503,1,SBT2050,2,4,,5,36237,2.74858,0,2693.805,3008.708,25,
1503,1,SBT2050,2,4,,5,36285,2.75086,0,2693.805,3008.708,24.9,
1503,1,SBT2050,2,4,,5,36333,2.75328,0,2693.805,3008.708,25,
1503,1,SBT2050,2,4,,5,36381,2.75541,0,2693.805,3008.708,25,
1503,1,SBT2050,2,4,,5,36429,2.75756,0,2693.805,3008.708,25,
1503,1,SBT2050,2,4,,5,36477,2.75964,0,2693.805,3008.708,25,
1503,1,SBT2050,2,4,,5,36525,2.76131,0,2693.805,3008.708,25,
1503,1,SBT2050,2,4,,5,36573,2.76328,0,2693.805,3008.708,25,
1503,1,SBT2050,2,4,,5,36621,2.765319,0,2693.805,3008.708,24.9,
1503,1,SBT2050,2,4,,5,36621.218,2.76521,-0.0001,2693.805,3008.708,,