File: 1C/Test1499.csv
Request Year:,2018,,,,,,,,,,,,
Test:,1499,,,,,,,,,,,,
Test Description:,,,,,,,,,,,,,
TestRegime Name:,Aging_Performance,,,,,,,,,,,,
TestRegime Suffix:,SHP_LC,,,,,,,,,,,,
TestRegime CellSize:,18650,,,,,,,,,,,,
TestRegime Version:,1,,,,,,,,,,,,
Number Of Cells:,1,,,,,,,,,,,,
LotID:,,,,,,,,,,,,,
Lot Description:,,,,,,,,,,,,,
Date Made:,1/21/2003 12:00 AM,,,,,,,,,,,,
Origin:,Other,,,,,,,,,,,,
Requestor:,Admin,,,,,,,,,,,,
Product ID:,Default product,,,,,,,,,,,,
Storage Temp:,R.T./AMB,,,,,,,,,,,,
Storage Delay:,0 days,,,,,,,,,,,,
Test Temp:,R.T./AMB,,,,,,,,,,,,
Start Time:,4/13/2018 9:43 AM,,,,,,,,,,,,
End Time:,4/13/2018 6:36 PM,,,,,,,,,,,,
Operator Instructions:,,,,,,,,,,,,,
Test,Cell,Rack,Shelf,Position,Cell ID,Step,Total Time (Seconds),Voltage (V),Current (A),Charge Capacity (mAh),Discharge Capacity (mAh),TC1 (Â°C),
1499,1,SBT2050,2,4,,0,1,3.35308,0,0,0,24.4,
1499,1,SBT2050,2,4,,0,42,3.3532,0,0,0,24.4,
1499,1,SBT2050,2,4,,0,83,3.35331,0,0,0,24.5,
1499,1,SBT2050,2,4,,0,124,3.35299,0,0,0,24.6,
1499,1,SBT2050,2,4,,0,165,3.35316,0,0,0,24.6,
1499,1,SBT2050,2,4,,0,206,3.35326,0,0,0,24.7,
1499,1,SBT2050,2,4,,0,247,3.35335,0,0,0,24.7,
1499,1,SBT2050,2,4,,0,288,3.353375,0,0,0,24.6,
1499,1,SBT2050,2,4,,1,329,2.51837,-2.9359,0,23.65,25.3,
1499,1,SBT2050,2,4,,1,370,2.49985,-1.7642,0,47.72,26.7,
1499,1,SBT2050,2,4,,1,411,2.49991,-1.4901,0,66.105,27.6,
1499,1,SBT2050,2,4,,1,452,2.49987,-1.3019,0,81.963,28.2,
1499,1,SBT2050,2,4,,1,493,2.49973,-1.136,0,95.833,28.5,
1499,1,SBT2050,2,4,,1,534,2.499826,-0.9966,0,107.955,28.6,
1499,1,SBT2050,2,4,,1,575,2.49975,-0.883,0,118.636,28.6,
1499,1,SBT2050,2,4,,1,616,2.499695,-0.7893,0,128.146,28.6,
1499,1,SBT2050,2,4,,1,657,2.4999,-0.7115,0,136.683,28.5,
1499,1,SBT2050,2,4,,1,698,2.50002,-0.6442,0,144.389,28.4,
1499,1,SBT2050,2,4,,1,739,2.49981,-0.5856,0,151.379,28.3,
1499,1,SBT2050,2,4,,1,780,2.49996,-0.5349,0,157.751,28.1,
1499,1,SBT2050,2,4,,1,821,2.49978,-0.49,0,163.583,28,
1499,1,SBT2050,2,4,,1,862,2.499838,-0.45034,0,168.935,27.8,
1499,1,SBT2050,2,4,,1,903,2.49991,-0.41574,0,173.863,27.7,
1499,1,SBT2050,2,4,,1,944,2.49979,-0.38567,0,178.424,27.5,
1499,1,SBT2050,2,4,,1,985,2.49986,-0.3587,0,182.66,27.3,
1499,1,SBT2050,2,4,,1,1026,2.49991,-0.33536,0,186.61,27.2,
1499,1,SBT2050,2,4,,1,1067,2.49985,-0.31477,0,190.309,27,
1499,1,SBT2050,2,4,,1,1108,2.49989,-0.2957,0,193.782,26.8,
1499,1,SBT2050,2,4,,1,1149,2.49981,-0.27841,0,197.051,26.7,
1499,1,SBT2050,2,4,,1,1190,2.49986,-0.26284,0,200.132,26.6,
1499,1,SBT2050,2,4,,1,1231,2.49993,-0.24853,0,203.041,26.4,
1499,1,SBT2050,2,4,,1,1272,2.499981,-0.23563,0,205.797,26.3,
1499,1,SBT2050,2,4,,1,1313,2.4999,-0.22396,0,208.415,26.2,
1499,1,SBT2050,2,4,,1,1354,2.49992,-0.21399,0,210.909,26.2,
1499,1,SBT2050,2,4,,1,1395,2.50005,-0.20415,0,213.288,26,
1499,1,SBT2050,2,4,,1,1436,2.49979,-0.195,0,215.561,26,
1499,1,SBT2050,2,4,,1,1477,2.49989,-0.18648,0,217.733,25.9,
1499,1,SBT2050,2,4,,1,1518,2.49977,-0.17889,0,219.814,25.9,
1499,1,SBT2050,2,4,,1,1559,2.4998,-0.1714,0,221.81,25.9,
1499,1,SBT2050,2,4,,1,1600,2.49989,-0.16514,0,223.727,25.9,
1499,1,SBT2050,2,4,,1,1641,2.499993,-0.15867,0,225.57,25.8,
1499,1,SBT2050,2,4,,1,1682,2.49995,-0.15289,0,227.344,25.8,
1499,1,SBT2050,2,4,,1,1723,2.4999,-0.14697,0,229.051,25.8,
1499,1,SBT2050,2,4,,1,1764,2.49986,-0.14139,0,230.694,25.8,
1499,1,SBT2050,2,4,,1,1805,2.499838,-0.13604,0,232.276,25.8,
1499,1,SBT2050,2,4,,1,1846,2.4999,-0.13127,0,233.799,25.8,
1499,1,SBT2050,2,4,,1,1887,2.499993,-0.12672,0,235.267,25.8,
1499,1,SBT2050,2,4,,1,1928,2.49986,-0.12223,0,236.684,25.7,
1499,1,SBT2050,2,4,,1,1969,2.49995,-0.11803,0,238.052,25.7,
1499,1,SBT2050,2,4,,1,2010,2.499969,-0.11408,0,239.373,25.7,
1499,1,SBT2050,2,4,,1,2051,2.50003,-0.11017,0,240.648,25.6,
1499,1,SBT2050,2,4,,1,2092,2.49992,-0.10635,0,241.88,25.6,
1499,1,SBT2050,2,4,,1,2133,2.499993,-0.10268,0,243.07,25.5,
1499,1,SBT2050,2,4,,1,2174,2.49995,-0.09965,0,244.221,25.6,
1499,1,SBT2050,2,4,,1,2215,2.5,-0.09615,0,245.336,25.5,
1499,1,SBT2050,2,4,,1,2256,2.5,-0.09313,0,246.414,25.5,
1499,1,SBT2050,2,4,,1,2297,2.49992,-0.09009,0,247.457,25.5,
1499,1,SBT2050,2,4,,1,2338,2.499981,-0.08699,0,248.466,25.5,
1499,1,SBT2050,2,4,,1,2379,2.49995,-0.08416,0,249.44,25.4,
1499,1,SBT2050,2,4,,1,2420,2.49993,-0.0814,0,250.384,25.4,
1499,1,SBT2050,2,4,,1,2461,2.499981,-0.07899,0,251.296,25.4,
1499,1,SBT2050,2,4,,1,2502,2.49986,-0.07637,0,252.181,25.4,
1499,1,SBT2050,2,4,,1,2543,2.49996,-0.07393,0,253.037,25.4,
1499,1,SBT2050,2,4,,1,2584,2.49992,-0.07132,0,253.864,25.4,
1499,1,SBT2050,2,4,,1,2625,2.50009,-0.06915,0,254.665,25.4,
1499,1,SBT2050,2,4,,1,2666,2.50004,-0.06682,0,255.438,25.3,
1499,1,SBT2050,2,4,,1,2707,2.499981,-0.06471,0,256.186,25.3,
1499,1,SBT2050,2,4,,1,2748,2.49995,-0.06244,0,256.91,25.3,
1499,1,SBT2050,2,4,,1,2789,2.49989,-0.06038,0,257.611,25.3,
1499,1,SBT2050,2,4,,1,2830,2.50003,-0.05874,0,258.289,25.2,
1499,1,SBT2050,2,4,,1,2871,2.5,-0.05665,0,258.945,25.3,
1499,1,SBT2050,2,4,,1,2912,2.499969,-0.05468,0,259.579,25.3,
1499,1,SBT2050,2,4,,1,2953,2.50005,-0.05278,0,260.192,25.2,
1499,1,SBT2050,2,4,,1,2994,2.5,-0.05139,0,260.785,25.3,
1499,1,SBT2050,2,4,,1,3035,2.49996,-0.04954,0,261.359,25.3,
1499,1,SBT2050,2,4,,1,3076,2.49996,-0.04806,0,261.914,25.3,
1499,1,SBT2050,2,4,,1,3117,2.50005,-0.046305,0,262.45,25.2,
1499,1,SBT2050,2,4,,1,3158,2.5,-0.044718,0,262.968,25.2,
1499,1,SBT2050,2,4,,1,3199,2.499981,-0.043304,0,263.468,25.2,
1499,1,SBT2050,2,4,,1,3240,2.50002,-0.042006,0,263.952,25.2,
1499,1,SBT2050,2,4,,1,3281,2.49981,-0.040439,0,264.421,25.2,
1499,1,SBT2050,2,4,,1,3322,2.49985,-0.038887,0,264.875,25.2,
1499,1,SBT2050,2,4,,1,3363,2.49991,-0.037809,0,265.314,25.2,
1499,1,SBT2050,2,4,,1,3404,2.49987,-0.036668,0,265.739,25.2,
1499,1,SBT2050,2,4,,1,3445,2.499826,-0.035423,0,266.15,25.2,
1499,1,SBT2050,2,4,,1,3486,2.499981,-0.03459,0,266.548,25.1,
1499,1,SBT2050,2,4,,1,3527,2.50009,-0.033418,0,266.934,25.2,
1499,1,SBT2050,2,4,,1,3568,2.50003,-0.032391,0,267.309,25.2,
1499,1,SBT2050,2,4,,1,3609,2.50004,-0.031423,0,267.672,25.2,
1499,1,SBT2050,2,4,,1,3650,2.50004,-0.030533,0,268.024,25.1,
1499,1,SBT2050,2,4,,1,3691,2.49991,-0.029331,0,268.365,25.1,
1499,1,SBT2050,2,4,,1,3732,2.4999,-0.028427,0,268.695,25.2,
1499,1,SBT2050,2,4,,1,3773,2.50009,-0.027674,0,269.015,25.2,
1499,1,SBT2050,2,4,,1,3814,2.50009,-0.026842,0,269.326,25.1,
1499,1,SBT2050,2,4,,1,3855,2.499969,-0.025947,0,269.626,25.1,
1499,1,SBT2050,2,4,,1,3896,2.49989,-0.025238,0,269.918,25.1,
1499,1,SBT2050,2,4,,1,3937,2.5,-0.024285,0,270.2,25.1,
1499,1,SBT2050,2,4,,1,3978,2.49985,-0.023543,0,270.473,25.1,
1499,1,SBT2050,2,4,,1,4019,2.50008,-0.022858,0,270.737,25.1,
1499,1,SBT2050,2,4,,1,4060,2.499981,-0.022017,0,270.992,25.1,
1499,1,SBT2050,2,4,,1,4101,2.499981,-0.021359,0,271.24,25.1,
1499,1,SBT2050,2,4,,1,4142,2.49993,-0.020736,0,271.48,25.1,
1499,1,SBT2050,2,4,,1,4183,2.50005,-0.020112,0,271.712,25.1,
1499,1,SBT2050,2,4,,1,4224,2.50005,-0.01946,0,271.936,25.1,
1499,1,SBT2050,2,4,,1,4265,2.500124,-0.018928,0,272.153,25.1,
1499,1,SBT2050,2,4,,1,4306,2.50006,-0.018121,0,272.363,25.1,
1499,1,SBT2050,2,4,,1,4347,2.5001,-0.01754,0,272.565,25.1,
1499,1,SBT2050,2,4,,1,4388,2.50006,-0.016816,0,272.76,25.1,
1499,1,SBT2050,2,4,,1,4429,2.499981,-0.016182,0,272.949,25.1,
1499,1,SBT2050,2,4,,1,4470,2.499993,-0.01581,0,273.132,25.1,
1499,1,SBT2050,2,4,,1,4511,2.50002,-0.01506,0,273.308,25.1,
1499,1,SBT2050,2,4,,1,4552,2.49996,-0.01468,0,273.478,25.1,
1499,1,SBT2050,2,4,,1,4593,2.49987,-0.013963,0,273.641,25,
1499,1,SBT2050,2,4,,1,4634,2.4999,-0.013541,0,273.799,25,
1499,1,SBT2050,2,4,,1,4675,2.499826,-0.013013,0,273.95,25,
1499,1,SBT2050,2,4,,1,4716,2.50004,-0.012709,0,274.097,25.1,
1499,1,SBT2050,2,4,,1,4757,2.49991,-0.01212,0,274.238,25.1,
1499,1,SBT2050,2,4,,1,4798,2.50016,-0.011776,0,274.373,25.1,
1499,1,SBT2050,2,4,,1,4839,2.499993,-0.011275,0,274.504,25.1,
1499,1,SBT2050,2,4,,1,4880,2.499993,-0.01077,0,274.63,25.1,
1499,1,SBT2050,2,4,,1,4921,2.4998,-0.010409,0,274.751,25.1,
1499,1,SBT2050,2,4,,2,4961,3.214417,2.9359,12.718,274.82,25.1,
1499,1,SBT2050,2,4,,2,5002,3.44269,2.936,46.155,274.82,25.4,
1499,1,SBT2050,2,4,,2,5043,3.55666,2.9364,79.592,274.82,25.7,
1499,1,SBT2050,2,4,,2,5084,3.61763,2.9358,113.03,274.82,26.1,
1499,1,SBT2050,2,4,,2,5125,3.63437,2.9365,146.467,274.82,26.5,
1499,1,SBT2050,2,4,,2,5166,3.64547,2.9359,179.904,274.82,26.9,
1499,1,SBT2050,2,4,,2,5207,3.65683,2.9367,213.341,274.82,27.3,
1499,1,SBT2050,2,4,,2,5248,3.66847,2.9358,246.779,274.82,27.7,
1499,1,SBT2050,2,4,,2,5289,3.67977,2.936,280.216,274.82,28,
1499,1,SBT2050,2,4,,2,5330,3.69043,2.9357,313.653,274.82,28.2,
1499,1,SBT2050,2,4,,2,5371,3.70026,2.9358,347.09,274.82,28.5,
1499,1,SBT2050,2,4,,2,5412,3.709564,2.9366,380.528,274.82,28.6,
1499,1,SBT2050,2,4,,2,5453,3.71766,2.9359,413.965,274.82,28.7,
1499,1,SBT2050,2,4,,2,5494,3.724316,2.9358,447.402,274.82,28.8,
1499,1,SBT2050,2,4,,2,5535,3.73033,2.9358,480.839,274.82,28.9,
1499,1,SBT2050,2,4,,2,5576,3.73617,2.9357,514.277,274.82,28.9,
1499,1,SBT2050,2,4,,2,5617,3.741902,2.9362,547.714,274.82,29,
1499,1,SBT2050,2,4,,2,5658,3.74769,2.9358,581.151,274.82,29,
1499,1,SBT2050,2,4,,2,5699,3.75419,2.9357,614.588,274.82,29,
1499,1,SBT2050,2,4,,2,5740,3.76099,2.9358,648.025,274.82,29,
1499,1,SBT2050,2,4,,2,5781,3.768094,2.9362,681.463,274.82,29,
1499,1,SBT2050,2,4,,2,5822,3.77507,2.9361,714.9,274.82,29.1,
1499,1,SBT2050,2,4,,2,5863,3.7822,2.9358,748.337,274.82,29.1,
1499,1,SBT2050,2,4,,2,5904,3.78891,2.9362,781.774,274.82,29,
1499,1,SBT2050,2,4,,2,5945,3.79634,2.9356,815.211,274.82,29,
1499,1,SBT2050,2,4,,2,5986,3.80363,2.9361,848.649,274.82,29,
1499,1,SBT2050,2,4,,2,6027,3.810482,2.9359,882.086,274.82,29,
1499,1,SBT2050,2,4,,2,6068,3.81803,2.9357,915.523,274.82,29,
1499,1,SBT2050,2,4,,2,6109,3.826,2.9361,948.96,274.82,29,
1499,1,SBT2050,2,4,,2,6150,3.83413,2.9357,982.398,274.82,29,
1499,1,SBT2050,2,4,,2,6191,3.84221,2.9361,1015.835,274.82,29,
1499,1,SBT2050,2,4,,2,6232,3.850608,2.9358,1049.272,274.82,29,
1499,1,SBT2050,2,4,,2,6273,3.85957,2.9358,1082.709,274.82,29.1,
1499,1,SBT2050,2,4,,2,6314,3.86816,2.9357,1116.146,274.82,29.1,
1499,1,SBT2050,2,4,,2,6355,3.87827,2.9355,1149.584,274.82,29,
1499,1,SBT2050,2,4,,2,6396,3.88831,2.9361,1183.021,274.82,29.1,
1499,1,SBT2050,2,4,,2,6437,3.89829,2.9358,1216.458,274.82,29.1,
1499,1,SBT2050,2,4,,2,6478,3.90867,2.9358,1249.895,274.82,29.1,
1499,1,SBT2050,2,4,,2,6519,3.91979,2.9359,1283.333,274.82,29.2,
1499,1,SBT2050,2,4,,2,6560,3.93058,2.9356,1316.77,274.82,29.2,
1499,1,SBT2050,2,4,,2,6601,3.94218,2.9358,1350.207,274.82,29.3,
1499,1,SBT2050,2,4,,2,6642,3.95364,2.9361,1383.644,274.82,29.3,
1499,1,SBT2050,2,4,,2,6683,3.965376,2.9356,1417.082,274.82,29.3,
1499,1,SBT2050,2,4,,2,6724,3.97757,2.9356,1450.519,274.82,29.3,
1499,1,SBT2050,2,4,,2,6765,3.98946,2.9359,1483.956,274.82,29.4,
1499,1,SBT2050,2,4,,2,6806,4.00169,2.936,1517.393,274.82,29.4,
1499,1,SBT2050,2,4,,2,6847,4.01366,2.9358,1550.831,274.82,29.5,
1499,1,SBT2050,2,4,,2,6888,4.02593,2.9364,1584.268,274.82,29.5,
1499,1,SBT2050,2,4,,2,6929,4.03875,2.9361,1617.705,274.82,29.6,
1499,1,SBT2050,2,4,,2,6970,4.05126,2.9357,1651.142,274.82,29.6,
1499,1,SBT2050,2,4,,2,7011,4.06392,2.936,1684.579,274.82,29.6,
1499,1,SBT2050,2,4,,2,7052,4.076572,2.9362,1718.017,274.82,29.6,
1499,1,SBT2050,2,4,,2,7093,4.0891,2.9365,1751.454,274.82,29.7,
1499,1,SBT2050,2,4,,2,7134,4.10218,2.9357,1784.891,274.82,29.7,
1499,1,SBT2050,2,4,,2,7175,4.11548,2.9364,1818.328,274.82,29.7,
1499,1,SBT2050,2,4,,2,7216,4.12829,2.9363,1851.766,274.82,29.8,
1499,1,SBT2050,2,4,,2,7257,4.141866,2.936,1885.203,274.82,29.8,
1499,1,SBT2050,2,4,,2,7298,4.15022,2.8379,1918.409,274.82,29.8,
1499,1,SBT2050,2,4,,2,7339,4.15001,2.6651,1949.7,274.82,29.8,
1499,1,SBT2050,2,4,,2,7380,4.14991,2.5169,1979.194,274.82,29.8,
1499,1,SBT2050,2,4,,2,7421,4.14982,2.3804,2007.065,274.82,29.6,
1499,1,SBT2050,2,4,,2,7462,4.15002,2.2472,2033.414,274.82,29.5,
1499,1,SBT2050,2,4,,2,7503,4.15013,2.1215,2058.283,274.82,29.3,
1499,1,SBT2050,2,4,,2,7544,4.150032,2.0068,2081.785,274.82,29.1,
1499,1,SBT2050,2,4,,2,7585,4.15009,1.8948,2103.985,274.82,29,
1499,1,SBT2050,2,4,,2,7626,4.1499,1.7908,2124.967,274.82,28.8,
1499,1,SBT2050,2,4,,2,7667,4.14998,1.6937,2144.806,274.82,28.6,
1499,1,SBT2050,2,4,,2,7708,4.15009,1.6036,2163.58,274.82,28.4,
1499,1,SBT2050,2,4,,2,7749,4.15,1.5192,2181.368,274.82,28.2,
1499,1,SBT2050,2,4,,2,7790,4.150044,1.4429,2198.231,274.82,28.1,
1499,1,SBT2050,2,4,,2,7831,4.150032,1.3683,2214.239,274.82,27.9,
1499,1,SBT2050,2,4,,2,7872,4.14994,1.3021,2229.445,274.82,27.7,
1499,1,SBT2050,2,4,,2,7913,4.14989,1.2384,2243.907,274.82,27.6,
1499,1,SBT2050,2,4,,2,7954,4.15019,1.1796,2257.672,274.82,27.4,
1499,1,SBT2050,2,4,,2,7995,4.150068,1.1228,2270.783,274.82,27.3,
1499,1,SBT2050,2,4,,2,8036,4.15001,1.0738,2283.289,274.82,27.2,
1499,1,SBT2050,2,4,,2,8077,4.15019,1.0247,2295.228,274.82,27.1,
1499,1,SBT2050,2,4,,2,8118,4.1502,0.9796,2306.638,274.82,27,
1499,1,SBT2050,2,4,,2,8159,4.15027,0.9361,2317.552,274.82,26.9,
1499,1,SBT2050,2,4,,2,8200,4.150056,0.8973,2328.001,274.82,26.8,
1499,1,SBT2050,2,4,,2,8241,4.14985,0.8601,2338.008,274.82,26.7,
1499,1,SBT2050,2,4,,2,8282,4.15013,0.8239,2347.602,274.82,26.6,
1499,1,SBT2050,2,4,,2,8323,4.15002,0.7926,2356.81,274.82,26.5,
1499,1,SBT2050,2,4,,2,8364,4.15015,0.7617,2365.658,274.82,26.4,
1499,1,SBT2050,2,4,,2,8405,4.14998,0.7321,2374.16,274.82,26.4,
1499,1,SBT2050,2,4,,2,8446,4.15015,0.7033,2382.337,274.82,26.3,
1499,1,SBT2050,2,4,,2,8487,4.15021,0.6795,2390.219,274.82,26.3,
1499,1,SBT2050,2,4,,2,8528,4.15025,0.6528,2397.812,274.82,26.2,
1499,1,SBT2050,2,4,,2,8569,4.15009,0.6294,2405.121,274.82,26.1,
1499,1,SBT2050,2,4,,2,8610,4.15002,0.606,2412.161,274.82,26.1,
1499,1,SBT2050,2,4,,2,8651,4.15002,0.5871,2418.955,274.82,26,
1499,1,SBT2050,2,4,,2,8692,4.15021,0.5657,2425.516,274.82,26,
1499,1,SBT2050,2,4,,2,8733,4.14994,0.5483,2431.861,274.82,25.9,
1499,1,SBT2050,2,4,,2,8774,4.14992,0.5285,2437.985,274.82,25.9,
1499,1,SBT2050,2,4,,2,8815,4.14995,0.5113,2443.905,274.82,25.9,
1499,1,SBT2050,2,4,,2,8856,4.14989,0.4958,2449.634,274.82,25.8,
1499,1,SBT2050,2,4,,2,8897,4.15013,0.4789,2455.181,274.82,25.8,
1499,1,SBT2050,2,4,,2,8938,4.14987,0.4645,2460.548,274.82,25.8,
1499,1,SBT2050,2,4,,2,8979,4.14995,0.45091,2465.755,274.82,25.7,
1499,1,SBT2050,2,4,,2,9020,4.15014,0.43794,2470.81,274.82,25.7,
1499,1,SBT2050,2,4,,2,9061,4.150044,0.42407,2475.712,274.82,25.7,
1499,1,SBT2050,2,4,,2,9102,4.14991,0.41253,2480.477,274.82,25.7,
1499,1,SBT2050,2,4,,2,9143,4.150044,0.39936,2485.102,274.82,25.7,
1499,1,SBT2050,2,4,,2,9184,4.1502,0.38908,2489.599,274.82,25.6,
1499,1,SBT2050,2,4,,2,9225,4.14998,0.37835,2493.972,274.82,25.6,
1499,1,SBT2050,2,4,,2,9266,4.15002,0.36731,2498.214,274.82,25.6,
1499,1,SBT2050,2,4,,2,9307,4.15,0.35827,2502.347,274.82,25.6,
1499,1,SBT2050,2,4,,2,9348,4.149782,0.34834,2506.37,274.82,25.5,
1499,1,SBT2050,2,4,,2,9389,4.1502,0.3379,2510.283,274.82,25.5,
1499,1,SBT2050,2,4,,2,9430,4.15002,0.3318,2514.101,274.82,25.5,
1499,1,SBT2050,2,4,,2,9471,4.15001,0.32204,2517.814,274.82,25.5,
1499,1,SBT2050,2,4,,2,9512,4.15019,0.31262,2521.428,274.82,25.4,
1499,1,SBT2050,2,4,,2,9553,4.15009,0.30565,2524.95,274.82,25.4,
1499,1,SBT2050,2,4,,2,9594,4.14996,0.29783,2528.385,274.82,25.4,
1499,1,SBT2050,2,4,,2,9635,4.15009,0.29088,2531.739,274.82,25.4,
1499,1,SBT2050,2,4,,2,9676,4.15,0.28412,2535.017,274.82,25.4,
1499,1,SBT2050,2,4,,2,9717,4.14982,0.27933,2538.219,274.82,25.3,
1499,1,SBT2050,2,4,,2,9758,4.14994,0.27101,2541.345,274.82,25.3,
1499,1,SBT2050,2,4,,2,9799,4.15013,0.26603,2544.408,274.82,25.3,
1499,1,SBT2050,2,4,,2,9840,4.14984,0.25879,2547.396,274.82,25.3,
1499,1,SBT2050,2,4,,2,9881,4.15013,0.25409,2550.314,274.82,25.3,
1499,1,SBT2050,2,4,,2,9922,4.15002,0.24813,2553.172,274.82,25.3,
1499,1,SBT2050,2,4,,2,9963,4.14987,0.2426,2555.964,274.82,25.3,
1499,1,SBT2050,2,4,,2,10004,4.15001,0.23727,2558.697,274.82,25.3,
1499,1,SBT2050,2,4,,2,10045,4.14996,0.23174,2561.367,274.82,25.3,
1499,1,SBT2050,2,4,,2,10086,4.150056,0.22736,2563.984,274.82,25.3,
1499,1,SBT2050,2,4,,2,10127,4.150032,0.22252,2566.548,274.82,25.2,
1499,1,SBT2050,2,4,,2,10168,4.15001,0.21741,2569.057,274.82,25.2,
1499,1,SBT2050,2,4,,2,10209,4.15027,0.21361,2571.518,274.82,25.3,
1499,1,SBT2050,2,4,,2,10250,4.14989,0.21015,2573.932,274.82,25.3,
1499,1,SBT2050,2,4,,2,10291,4.14998,0.2051,2576.298,274.82,25.3,
1499,1,SBT2050,2,4,,2,10332,4.150032,0.20156,2578.615,274.82,25.3,
1499,1,SBT2050,2,4,,2,10373,4.15026,0.19783,2580.892,274.82,25.3,
1499,1,SBT2050,2,4,,2,10414,4.14995,0.19405,2583.125,274.82,25.3,
1499,1,SBT2050,2,4,,2,10455,4.15019,0.1907,2585.316,274.82,25.3,
1499,1,SBT2050,2,4,,2,10496,4.15,0.18635,2587.459,274.82,25.3,
1499,1,SBT2050,2,4,,2,10537,4.15016,0.18345,2589.564,274.82,25.3,
1499,1,SBT2050,2,4,,2,10578,4.150044,0.18003,2591.633,274.82,25.4,
1499,1,SBT2050,2,4,,2,10619,4.15009,0.17646,2593.665,274.82,25.4,
1499,1,SBT2050,2,4,,2,10660,4.150068,0.17352,2595.661,274.82,25.4,
1499,1,SBT2050,2,4,,2,10701,4.14996,0.1702,2597.618,274.82,25.4,
1499,1,SBT2050,2,4,,2,10742,4.1501,0.16744,2599.543,274.82,25.4,
1499,1,SBT2050,2,4,,2,10783,4.15002,0.16373,2601.43,274.82,25.5,
1499,1,SBT2050,2,4,,2,10824,4.150056,0.16159,2603.285,274.82,25.5,
1499,1,SBT2050,2,4,,2,10865,4.150056,0.15898,2605.112,274.82,25.4,
1499,1,SBT2050,2,4,,2,10906,4.15016,0.15589,2606.903,274.82,25.5,
1499,1,SBT2050,2,4,,2,10947,4.14995,0.15301,2608.66,274.82,25.5,
1499,1,SBT2050,2,4,,2,10988,4.14997,0.14998,2610.385,274.82,25.5,
1499,1,SBT2050,2,4,,2,11029,4.150056,0.14732,2612.082,274.82,25.5,
1499,1,SBT2050,2,4,,2,11070,4.15008,0.14541,2613.747,274.82,25.5,
1499,1,SBT2050,2,4,,2,11111,4.150044,0.14308,2615.388,274.82,25.6,
1499,1,SBT2050,2,4,,2,11152,4.15013,0.13971,2616.999,274.82,25.5,
1499,1,SBT2050,2,4,,2,11193,4.15014,0.13762,2618.581,274.82,25.5,
1499,1,SBT2050,2,4,,2,11234,4.150068,0.13558,2620.138,274.82,25.5,
1499,1,SBT2050,2,4,,2,11275,4.14977,0.13379,2621.674,274.82,25.5,
1499,1,SBT2050,2,4,,2,11316,4.14994,0.13094,2623.182,274.82,25.6,
1499,1,SBT2050,2,4,,2,11357,4.15018,0.12895,2624.659,274.82,25.6,
1499,1,SBT2050,2,4,,2,11398,4.14994,0.1278,2626.12,274.82,25.6,
1499,1,SBT2050,2,4,,2,11439,4.14987,0.12557,2627.56,274.82,25.6,
1499,1,SBT2050,2,4,,2,11480,4.14997,0.12423,2628.981,274.82,25.6,
1499,1,SBT2050,2,4,,2,11521,4.15009,0.12196,2630.38,274.82,25.6,
1499,1,SBT2050,2,4,,2,11562,4.1501,0.12099,2631.764,274.82,25.6,
1499,1,SBT2050,2,4,,2,11603,4.1501,0.11905,2633.133,274.82,25.6,
1499,1,SBT2050,2,4,,2,11644,4.14973,0.11502,2634.466,274.82,25.6,
1499,1,SBT2050,2,4,,2,11685,4.15029,0.1127,2635.762,274.82,25.6,
1499,1,SBT2050,2,4,,2,11726,4.14996,0.10838,2637.014,274.82,25.6,
1499,1,SBT2050,2,4,,2,11767,4.14934,0.10621,2638.244,274.82,25.6,
1499,1,SBT2050,2,4,,2,11808,4.15016,0.10333,2639.437,274.82,25.6,
1499,1,SBT2050,2,4,,2,11849,4.14957,0.10415,2640.616,274.82,25.7,
1499,1,SBT2050,2,4,,2,11890,4.14973,0.10571,2641.805,274.82,25.6,
1499,1,SBT2050,2,4,,2,11931,4.15087,0.10234,2642.994,274.82,25.6,
1499,1,SBT2050,2,4,,2,11972,4.14996,0.10252,2644.164,274.82,25.7,
1499,1,SBT2050,2,4,,2,12013,4.149758,0.10137,2645.321,274.82,25.7,
1499,1,SBT2050,2,4,,2,12054,4.15014,0.09986,2646.464,274.82,25.7,
1499,1,SBT2050,2,4,,2,12095,4.14981,0.09792,2647.591,274.82,25.7,
1499,1,SBT2050,2,4,,2,12136,4.15021,0.09129,2648.683,274.82,25.6,
1499,1,SBT2050,2,4,,2,12177,4.14997,0.09522,2649.765,274.82,25.6,
1499,1,SBT2050,2,4,,2,12218,4.15001,0.09312,2650.834,274.82,25.5,
1499,1,SBT2050,2,4,,2,12259,4.150056,0.092,2651.885,274.82,25.3,
1499,1,SBT2050,2,4,,2,12300,4.14996,0.09026,2652.921,274.82,25.1,
1499,1,SBT2050,2,4,,2,12341,4.14995,0.08914,2653.939,274.82,25,
1499,1,SBT2050,2,4,,2,12382,4.1501,0.08664,2654.943,274.82,24.9,
1499,1,SBT2050,2,4,,2,12423,4.14995,0.08586,2655.932,274.82,24.9,
1499,1,SBT2050,2,4,,2,12464,4.15001,0.08492,2656.905,274.82,24.8,
1499,1,SBT2050,2,4,,2,12505,4.150056,0.0841,2657.864,274.82,24.8,
1499,1,SBT2050,2,4,,2,12546,4.15,0.08319,2658.813,274.82,24.8,
1499,1,SBT2050,2,4,,2,12587,4.1499,0.08157,2659.749,274.82,24.9,
1499,1,SBT2050,2,4,,2,12628,4.15031,0.08025,2660.669,274.82,24.9,
1499,1,SBT2050,2,4,,2,12669,4.15023,0.07936,2661.581,274.82,24.9,
1499,1,SBT2050,2,4,,2,12710,4.15,0.07815,2662.475,274.82,24.9,
1499,1,SBT2050,2,4,,2,12751,4.14962,0.07721,2663.358,274.82,24.9,
1499,1,SBT2050,2,4,,2,12792,4.1501,0.0771,2664.231,274.82,24.9,
1499,1,SBT2050,2,4,,2,12833,4.150056,0.07496,2665.096,274.82,24.9,
1499,1,SBT2050,2,4,,2,12874,4.15,0.07436,2665.946,274.82,24.9,
1499,1,SBT2050,2,4,,2,12915,4.14996,0.07269,2666.786,274.82,25,
1499,1,SBT2050,2,4,,2,12956,4.15008,0.07198,2667.609,274.82,25,
1499,1,SBT2050,2,4,,2,12997,4.150068,0.07091,2668.422,274.82,25,
1499,1,SBT2050,2,4,,2,13038,4.15015,0.0701,2669.223,274.82,25,
1499,1,SBT2050,2,4,,2,13079,4.1501,0.06905,2670.018,274.82,25,
1499,1,SBT2050,2,4,,2,13120,4.15,0.06819,2670.798,274.82,25,
1499,1,SBT2050,2,4,,2,13161,4.14987,0.06725,2671.568,274.82,25,
1499,1,SBT2050,2,4,,2,13202,4.15029,0.06609,2672.326,274.82,25,
1499,1,SBT2050,2,4,,2,13243,4.15002,0.06559,2673.077,274.82,25,
1499,1,SBT2050,2,4,,2,13284,4.14985,0.06573,2673.82,274.82,25,
1499,1,SBT2050,2,4,,2,13325,4.14992,0.06409,2674.552,274.82,25,
1499,1,SBT2050,2,4,,2,13366,4.15014,0.06355,2675.276,274.82,25,
1499,1,SBT2050,2,4,,2,13407,4.15002,0.06262,2675.99,274.82,25,
1499,1,SBT2050,2,4,,2,13448,4.14982,0.06198,2676.701,274.82,25.1,
1499,1,SBT2050,2,4,,2,13489,4.15,0.06097,2677.401,274.82,25.1,
1499,1,SBT2050,2,4,,2,13530,4.15,0.06015,2678.089,274.82,25.1,
1499,1,SBT2050,2,4,,2,13571,4.15002,0.05923,2678.767,274.82,25.1,
1499,1,SBT2050,2,4,,2,13612,4.14987,0.05853,2679.437,274.82,25.1,
1499,1,SBT2050,2,4,,2,13653,4.14989,0.05782,2680.098,274.82,25.2,
1499,1,SBT2050,2,4,,2,13694,4.15,0.05735,2680.753,274.82,25.2,
1499,1,SBT2050,2,4,,2,13735,4.15009,0.05672,2681.403,274.82,25.2,
1499,1,SBT2050,2,4,,2,13776,4.14991,0.05689,2682.048,274.82,25.2,
1499,1,SBT2050,2,4,,2,13817,4.14997,0.05492,2682.684,274.82,25.2,
1499,1,SBT2050,2,4,,2,13858,4.14984,0.05446,2683.31,274.82,25.3,
1499,1,SBT2050,2,4,,2,13899,4.15,0.05375,2683.924,274.82,25.3,
1499,1,SBT2050,2,4,,2,13940,4.15015,0.05292,2684.532,274.82,25.3,
1499,1,SBT2050,2,4,,2,13981,4.14987,0.05228,2685.131,274.82,25.3,
1499,1,SBT2050,2,4,,2,14022,4.14983,0.05148,2685.728,274.82,25.3,
1499,1,SBT2050,2,4,,2,14063,4.15002,0.05113,2686.311,274.82,25.3,
1499,1,SBT2050,2,4,,2,14104,4.1501,0.05031,2686.887,274.82,25.4,
1499,1,SBT2050,2,4,,2,14145,4.14982,0.05019,2687.459,274.82,25.4,
1499,1,SBT2050,2,4,,2,14186,4.15001,0.04926,2688.028,274.82,25.4,
1499,1,SBT2050,2,4,,2,14227,4.14997,0.04848,2688.584,274.82,25.4,
1499,1,SBT2050,2,4,,2,14268,4.15002,0.047492,2689.133,274.82,25.3,
1499,1,SBT2050,2,4,,2,14309,4.150068,0.047368,2689.671,274.82,25.2,
1499,1,SBT2050,2,4,,2,14350,4.14998,0.046456,2690.205,274.82,25.2,
1499,1,SBT2050,2,4,,2,14391,4.14996,0.045601,2690.732,274.82,25.1,
1499,1,SBT2050,2,4,,2,14432,4.150032,0.04552,2691.247,274.82,25,
1499,1,SBT2050,2,4,,2,14473,4.15047,0.045264,2691.766,274.82,25,
1499,1,SBT2050,2,4,,2,14514,4.15019,0.044363,2692.275,274.82,24.9,
1499,1,SBT2050,2,4,,2,14555,4.14992,0.043875,2692.779,274.82,24.9,
1499,1,SBT2050,2,4,,2,14596,4.14997,0.043357,2693.276,274.82,25,
1499,1,SBT2050,2,4,,2,14637,4.15018,0.042879,2693.767,274.82,24.9,
1499,1,SBT2050,2,4,,2,14678,4.15015,0.042244,2694.256,274.82,25,
1499,1,SBT2050,2,4,,2,14719,4.150068,0.041871,2694.736,274.82,25,
1499,1,SBT2050,2,4,,2,14760,4.15012,0.041385,2695.212,274.82,25,
1499,1,SBT2050,2,4,,2,14801,4.150056,0.041197,2695.68,274.82,25,
1499,1,SBT2050,2,4,,2,14842,4.15015,0.040487,2696.143,274.82,25,
1499,1,SBT2050,2,4,,2,14883,4.15009,0.040102,2696.603,274.82,25,
1499,1,SBT2050,2,4,,2,14924,4.1499,0.039982,2697.061,274.82,25,
1499,1,SBT2050,2,4,,2,14965,4.150056,0.039213,2697.513,274.82,25,
1499,1,SBT2050,2,4,,2,15006,4.1501,0.03916,2697.96,274.82,25,
1499,1,SBT2050,2,4,,2,15047,4.15,0.038769,2698.403,274.82,25,
1499,1,SBT2050,2,4,,2,15088,4.1501,0.03822,2698.839,274.82,25,
1499,1,SBT2050,2,4,,2,15129,4.15,0.037777,2699.272,274.82,25,
1499,1,SBT2050,2,4,,2,15170,4.15018,0.037229,2699.699,274.82,25,
1499,1,SBT2050,2,4,,2,15211,4.14996,0.036785,2700.121,274.82,25,
1499,1,SBT2050,2,4,,2,15252,4.1499,0.036014,2700.535,274.82,25,
1499,1,SBT2050,2,4,,2,15293,4.14997,0.036044,2700.945,274.82,25,
1499,1,SBT2050,2,4,,2,15334,4.14997,0.035274,2701.352,274.82,25,
1499,1,SBT2050,2,4,,2,15375,4.150044,0.035501,2701.754,274.82,25,
1499,1,SBT2050,2,4,,2,15416,4.14992,0.034333,2702.154,274.82,25,
1499,1,SBT2050,2,4,,2,15457,4.15014,0.03442,2702.547,274.82,25,
1499,1,SBT2050,2,4,,2,15498,4.149782,0.034136,2702.936,274.82,25,
1499,1,SBT2050,2,4,,2,15539,4.14977,0.033807,2703.322,274.82,25,
1499,1,SBT2050,2,4,,2,15580,4.15013,0.033984,2703.708,274.82,25,
1499,1,SBT2050,2,4,,2,15621,4.14997,0.033472,2704.092,274.82,25,
1499,1,SBT2050,2,4,,2,15662,4.15008,0.032393,2704.464,274.82,25,
1499,1,SBT2050,2,4,,2,15703,4.14998,0.031506,2704.832,274.82,25,
1499,1,SBT2050,2,4,,2,15744,4.14988,0.031979,2705.196,274.82,25,
1499,1,SBT2050,2,4,,2,15785,4.14987,0.031773,2705.562,274.82,25,
1499,1,SBT2050,2,4,,2,15826,4.14985,0.031623,2705.919,274.82,25,
1499,1,SBT2050,2,4,,2,15867,4.15008,0.031064,2706.274,274.82,25.1,
1499,1,SBT2050,2,4,,2,15908,4.15012,0.030662,2706.625,274.82,25,
1499,1,SBT2050,2,4,,2,15949,4.15,0.030485,2706.973,274.82,25,
1499,1,SBT2050,2,4,,2,15990,4.15013,0.030282,2707.319,274.82,25,
1499,1,SBT2050,2,4,,2,16031,4.14977,0.029892,2707.659,274.82,25,
1499,1,SBT2050,2,4,,2,16072,4.14996,0.029397,2707.994,274.82,25,
1499,1,SBT2050,2,4,,2,16113,4.15012,0.029121,2708.327,274.82,25,
1499,1,SBT2050,2,4,,2,16154,4.14991,0.029047,2708.656,274.82,25,
1499,1,SBT2050,2,4,,2,16195,4.1501,0.028508,2708.982,274.82,25,
1499,1,SBT2050,2,4,,2,16236,4.14984,0.028469,2709.306,274.82,25,
1499,1,SBT2050,2,4,,2,16277,4.14994,0.028194,2709.628,274.82,25,
1499,1,SBT2050,2,4,,2,16318,4.15015,0.027873,2709.945,274.82,25,
1499,1,SBT2050,2,4,,2,16359,4.15,0.027219,2710.261,274.82,25,
1499,1,SBT2050,2,4,,2,16400,4.15009,0.028094,2710.574,274.82,25,
1499,1,SBT2050,2,4,,2,16441,4.15015,0.026579,2710.885,274.82,25,
1499,1,SBT2050,2,4,,2,16482,4.15016,0.026447,2711.189,274.82,25,
1499,1,SBT2050,2,4,,2,16523,4.14998,0.026276,2711.489,274.82,25,
1499,1,SBT2050,2,4,,2,16564,4.15,0.025851,2711.787,274.82,25.1,
1499,1,SBT2050,2,4,,2,16605,4.14994,0.025993,2712.082,274.82,25,
1499,1,SBT2050,2,4,,2,16646,4.15,0.025563,2712.375,274.82,25,
1499,1,SBT2050,2,4,,2,16687,4.15021,0.025643,2712.667,274.82,25,
1499,1,SBT2050,2,4,,2,16728,4.15023,0.025344,2712.956,274.82,25,
1499,1,SBT2050,2,4,,2,16769,4.15,0.024951,2713.243,274.82,25,
1499,1,SBT2050,2,4,,2,16810,4.14991,0.025047,2713.526,274.82,25,
1499,1,SBT2050,2,4,,2,16851,4.15013,0.024587,2713.809,274.82,25,
1499,1,SBT2050,2,4,,2,16892,4.15002,0.024471,2714.088,274.82,25,
1499,1,SBT2050,2,4,,2,16933,4.14997,0.024208,2714.368,274.82,25,
1499,1,SBT2050,2,4,,2,16974,4.15013,0.023984,2714.644,274.82,25,
1499,1,SBT2050,2,4,,2,17015,4.14984,0.023659,2714.915,274.82,25,
1499,1,SBT2050,2,4,,2,17056,4.14998,0.023343,2715.182,274.82,25,
1499,1,SBT2050,2,4,,2,17097,4.14977,0.023706,2715.45,274.82,25.1,
1499,1,SBT2050,2,4,,2,17138,4.14994,0.023089,2715.715,274.82,25,
1499,1,SBT2050,2,4,,2,17179,4.150032,0.022822,2715.975,274.82,25,
1499,1,SBT2050,2,4,,2,17220,4.15012,0.022864,2716.233,274.82,25,
1499,1,SBT2050,2,4,,2,17261,4.150056,0.022838,2716.495,274.82,25,
1499,1,SBT2050,2,4,,2,17302,4.1501,0.022761,2716.752,274.82,25,
1499,1,SBT2050,2,4,,2,17343,4.15001,0.021852,2717.004,274.82,25,
1499,1,SBT2050,2,4,,2,17384,4.14998,0.021962,2717.254,274.82,25,
1499,1,SBT2050,2,4,,2,17425,4.14995,0.021652,2717.503,274.82,25,
1499,1,SBT2050,2,4,,2,17466,4.14985,0.022103,2717.752,274.82,25,
1499,1,SBT2050,2,4,,2,17507,4.15018,0.021007,2718,274.82,25,
1499,1,SBT2050,2,4,,2,17548,4.14988,0.02127,2718.239,274.82,25.1,
1499,1,SBT2050,2,4,,2,17589,4.15,0.02093,2718.478,274.82,25.1,
1499,1,SBT2050,2,4,,2,17630,4.14984,0.021105,2718.716,274.82,25,
1499,1,SBT2050,2,4,,2,17671,4.15029,0.020348,2718.953,274.82,25,
1499,1,SBT2050,2,4,,2,17712,4.15008,0.020383,2719.185,274.82,25,
1499,1,SBT2050,2,4,,2,17753,4.15012,0.020281,2719.417,274.82,25,
1499,1,SBT2050,2,4,,2,17794,4.15009,0.020618,2719.652,274.82,25,
1499,1,SBT2050,2,4,,2,17835,4.14981,0.01983,2719.878,274.82,25.1,
1499,1,SBT2050,2,4,,2,17876,4.14984,0.019392,2720.101,274.82,25.1,
1499,1,SBT2050,2,4,,2,17917,4.15031,0.019768,2720.328,274.82,25.1,
1499,1,SBT2050,2,4,,2,17958,4.15023,0.01926,2720.548,274.82,25,
1499,1,SBT2050,2,4,,2,17999,4.150044,0.019237,2720.766,274.82,25,
1499,1,SBT2050,2,4,,2,18040,4.1501,0.019274,2720.983,274.82,25,
1499,1,SBT2050,2,4,,2,18081,4.14995,0.018684,2721.201,274.82,25.1,
1499,1,SBT2050,2,4,,2,18122,4.14994,0.019113,2721.415,274.82,25.1,
1499,1,SBT2050,2,4,,2,18163,4.14988,0.018485,2721.627,274.82,25,
1499,1,SBT2050,2,4,,2,18204,4.14996,0.018291,2721.836,274.82,25,
1499,1,SBT2050,2,4,,2,18245,4.15014,0.018459,2722.047,274.82,25,
1499,1,SBT2050,2,4,,2,18286,4.15039,0.017795,2722.257,274.82,25.1,
1499,1,SBT2050,2,4,,2,18327,4.15001,0.017954,2722.464,274.82,25,
1499,1,SBT2050,2,4,,2,18368,4.14996,0.017657,2722.671,274.82,25,
1499,1,SBT2050,2,4,,2,18409,4.14996,0.017811,2722.874,274.82,25,
1499,1,SBT2050,2,4,,2,18450,4.14988,0.017598,2723.076,274.82,25,
1499,1,SBT2050,2,4,,2,18491,4.15002,0.016971,2723.275,274.82,25,
1499,1,SBT2050,2,4,,2,18532,4.14991,0.017435,2723.471,274.82,25,
1499,1,SBT2050,2,4,,2,18573,4.15013,0.017167,2723.669,274.82,25.1,
1499,1,SBT2050,2,4,,2,18614,4.14995,0.016935,2723.863,274.82,25.1,
1499,1,SBT2050,2,4,,2,18655,4.15013,0.016906,2724.056,274.82,25.1,
1499,1,SBT2050,2,4,,2,18696,4.14984,0.016974,2724.249,274.82,25,
1499,1,SBT2050,2,4,,2,18737,4.1499,0.01658,2724.441,274.82,25,
1499,1,SBT2050,2,4,,2,18778,4.14992,0.016449,2724.629,274.82,25,
1499,1,SBT2050,2,4,,2,18819,4.15026,0.016373,2724.819,274.82,25,
1499,1,SBT2050,2,4,,2,18860,4.14984,0.01595,2725.003,274.82,25,
1499,1,SBT2050,2,4,,2,18901,4.14988,0.016337,2725.188,274.82,25,
1499,1,SBT2050,2,4,,2,18942,4.14981,0.01605,2725.371,274.82,25.1,
1499,1,SBT2050,2,4,,2,18983,4.15001,0.015764,2725.551,274.82,25,
1499,1,SBT2050,2,4,,2,19024,4.14996,0.016208,2725.736,274.82,25,
1499,1,SBT2050,2,4,,2,19065,4.14988,0.015984,2725.918,274.82,25,
1499,1,SBT2050,2,4,,2,19106,4.1499,0.015547,2726.095,274.82,25,
1499,1,SBT2050,2,4,,2,19147,4.14996,0.015462,2726.27,274.82,25,
1499,1,SBT2050,2,4,,2,19188,4.15039,0.014929,2726.443,274.82,25.1,
1499,1,SBT2050,2,4,,2,19229,4.14996,0.014978,2726.614,274.82,25,
1499,1,SBT2050,2,4,,2,19270,4.15012,0.015312,2726.786,274.82,25,
1499,1,SBT2050,2,4,,2,19311,4.14997,0.014987,2726.958,274.82,25.1,
1499,1,SBT2050,2,4,,2,19352,4.1502,0.014664,2727.131,274.82,25,
1499,1,SBT2050,2,4,,2,19393,4.14987,0.01526,2727.304,274.82,25,
1499,1,SBT2050,2,4,,2,19434,4.14996,0.014732,2727.471,274.82,25,
1499,1,SBT2050,2,4,,2,19475,4.14994,0.014734,2727.635,274.82,25,
1499,1,SBT2050,2,4,,2,19516,4.149782,0.014388,2727.803,274.82,25.1,
1499,1,SBT2050,2,4,,2,19557,4.14985,0.014374,2727.97,274.82,25,
1499,1,SBT2050,2,4,,2,19598,4.14972,0.014371,2728.135,274.82,25,
1499,1,SBT2050,2,4,,2,19639,4.15014,0.014107,2728.297,274.82,25,
1499,1,SBT2050,2,4,,2,19680,4.14992,0.014286,2728.458,274.82,25,
1499,1,SBT2050,2,4,,2,19721,4.14998,0.013784,2728.62,274.82,25.1,
1499,1,SBT2050,2,4,,2,19762,4.14983,0.014115,2728.779,274.82,25,
1499,1,SBT2050,2,4,,2,19803,4.1501,0.014364,2728.94,274.82,25,
1499,1,SBT2050,2,4,,2,19844,4.15009,0.013212,2729.095,274.82,25,
1499,1,SBT2050,2,4,,2,19885,4.14983,0.013111,2729.246,274.82,25,
1499,1,SBT2050,2,4,,2,19926,4.1502,0.012985,2729.397,274.82,25,
1499,1,SBT2050,2,4,,2,19967,4.14997,0.013722,2729.551,274.82,25,
1499,1,SBT2050,2,4,,2,20008,4.14997,0.013205,2729.701,274.82,25.1,
1499,1,SBT2050,2,4,,2,20049,4.14997,0.012599,2729.846,274.82,25.1,
1499,1,SBT2050,2,4,,2,20090,4.15012,0.012484,2729.989,274.82,25.1,
1499,1,SBT2050,2,4,,2,20131,4.14992,0.012713,2730.133,274.82,25.1,
1499,1,SBT2050,2,4,,2,20172,4.14997,0.012907,2730.279,274.82,25,
1499,1,SBT2050,2,4,,2,20213,4.14991,0.013171,2730.425,274.82,25,
1499,1,SBT2050,2,4,,2,20254,4.14998,0.012821,2730.574,274.82,25,
1499,1,SBT2050,2,4,,2,20295,4.150044,0.01227,2730.718,274.82,25.1,
1499,1,SBT2050,2,4,,2,20336,4.15012,0.012369,2730.859,274.82,25.1,
1499,1,SBT2050,2,4,,2,20377,4.14998,0.012335,2731,274.82,25,
1499,1,SBT2050,2,4,,2,20418,4.14992,0.012835,2731.143,274.82,25,
1499,1,SBT2050,2,4,,2,20459,4.15001,0.012099,2731.283,274.82,25,
1499,1,SBT2050,2,4,,2,20500,4.1501,0.012687,2731.42,274.82,25,
1499,1,SBT2050,2,4,,2,20541,4.14996,0.012005,2731.557,274.82,25,
1499,1,SBT2050,2,4,,2,20582,4.15,0.012219,2731.694,274.82,25,
1499,1,SBT2050,2,4,,2,20623,4.150318,0.011633,2731.83,274.82,25,
1499,1,SBT2050,2,4,,2,20664,4.150044,0.011371,2731.964,274.82,25,
1499,1,SBT2050,2,4,,2,20705,4.15008,0.011742,2732.095,274.82,25,
1499,1,SBT2050,2,4,,2,20746,4.14998,0.011052,2732.227,274.82,25,
1499,1,SBT2050,2,4,,2,20787,4.15001,0.011266,2732.358,274.82,25,
1499,1,SBT2050,2,4,,2,20828,4.150068,0.011488,2732.488,274.82,25,
1499,1,SBT2050,2,4,,2,20869,4.14996,0.01119,2732.616,274.82,25,
1499,1,SBT2050,2,4,,2,20910,4.150044,0.011474,2732.744,274.82,25,
1499,1,SBT2050,2,4,,2,20951,4.1501,0.010999,2732.872,274.82,25.1,
1499,1,SBT2050,2,4,,2,20992,4.14982,0.011483,2732.999,274.82,25,
1499,1,SBT2050,2,4,,2,21033,4.150044,0.011462,2733.129,274.82,25.1,
1499,1,SBT2050,2,4,,2,21074,4.14998,0.010656,2733.253,274.82,25.1,
1499,1,SBT2050,2,4,,2,21115,4.15021,0.010943,2733.378,274.82,25,
1499,1,SBT2050,2,4,,2,21156,4.1501,0.010725,2733.499,274.82,25.1,
1499,1,SBT2050,2,4,,2,21197,4.14988,0.011295,2733.626,274.82,25,
1499,1,SBT2050,2,4,,3,21237,4.14836,0,2733.711,274.82,25,
1499,1,SBT2050,2,4,,3,21278,4.14773,0,2733.711,274.82,25,
1499,1,SBT2050,2,4,,3,21319,4.14758,0,2733.711,274.82,25,
1499,1,SBT2050,2,4,,3,21360,4.147352,0,2733.711,274.82,25,
1499,1,SBT2050,2,4,,3,21401,4.14691,0,2733.711,274.82,25.1,
1499,1,SBT2050,2,4,,3,21442,4.14651,0,2733.711,274.82,25.1,
1499,1,SBT2050,2,4,,3,21483,4.14658,0,2733.711,274.82,25,
1499,1,SBT2050,2,4,,3,21524,4.146272,0,2733.711,274.82,25,
1499,1,SBT2050,2,4,,3,21565,4.14637,0,2733.711,274.82,25,
1499,1,SBT2050,2,4,,3,21606,4.14621,0,2733.711,274.82,25,
1499,1,SBT2050,2,4,,3,21647,4.14585,0,2733.711,274.82,25,
1499,1,SBT2050,2,4,,3,21688,4.14579,0,2733.711,274.82,25,
1499,1,SBT2050,2,4,,3,21729,4.14561,0,2733.711,274.82,25,
1499,1,SBT2050,2,4,,3,21770,4.14567,0,2733.711,274.82,25,
1499,1,SBT2050,2,4,,3,21811,4.145634,0,2733.711,274.82,25.1,
1499,1,SBT2050,2,4,,3,21852,4.14556,0,2733.711,274.82,25.1,
1499,1,SBT2050,2,4,,3,21893,4.14515,0,2733.711,274.82,25,
1499,1,SBT2050,2,4,,3,21934,4.144972,0,2733.711,274.82,25,
1499,1,SBT2050,2,4,,3,21975,4.14512,0,2733.711,274.82,25,
1499,1,SBT2050,2,4,,3,22016,4.14497,0,2733.711,274.82,25,
1499,1,SBT2050,2,4,,3,22057,4.14459,0,2733.711,274.82,25.1,
1499,1,SBT2050,2,4,,3,22098,4.14461,0,2733.711,274.82,25.1,
1499,1,SBT2050,2,4,,3,22139,4.14475,0,2733.711,274.82,25.1,
1499,1,SBT2050,2,4,,3,22180,4.14459,0,2733.711,274.82,25.1,
1499,1,SBT2050,2,4,,3,22221,4.144506,0,2733.711,274.82,25,
1499,1,SBT2050,2,4,,3,22262,4.14446,0,2733.711,274.82,25,
1499,1,SBT2050,2,4,,3,22303,4.14435,0,2733.711,274.82,25,
1499,1,SBT2050,2,4,,3,22344,4.14446,0,2733.711,274.82,25,
1499,1,SBT2050,2,4,,3,22385,4.14416,0,2733.711,274.82,25.1,
1499,1,SBT2050,2,4,,3,22426,4.14426,0,2733.711,274.82,25.1,
1499,1,SBT2050,2,4,,3,22467,4.14437,0,2733.711,274.82,25.1,
1499,1,SBT2050,2,4,,3,22508,4.14431,0,2733.711,274.82,25,
1499,1,SBT2050,2,4,,3,22549,4.14443,0,2733.711,274.82,25,
1499,1,SBT2050,2,4,,3,22590,4.14396,0,2733.711,274.82,25,
1499,1,SBT2050,2,4,,3,22631,4.143924,0,2733.711,274.82,25,
1499,1,SBT2050,2,4,,3,22672,4.14377,0,2733.711,274.82,25.1,
1499,1,SBT2050,2,4,,3,22713,4.14401,0,2733.711,274.82,25.1,
1499,1,SBT2050,2,4,,3,22754,4.14397,0,2733.711,274.82,25.1,
1499,1,SBT2050,2,4,,3,22795,4.143794,0,2733.711,274.82,25.1,
1499,1,SBT2050,2,4,,3,22836,4.14383,0,2733.711,274.82,25.1,
1499,1,SBT2050,2,4,,3,22877,4.14356,0,2733.711,274.82,25,
1499,1,SBT2050,2,4,,3,22918,4.14352,0,2733.711,274.82,25,
1499,1,SBT2050,2,4,,3,22959,4.143612,0,2733.711,274.82,25,
1499,1,SBT2050,2,4,,3,23000,4.1437,0,2733.711,274.82,25,
1499,1,SBT2050,2,4,,4,23040,3.85249,-2.9362,2733.711,287.167,25.1,
1499,1,SBT2050,2,4,,4,23081,3.79892,-2.9354,2733.711,320.605,25.6,
1499,1,SBT2050,2,4,,4,23122,3.77619,-2.936,2733.711,354.042,26.2,
1499,1,SBT2050,2,4,,4,23163,3.76388,-2.9361,2733.711,387.479,26.7,
1499,1,SBT2050,2,4,,4,23204,3.75537,-2.9364,2733.711,420.916,27.1,
1499,1,SBT2050,2,4,,4,23245,3.74834,-2.9356,2733.711,454.353,27.4,
1499,1,SBT2050,2,4,,4,23286,3.74193,-2.936,2733.711,487.79,27.7,
1499,1,SBT2050,2,4,,4,23327,3.73542,-2.9363,2733.711,521.227,28,
1499,1,SBT2050,2,4,,4,23368,3.72861,-2.9359,2733.711,554.664,28.1,
1499,1,SBT2050,2,4,,4,23409,3.72145,-2.9362,2733.711,588.101,28.3,
1499,1,SBT2050,2,4,,4,23450,3.71442,-2.9358,2733.711,621.538,28.4,
1499,1,SBT2050,2,4,,4,23491,3.70598,-2.9361,2733.711,654.975,28.5,
1499,1,SBT2050,2,4,,4,23532,3.69773,-2.9357,2733.711,688.412,28.6,
1499,1,SBT2050,2,4,,4,23573,3.68898,-2.9358,2733.711,721.849,28.6,
1499,1,SBT2050,2,4,,4,23614,3.67952,-2.9357,2733.711,755.286,28.6,
1499,1,SBT2050,2,4,,4,23655,3.669936,-2.9355,2733.711,788.724,28.6,
1499,1,SBT2050,2,4,,4,23696,3.66038,-2.9363,2733.711,822.161,28.6,
1499,1,SBT2050,2,4,,4,23737,3.65079,-2.936,2733.711,855.598,28.7,
1499,1,SBT2050,2,4,,4,23778,3.640524,-2.9361,2733.711,889.035,28.6,
1499,1,SBT2050,2,4,,4,23819,3.62995,-2.9355,2733.711,922.473,28.6,
1499,1,SBT2050,2,4,,4,23860,3.61918,-2.9359,2733.711,955.91,28.6,
1499,1,SBT2050,2,4,,4,23901,3.60845,-2.9363,2733.711,989.347,28.7,
1499,1,SBT2050,2,4,,4,23942,3.59766,-2.9366,2733.711,1022.784,28.6,
1499,1,SBT2050,2,4,,4,23983,3.586834,-2.9365,2733.711,1056.221,28.7,
1499,1,SBT2050,2,4,,4,24024,3.57575,-2.9356,2733.711,1089.658,28.7,
1499,1,SBT2050,2,4,,4,24065,3.56447,-2.9361,2733.711,1123.095,28.6,
1499,1,SBT2050,2,4,,4,24106,3.55332,-2.9366,2733.711,1156.532,28.7,
1499,1,SBT2050,2,4,,4,24147,3.54172,-2.9357,2733.711,1189.969,28.7,
1499,1,SBT2050,2,4,,4,24188,3.53029,-2.936,2733.711,1223.406,28.7,
1499,1,SBT2050,2,4,,4,24229,3.51866,-2.9363,2733.711,1256.843,28.7,
1499,1,SBT2050,2,4,,4,24270,3.50676,-2.9359,2733.711,1290.28,28.7,
1499,1,SBT2050,2,4,,4,24311,3.49558,-2.9359,2733.711,1323.717,28.7,
1499,1,SBT2050,2,4,,4,24352,3.48387,-2.9363,2733.711,1357.154,28.7,
1499,1,SBT2050,2,4,,4,24393,3.47219,-2.936,2733.711,1390.591,28.7,
1499,1,SBT2050,2,4,,4,24434,3.461,-2.9359,2733.711,1424.028,28.7,
1499,1,SBT2050,2,4,,4,24475,3.44983,-2.9367,2733.711,1457.466,28.7,
1499,1,SBT2050,2,4,,4,24516,3.43855,-2.9356,2733.711,1490.903,28.8,
1499,1,SBT2050,2,4,,4,24557,3.42756,-2.936,2733.711,1524.34,28.8,
1499,1,SBT2050,2,4,,4,24598,3.41635,-2.9359,2733.711,1557.777,28.8,
1499,1,SBT2050,2,4,,4,24639,3.4054,-2.9365,2733.711,1591.214,28.8,
1499,1,SBT2050,2,4,,4,24680,3.39422,-2.9361,2733.711,1624.651,28.8,
1499,1,SBT2050,2,4,,4,24721,3.383418,-2.936,2733.711,1658.089,28.8,
1499,1,SBT2050,2,4,,4,24762,3.37191,-2.9358,2733.711,1691.526,28.8,
1499,1,SBT2050,2,4,,4,24803,3.36134,-2.9363,2733.711,1724.963,28.9,
1499,1,SBT2050,2,4,,4,24844,3.35006,-2.936,2733.711,1758.4,28.9,
1499,1,SBT2050,2,4,,4,24885,3.33879,-2.9355,2733.711,1791.837,28.9,
1499,1,SBT2050,2,4,,4,24926,3.32748,-2.9354,2733.711,1825.274,29,
1499,1,SBT2050,2,4,,4,24967,3.31623,-2.9359,2733.711,1858.711,29,
1499,1,SBT2050,2,4,,4,25008,3.30409,-2.9359,2733.711,1892.148,29,
1499,1,SBT2050,2,4,,4,25049,3.29241,-2.9354,2733.711,1925.585,29.1,
1499,1,SBT2050,2,4,,4,25090,3.27985,-2.9357,2733.711,1959.022,29.1,
1499,1,SBT2050,2,4,,4,25131,3.266882,-2.9361,2733.711,1992.46,29.2,
1499,1,SBT2050,2,4,,4,25172,3.25366,-2.936,2733.711,2025.897,29.3,
1499,1,SBT2050,2,4,,4,25213,3.239796,-2.9361,2733.711,2059.334,29.4,
1499,1,SBT2050,2,4,,4,25254,3.22576,-2.9358,2733.711,2092.771,29.4,
1499,1,SBT2050,2,4,,4,25295,3.210713,-2.9355,2733.711,2126.208,29.5,
1499,1,SBT2050,2,4,,4,25336,3.19497,-2.9354,2733.711,2159.645,29.6,
1499,1,SBT2050,2,4,,4,25377,3.17836,-2.9358,2733.711,2193.082,29.7,
1499,1,SBT2050,2,4,,4,25418,3.16069,-2.9364,2733.711,2226.519,29.8,
1499,1,SBT2050,2,4,,4,25459,3.1421,-2.9355,2733.711,2259.957,29.9,
1499,1,SBT2050,2,4,,4,25500,3.12184,-2.9358,2733.711,2293.394,30.1,
1499,1,SBT2050,2,4,,4,25541,3.10059,-2.936,2733.711,2326.832,30.2,
1499,1,SBT2050,2,4,,4,25582,3.077307,-2.936,2733.711,2360.269,30.4,
1499,1,SBT2050,2,4,,4,25623,3.05265,-2.9362,2733.711,2393.706,30.6,
1499,1,SBT2050,2,4,,4,25664,3.02597,-2.9356,2733.711,2427.144,30.7,
1499,1,SBT2050,2,4,,4,25705,2.996459,-2.9364,2733.711,2460.581,30.9,
1499,1,SBT2050,2,4,,4,25746,2.96427,-2.9356,2733.711,2494.018,31.1,
1499,1,SBT2050,2,4,,4,25787,2.92799,-2.9361,2733.711,2527.456,31.4,
1499,1,SBT2050,2,4,,4,25828,2.88659,-2.9361,2733.711,2560.893,31.6,
1499,1,SBT2050,2,4,,4,25869,2.838294,-2.9357,2733.711,2594.33,32,
1499,1,SBT2050,2,4,,4,25910,2.77947,-2.936,2733.711,2627.767,32.3,
1499,1,SBT2050,2,4,,4,25951,2.70685,-2.9358,2733.711,2661.204,32.7,
1499,1,SBT2050,2,4,,4,25992,2.61564,-2.9362,2733.711,2694.641,33.3,
1499,1,SBT2050,2,4,,4,26033,2.49967,-2.8303,2733.711,2728.015,33.9,
1499,1,SBT2050,2,4,,4,26074,2.4997,-2.3179,2733.711,2757.003,34.5,
1499,1,SBT2050,2,4,,4,26115,2.49968,-1.9687,2733.711,2781.349,34.7,
1499,1,SBT2050,2,4,,4,26156,2.49985,-1.677,2733.711,2802.065,34.6,
1499,1,SBT2050,2,4,,4,26197,2.49984,-1.4283,2733.711,2819.709,34.3,
1499,1,SBT2050,2,4,,4,26238,2.49973,-1.2218,2733.711,2834.772,33.8,
1499,1,SBT2050,2,4,,4,26279,2.49955,-1.0524,2733.711,2847.698,33.3,
1499,1,SBT2050,2,4,,4,26320,2.49978,-0.9126,2733.711,2858.862,32.7,
1499,1,SBT2050,2,4,,4,26361,2.49968,-0.799,2733.711,2868.588,32.2,
1499,1,SBT2050,2,4,,4,26402,2.49978,-0.7053,2733.711,2877.136,31.6,
1499,1,SBT2050,2,4,,4,26443,2.49981,-0.6292,2733.711,2884.721,31,
1499,1,SBT2050,2,4,,4,26484,2.49981,-0.5668,2733.711,2891.522,30.5,
1499,1,SBT2050,2,4,,4,26525,2.500029,-0.5155,2733.711,2897.677,30.1,
1499,1,SBT2050,2,4,,4,26566,2.49985,-0.46997,2733.711,2903.285,29.6,
1499,1,SBT2050,2,4,,4,26607,2.49996,-0.43315,2733.711,2908.422,29.3,
1499,1,SBT2050,2,4,,4,26648,2.49979,-0.40181,2733.711,2913.171,28.9,
1499,1,SBT2050,2,4,,4,26689,2.49973,-0.37462,2733.711,2917.589,28.6,
1499,1,SBT2050,2,4,,4,26730,2.49992,-0.35076,2733.711,2921.717,28.3,
1499,1,SBT2050,2,4,,4,26771,2.49992,-0.32918,2733.711,2925.587,28,
1499,1,SBT2050,2,4,,4,26812,2.49987,-0.3099,2733.711,2929.226,27.8,
1499,1,SBT2050,2,4,,4,26853,2.49997,-0.29244,2733.711,2932.655,27.6,
1499,1,SBT2050,2,4,,4,26894,2.49987,-0.27642,2733.711,2935.893,27.4,
1499,1,SBT2050,2,4,,4,26935,2.49999,-0.26141,2733.711,2938.955,27.3,
1499,1,SBT2050,2,4,,4,26976,2.49986,-0.24742,2733.711,2941.854,27.1,
1499,1,SBT2050,2,4,,4,27017,2.50009,-0.23477,2733.711,2944.6,27,
1499,1,SBT2050,2,4,,4,27058,2.499886,-0.22276,2733.711,2947.205,26.9,
1499,1,SBT2050,2,4,,4,27099,2.49996,-0.21135,2733.711,2949.677,26.7,
1499,1,SBT2050,2,4,,4,27140,2.49999,-0.20109,2733.711,2952.025,26.6,
1499,1,SBT2050,2,4,,4,27181,2.49984,-0.19148,2733.711,2954.259,26.5,
1499,1,SBT2050,2,4,,4,27222,2.49992,-0.18222,2733.711,2956.386,26.4,
1499,1,SBT2050,2,4,,4,27263,2.49998,-0.17373,2733.711,2958.413,26.4,
1499,1,SBT2050,2,4,,4,27304,2.49999,-0.16611,2733.711,2960.347,26.3,
1499,1,SBT2050,2,4,,4,27345,2.49987,-0.15842,2733.711,2962.194,26.2,
1499,1,SBT2050,2,4,,4,27386,2.49992,-0.15167,2733.711,2963.961,26.2,
1499,1,SBT2050,2,4,,4,27427,2.49996,-0.14492,2733.711,2965.651,26.1,
1499,1,SBT2050,2,4,,4,27468,2.49983,-0.1389,2733.711,2967.269,26,
1499,1,SBT2050,2,4,,4,27509,2.49983,-0.1331,2733.711,2968.817,26,
1499,1,SBT2050,2,4,,4,27550,2.49998,-0.12766,2733.711,2970.301,25.9,
1499,1,SBT2050,2,4,,4,27591,2.499755,-0.12231,2733.711,2971.724,25.9,
1499,1,SBT2050,2,4,,4,27632,2.49987,-0.11721,2733.711,2973.088,25.9,
1499,1,SBT2050,2,4,,4,27673,2.49999,-0.11252,2733.711,2974.397,25.9,
1499,1,SBT2050,2,4,,4,27714,2.49997,-0.10791,2733.711,2975.651,25.8,
1499,1,SBT2050,2,4,,4,27755,2.500029,-0.10368,2733.711,2976.855,25.7,
1499,1,SBT2050,2,4,,4,27796,2.499898,-0.09931,2733.711,2978.009,25.7,
1499,1,SBT2050,2,4,,4,27837,2.50012,-0.0953,2733.711,2979.114,25.7,
1499,1,SBT2050,2,4,,4,27878,2.49978,-0.0911,2733.711,2980.176,25.6,
1499,1,SBT2050,2,4,,4,27919,2.50011,-0.08784,2733.711,2981.195,25.6,
1499,1,SBT2050,2,4,,4,27960,2.49995,-0.08419,2733.711,2982.173,25.6,
1499,1,SBT2050,2,4,,4,28001,2.500041,-0.08087,2733.711,2983.112,25.5,
1499,1,SBT2050,2,4,,4,28042,2.499886,-0.07755,2733.711,2984.014,25.6,
1499,1,SBT2050,2,4,,4,28083,2.500029,-0.07443,2733.711,2984.879,25.5,
1499,1,SBT2050,2,4,,4,28124,2.49995,-0.07147,2733.711,2985.71,25.5,
1499,1,SBT2050,2,4,,4,28165,2.49991,-0.06885,2733.711,2986.51,25.5,
1499,1,SBT2050,2,4,,4,28206,2.49998,-0.06629,2733.711,2987.279,25.4,
1499,1,SBT2050,2,4,,4,28247,2.49987,-0.06362,2733.711,2988.019,25.4,
1499,1,SBT2050,2,4,,4,28288,2.49992,-0.06129,2733.711,2988.731,25.4,
1499,1,SBT2050,2,4,,4,28329,2.50009,-0.0591,2733.711,2989.418,25.4,
1499,1,SBT2050,2,4,,4,28370,2.49995,-0.05697,2733.711,2990.079,25.4,
1499,1,SBT2050,2,4,,4,28411,2.50008,-0.055,2733.711,2990.716,25.4,
1499,1,SBT2050,2,4,,4,28452,2.50008,-0.05291,2733.711,2991.331,25.3,
1499,1,SBT2050,2,4,,4,28493,2.50008,-0.05101,2733.711,2991.923,25.3,
1499,1,SBT2050,2,4,,4,28534,2.49999,-0.04924,2733.711,2992.494,25.3,
1499,1,SBT2050,2,4,,4,28575,2.49997,-0.047406,2733.711,2993.044,25.3,
1499,1,SBT2050,2,4,,4,28616,2.500041,-0.045749,2733.711,2993.575,25.3,
1499,1,SBT2050,2,4,,4,28657,2.50012,-0.044038,2733.711,2994.086,25.3,
1499,1,SBT2050,2,4,,4,28698,2.50008,-0.042411,2733.711,2994.578,25.3,
1499,1,SBT2050,2,4,,4,28739,2.49987,-0.040861,2733.711,2995.052,25.3,
1499,1,SBT2050,2,4,,4,28780,2.49997,-0.039368,2733.711,2995.509,25.3,
1499,1,SBT2050,2,4,,4,28821,2.50011,-0.037853,2733.711,2995.949,25.3,
1499,1,SBT2050,2,4,,4,28862,2.499898,-0.036257,2733.711,2996.373,25.3,
1499,1,SBT2050,2,4,,4,28903,2.49999,-0.035006,2733.711,2996.78,25.2,
1499,1,SBT2050,2,4,,4,28944,2.49996,-0.033682,2733.711,2997.171,25.2,
1499,1,SBT2050,2,4,,4,28985,2.49999,-0.032426,2733.711,2997.546,25.2,
1499,1,SBT2050,2,4,,4,29026,2.499886,-0.030968,2733.711,2997.908,25.2,
1499,1,SBT2050,2,4,,4,29067,2.50002,-0.029868,2733.711,2998.255,25.2,
1499,1,SBT2050,2,4,,4,29108,2.50009,-0.028632,2733.711,2998.588,25.2,
1499,1,SBT2050,2,4,,4,29149,2.50006,-0.027593,2733.711,2998.908,25.2,
1499,1,SBT2050,2,4,,4,29190,2.500053,-0.026578,2733.711,2999.216,25.2,
1499,1,SBT2050,2,4,,4,29231,2.500029,-0.025309,2733.711,2999.511,25.2,
1499,1,SBT2050,2,4,,4,29272,2.49977,-0.024256,2733.711,2999.795,25.1,
1499,1,SBT2050,2,4,,4,29313,2.500053,-0.023401,2733.711,3000.067,25.2,
1499,1,SBT2050,2,4,,4,29354,2.49984,-0.022399,2733.711,3000.328,25.2,
1499,1,SBT2050,2,4,,4,29395,2.49987,-0.021573,2733.711,3000.579,25.2,
1499,1,SBT2050,2,4,,4,29436,2.50012,-0.020698,2733.711,3000.82,25.1,
1499,1,SBT2050,2,4,,4,29477,2.500196,-0.019936,2733.711,3001.051,25.2,
1499,1,SBT2050,2,4,,4,29518,2.49993,-0.018935,2733.711,3001.273,25.2,
1499,1,SBT2050,2,4,,4,29559,2.499898,-0.018324,2733.711,3001.486,25.2,
1499,1,SBT2050,2,4,,4,29600,2.5001,-0.017602,2733.711,3001.69,25.1,
1499,1,SBT2050,2,4,,4,29641,2.500196,-0.016905,2733.711,3001.886,25.1,
1499,1,SBT2050,2,4,,4,29682,2.500053,-0.016164,2733.711,3002.074,25.1,
1499,1,SBT2050,2,4,,4,29723,2.500041,-0.015669,2733.711,3002.255,25.1,
1499,1,SBT2050,2,4,,4,29764,2.50002,-0.015029,2733.711,3002.428,25.1,
1499,1,SBT2050,2,4,,4,29805,2.50001,-0.014568,2733.711,3002.596,25.1,
1499,1,SBT2050,2,4,,4,29846,2.50002,-0.013826,2733.711,3002.756,25.1,
1499,1,SBT2050,2,4,,4,29887,2.50006,-0.013265,2733.711,3002.911,25.1,
1499,1,SBT2050,2,4,,4,29928,2.50002,-0.012775,2733.711,3003.059,25.1,
1499,1,SBT2050,2,4,,4,29969,2.49986,-0.012313,2733.711,3003.202,25.1,
1499,1,SBT2050,2,4,,4,30010,2.500053,-0.011947,2733.711,3003.339,25.1,
1499,1,SBT2050,2,4,,4,30051,2.50011,-0.011443,2733.711,3003.471,25.1,
1499,1,SBT2050,2,4,,4,30092,2.49996,-0.010906,2733.711,3003.599,25.1,
1499,1,SBT2050,2,4,,4,30133,2.499886,-0.010404,2733.711,3003.721,25.1,
1499,1,SBT2050,2,4,,5,30173,2.507688,0,2733.711,3003.815,25.1,
1499,1,SBT2050,2,4,,5,30214,2.53103,0,2733.711,3003.815,25.1,
1499,1,SBT2050,2,4,,5,30255,2.54937,0,2733.711,3003.815,25.1,
1499,1,SBT2050,2,4,,5,30296,2.56573,0,2733.711,3003.815,25,
1499,1,SBT2050,2,4,,5,30337,2.58009,0,2733.711,3003.815,25,
1499,1,SBT2050,2,4,,5,30378,2.59348,0,2733.711,3003.815,25,
1499,1,SBT2050,2,4,,5,30419,2.605331,0,2733.711,3003.815,25.1,
1499,1,SBT2050,2,4,,5,30460,2.61618,0,2733.711,3003.815,25.1,
1499,1,SBT2050,2,4,,5,30501,2.6259,0,2733.711,3003.815,25.1,
1499,1,SBT2050,2,4,,5,30542,2.634864,0,2733.711,3003.815,25.1,
1499,1,SBT2050,2,4,,5,30583,2.64328,0,2733.711,3003.815,25.1,
1499,1,SBT2050,2,4,,5,30624,2.65087,0,2733.711,3003.815,25.1,
1499,1,SBT2050,2,4,,5,30665,2.657961,0,2733.711,3003.815,25.1,
1499,1,SBT2050,2,4,,5,30706,2.66435,0,2733.711,3003.815,25.1,
1499,1,SBT2050,2,4,,5,30747,2.670596,0,2733.711,3003.815,25.1,
1499,1,SBT2050,2,4,,5,30788,2.675993,0,2733.711,3003.815,25.1,
1499,1,SBT2050,2,4,,5,30829,2.681349,0,2733.711,3003.815,25.1,
1499,1,SBT2050,2,4,,5,30870,2.6864,0,2733.711,3003.815,25.1,
1499,1,SBT2050,2,4,,5,30911,2.69103,0,2733.711,3003.815,25,
1499,1,SBT2050,2,4,,5,30952,2.696014,0,2733.711,3003.815,25,
1499,1,SBT2050,2,4,,5,30993,2.699934,0,2733.711,3003.815,25.1,
1499,1,SBT2050,2,4,,5,31034,2.70363,0,2733.711,3003.815,25,
1499,1,SBT2050,2,4,,5,31075,2.707775,0,2733.711,3003.815,25.1,
1499,1,SBT2050,2,4,,5,31116,2.711355,0,2733.711,3003.815,25,
1499,1,SBT2050,2,4,,5,31157,2.714863,0,2733.711,3003.815,25,
1499,1,SBT2050,2,4,,5,31198,2.71843,0,2733.711,3003.815,25,
1499,1,SBT2050,2,4,,5,31239,2.72162,0,2733.711,3003.815,25,
1499,1,SBT2050,2,4,,5,31280,2.72466,0,2733.711,3003.815,25.1,
1499,1,SBT2050,2,4,,5,31321,2.727432,0,2733.711,3003.815,25,
1499,1,SBT2050,2,4,,5,31362,2.73012,0,2733.711,3003.815,25.1,
1499,1,SBT2050,2,4,,5,31403,2.733061,0,2733.711,3003.815,25,
1499,1,SBT2050,2,4,,5,31444,2.73563,0,2733.711,3003.815,25,
1499,1,SBT2050,2,4,,5,31485,2.7383,0,2733.711,3003.815,25.1,
1499,1,SBT2050,2,4,,5,31526,2.740612,0,2733.711,3003.815,25.1,
1499,1,SBT2050,2,4,,5,31567,2.74325,0,2733.711,3003.815,25.1,
1499,1,SBT2050,2,4,,5,31608,2.74527,0,2733.711,3003.815,25.1,
1499,1,SBT2050,2,4,,5,31649,2.74753,0,2733.711,3003.815,25.1,
1499,1,SBT2050,2,4,,5,31690,2.749504,0,2733.711,3003.815,25,
1499,1,SBT2050,2,4,,5,31731,2.751616,0,2733.711,3003.815,25,
1499,1,SBT2050,2,4,,5,31772,2.75364,0,2733.711,3003.815,25,
1499,1,SBT2050,2,4,,5,31813,2.75588,0,2733.711,3003.815,25,
1499,1,SBT2050,2,4,,5,31854,2.757772,0,2733.711,3003.815,24.9,
1499,1,SBT2050,2,4,,5,31895,2.75932,0,2733.711,3003.815,24.9,
1499,1,SBT2050,2,4,,5,31936,2.7611,0,2733.711,3003.815,24.9,
1499,1,SBT2050,2,4,,5,31965.69,2.76243,-9.9E-05,2733.711,3003.815,,