File: 1C/Test1441.csv
Request Year:,2018,,,,,,,,,,,,
Test:,1441,,,,,,,,,,,,
Test Description:,,,,,,,,,,,,,
TestRegime Name:,Aging_Performance,,,,,,,,,,,,
TestRegime Suffix:,SHP_LC,,,,,,,,,,,,
TestRegime CellSize:,18650,,,,,,,,,,,,
TestRegime Version:,1,,,,,,,,,,,,
Number Of Cells:,1,,,,,,,,,,,,
LotID:,,,,,,,,,,,,,
Lot Description:,,,,,,,,,,,,,
Date Made:,1/21/2003 12:00 AM,,,,,,,,,,,,
Origin:,Other,,,,,,,,,,,,
Requestor:,Admin,,,,,,,,,,,,
Product ID:,Default product,,,,,,,,,,,,
Storage Temp:,R.T./AMB,,,,,,,,,,,,
Storage Delay:,0 days,,,,,,,,,,,,
Test Temp:,R.T./AMB,,,,,,,,,,,,
Start Time:,4/2/2018 1:53 PM,,,,,,,,,,,,
End Time:,4/2/2018 9:12 PM,,,,,,,,,,,,
Operator Instructions:,,,,,,,,,,,,,
Test,Cell,Rack,Shelf,Position,Cell ID,Step,Total Time (Seconds),Voltage (V),Current (A),Charge Capacity (mAh),Discharge Capacity (mAh),TC1 (Â°C),
1441,1,SBT2050,2,4,,0,1,3.34502,0,0,0,25.1,
1441,1,SBT2050,2,4,,0,36,3.34505,0,0,0,25.1,
1441,1,SBT2050,2,4,,0,71,3.344775,0,0,0,25.1,
1441,1,SBT2050,2,4,,0,106,3.34473,0,0,0,25.1,
1441,1,SBT2050,2,4,,0,141,3.3447,0,0,0,25.1,
1441,1,SBT2050,2,4,,0,176,3.34478,0,0,0,25,
1441,1,SBT2050,2,4,,0,211,3.34484,0,0,0,25,
1441,1,SBT2050,2,4,,0,246,3.34465,0,0,0,25.1,
1441,1,SBT2050,2,4,,0,281,3.34457,0,0,0,25,
1441,1,SBT2050,2,4,,1,316,2.647412,-2.9359,0,13.047,25.3,
1441,1,SBT2050,2,4,,1,351,2.49952,-1.8029,0,35.544,26.6,
1441,1,SBT2050,2,4,,1,386,2.49987,-1.507,0,51.442,27.4,
1441,1,SBT2050,2,4,,1,421,2.499815,-1.3312,0,65.189,28,
1441,1,SBT2050,2,4,,1,456,2.49987,-1.2009,0,77.473,28.4,
1441,1,SBT2050,2,4,,1,491,2.4998,-1.086,0,88.579,28.6,
1441,1,SBT2050,2,4,,1,526,2.49991,-0.9833,0,98.63,28.8,
1441,1,SBT2050,2,4,,1,561,2.499839,-0.8923,0,107.734,28.8,
1441,1,SBT2050,2,4,,1,596,2.50001,-0.8149,0,116.025,28.9,
1441,1,SBT2050,2,4,,1,631,2.49992,-0.7461,0,123.606,28.8,
1441,1,SBT2050,2,4,,1,666,2.499827,-0.6833,0,130.55,28.7,
1441,1,SBT2050,2,4,,1,701,2.499982,-0.6286,0,136.925,28.7,
1441,1,SBT2050,2,4,,1,736,2.499827,-0.578,0,142.783,28.5,
1441,1,SBT2050,2,4,,1,771,2.499827,-0.532,0,148.177,28.4,
1441,1,SBT2050,2,4,,1,806,2.4999,-0.4916,0,153.15,28.3,
1441,1,SBT2050,2,4,,1,841,2.499839,-0.45339,0,157.741,28.2,
1441,1,SBT2050,2,4,,1,876,2.49999,-0.42021,0,161.986,28,
1441,1,SBT2050,2,4,,1,911,2.49985,-0.39029,0,165.922,27.8,
1441,1,SBT2050,2,4,,1,946,2.499827,-0.3631,0,169.58,27.6,
1441,1,SBT2050,2,4,,1,981,2.49977,-0.33818,0,172.985,27.5,
1441,1,SBT2050,2,4,,1,1016,2.499827,-0.31557,0,176.159,27.4,
1441,1,SBT2050,2,4,,1,1051,2.49987,-0.2948,0,179.125,27.2,
1441,1,SBT2050,2,4,,1,1086,2.499815,-0.27587,0,181.9,27.1,
1441,1,SBT2050,2,4,,1,1121,2.49974,-0.25867,0,184.499,27,
1441,1,SBT2050,2,4,,1,1156,2.49985,-0.24308,0,186.938,26.9,
1441,1,SBT2050,2,4,,1,1191,2.499672,-0.22863,0,189.231,26.7,
1441,1,SBT2050,2,4,,1,1226,2.49991,-0.21552,0,191.39,26.6,
1441,1,SBT2050,2,4,,1,1261,2.50002,-0.20349,0,193.425,26.5,
1441,1,SBT2050,2,4,,1,1296,2.49978,-0.19238,0,195.348,26.5,
1441,1,SBT2050,2,4,,1,1331,2.49993,-0.18178,0,197.167,26.4,
1441,1,SBT2050,2,4,,1,1366,2.49978,-0.17201,0,198.887,26.3,
1441,1,SBT2050,2,4,,1,1401,2.49973,-0.1625,0,200.514,26.2,
1441,1,SBT2050,2,4,,1,1436,2.49992,-0.15402,0,202.053,26.1,
1441,1,SBT2050,2,4,,1,1471,2.499827,-0.14548,0,203.508,26.1,
1441,1,SBT2050,2,4,,1,1506,2.4999,-0.13786,0,204.885,26,
1441,1,SBT2050,2,4,,1,1541,2.49995,-0.13048,0,206.187,25.9,
1441,1,SBT2050,2,4,,1,1576,2.499827,-0.12343,0,207.419,25.9,
1441,1,SBT2050,2,4,,1,1611,2.50007,-0.11688,0,208.585,25.8,
1441,1,SBT2050,2,4,,1,1646,2.49993,-0.11052,0,209.689,25.8,
1441,1,SBT2050,2,4,,1,1681,2.499815,-0.10453,0,210.735,25.7,
1441,1,SBT2050,2,4,,1,1716,2.49974,-0.09894,0,211.724,25.7,
1441,1,SBT2050,2,4,,1,1751,2.499815,-0.09336,0,212.658,25.6,
1441,1,SBT2050,2,4,,1,1786,2.49991,-0.08833,0,213.542,25.6,
1441,1,SBT2050,2,4,,1,1821,2.49989,-0.08313,0,214.376,25.6,
1441,1,SBT2050,2,4,,1,1856,2.50003,-0.07866,0,215.163,25.6,
1441,1,SBT2050,2,4,,1,1891,2.50009,-0.07416,0,215.905,25.5,
1441,1,SBT2050,2,4,,1,1926,2.49995,-0.06965,0,216.604,25.5,
1441,1,SBT2050,2,4,,1,1961,2.50017,-0.06565,0,217.261,25.5,
1441,1,SBT2050,2,4,,1,1996,2.499839,-0.06151,0,217.879,25.4,
1441,1,SBT2050,2,4,,1,2031,2.49987,-0.05768,0,218.458,25.4,
1441,1,SBT2050,2,4,,1,2066,2.5001,-0.05412,0,219.001,25.4,
1441,1,SBT2050,2,4,,1,2101,2.49987,-0.05065,0,219.51,25.4,
1441,1,SBT2050,2,4,,1,2136,2.49997,-0.047444,0,219.987,25.4,
1441,1,SBT2050,2,4,,1,2171,2.49989,-0.04431,0,220.433,25.4,
1441,1,SBT2050,2,4,,1,2206,2.49993,-0.041396,0,220.85,25.3,
1441,1,SBT2050,2,4,,1,2241,2.50003,-0.038686,0,221.238,25.3,
1441,1,SBT2050,2,4,,1,2276,2.49995,-0.036159,0,221.602,25.3,
1441,1,SBT2050,2,4,,1,2311,2.50007,-0.033638,0,221.941,25.3,
1441,1,SBT2050,2,4,,1,2346,2.499958,-0.031452,0,222.257,25.3,
1441,1,SBT2050,2,4,,1,2381,2.50002,-0.029316,0,222.551,25.2,
1441,1,SBT2050,2,4,,1,2416,2.49989,-0.027232,0,222.826,25.2,
1441,1,SBT2050,2,4,,1,2451,2.49997,-0.025464,0,223.083,25.2,
1441,1,SBT2050,2,4,,1,2486,2.499958,-0.023686,0,223.322,25.2,
1441,1,SBT2050,2,4,,1,2521,2.499982,-0.022481,0,223.546,25.2,
1441,1,SBT2050,2,4,,1,2556,2.50002,-0.020827,0,223.756,25.2,
1441,1,SBT2050,2,4,,1,2591,2.50009,-0.019616,0,223.953,25.2,
1441,1,SBT2050,2,4,,1,2626,2.50003,-0.018445,0,224.138,25.2,
1441,1,SBT2050,2,4,,1,2661,2.50008,-0.0175,0,224.313,25.1,
1441,1,SBT2050,2,4,,1,2696,2.50001,-0.016564,0,224.478,25.1,
1441,1,SBT2050,2,4,,1,2731,2.50005,-0.015779,0,224.635,25.1,
1441,1,SBT2050,2,4,,1,2766,2.50002,-0.014835,0,224.784,25.2,
1441,1,SBT2050,2,4,,1,2801,2.49997,-0.014174,0,224.926,25.2,
1441,1,SBT2050,2,4,,1,2836,2.500113,-0.013669,0,225.062,25.2,
1441,1,SBT2050,2,4,,1,2871,2.499982,-0.013183,0,225.193,25.1,
1441,1,SBT2050,2,4,,1,2906,2.49995,-0.012675,0,225.318,25.1,
1441,1,SBT2050,2,4,,1,2941,2.50004,-0.012297,0,225.439,25.1,
1441,1,SBT2050,2,4,,1,2976,2.50021,-0.011882,0,225.556,25.1,
1441,1,SBT2050,2,4,,1,3011,2.50003,-0.011509,0,225.669,25.1,
1441,1,SBT2050,2,4,,1,3046,2.50007,-0.011246,0,225.779,25.1,
1441,1,SBT2050,2,4,,1,3081,2.49985,-0.010773,0,225.886,25.1,
1441,1,SBT2050,2,4,,1,3116,2.49997,-0.010471,0,225.989,25.1,
1441,1,SBT2050,2,4,,1,3151,2.4999,-0.010266,0,226.09,25.1,
1441,1,SBT2050,2,4,,2,3185,3.298026,2.9358,23.253,226.106,25.2,
1441,1,SBT2050,2,4,,2,3220,3.45177,2.9361,51.797,226.106,25.4,
1441,1,SBT2050,2,4,,2,3255,3.541922,2.9358,80.341,226.106,25.7,
1441,1,SBT2050,2,4,,2,3290,3.594798,2.9361,108.885,226.106,25.9,
1441,1,SBT2050,2,4,,2,3325,3.61197,2.9363,137.429,226.106,26.3,
1441,1,SBT2050,2,4,,2,3360,3.6209,2.9363,165.973,226.106,26.7,
1441,1,SBT2050,2,4,,2,3395,3.62933,2.9352,194.516,226.106,27,
1441,1,SBT2050,2,4,,2,3430,3.638382,2.9358,223.061,226.106,27.3,
1441,1,SBT2050,2,4,,2,3465,3.64734,2.936,251.605,226.106,27.6,
1441,1,SBT2050,2,4,,2,3500,3.65623,2.9358,280.149,226.106,27.8,
1441,1,SBT2050,2,4,,2,3535,3.664274,2.9355,308.693,226.106,28,
1441,1,SBT2050,2,4,,2,3570,3.67229,2.9358,337.237,226.106,28.2,
1441,1,SBT2050,2,4,,2,3605,3.67962,2.9361,365.781,226.106,28.3,
1441,1,SBT2050,2,4,,2,3640,3.68625,2.9358,394.325,226.106,28.4,
1441,1,SBT2050,2,4,,2,3675,3.69235,2.9356,422.869,226.106,28.5,
1441,1,SBT2050,2,4,,2,3710,3.69766,2.9363,451.413,226.106,28.5,
1441,1,SBT2050,2,4,,2,3745,3.70284,2.936,479.957,226.106,28.6,
1441,1,SBT2050,2,4,,2,3780,3.7077,2.9358,508.501,226.106,28.6,
1441,1,SBT2050,2,4,,2,3815,3.712932,2.9362,537.045,226.106,28.6,
1441,1,SBT2050,2,4,,2,3850,3.717822,2.9361,565.589,226.106,28.7,
1441,1,SBT2050,2,4,,2,3885,3.72309,2.9357,594.133,226.106,28.6,
1441,1,SBT2050,2,4,,2,3920,3.72883,2.936,622.677,226.106,28.7,
1441,1,SBT2050,2,4,,2,3955,3.73465,2.9357,651.221,226.106,28.7,
1441,1,SBT2050,2,4,,2,3990,3.74048,2.9358,679.765,226.106,28.6,
1441,1,SBT2050,2,4,,2,4025,3.74657,2.9359,708.309,226.106,28.6,
1441,1,SBT2050,2,4,,2,4060,3.75273,2.9363,736.854,226.106,28.6,
1441,1,SBT2050,2,4,,2,4095,3.75884,2.936,765.398,226.106,28.6,
1441,1,SBT2050,2,4,,2,4130,3.76479,2.936,793.942,226.106,28.6,
1441,1,SBT2050,2,4,,2,4165,3.77093,2.936,822.486,226.106,28.6,
1441,1,SBT2050,2,4,,2,4200,3.77712,2.936,851.03,226.106,28.6,
1441,1,SBT2050,2,4,,2,4235,3.78321,2.9359,879.574,226.106,28.6,
1441,1,SBT2050,2,4,,2,4270,3.78997,2.9364,908.118,226.106,28.6,
1441,1,SBT2050,2,4,,2,4305,3.79623,2.9361,936.662,226.106,28.5,
1441,1,SBT2050,2,4,,2,4340,3.80305,2.9359,965.206,226.106,28.6,
1441,1,SBT2050,2,4,,2,4375,3.80981,2.9358,993.75,226.106,28.6,
1441,1,SBT2050,2,4,,2,4410,3.81704,2.9357,1022.294,226.106,28.6,
1441,1,SBT2050,2,4,,2,4445,3.823982,2.9356,1050.838,226.106,28.6,
1441,1,SBT2050,2,4,,2,4480,3.83142,2.9359,1079.382,226.106,28.6,
1441,1,SBT2050,2,4,,2,4515,3.83926,2.9361,1107.926,226.106,28.6,
1441,1,SBT2050,2,4,,2,4550,3.84711,2.9358,1136.47,226.106,28.7,
1441,1,SBT2050,2,4,,2,4585,3.85481,2.9355,1165.014,226.106,28.7,
1441,1,SBT2050,2,4,,2,4620,3.86311,2.9361,1193.558,226.106,28.7,
1441,1,SBT2050,2,4,,2,4655,3.87192,2.9359,1222.102,226.106,28.7,
1441,1,SBT2050,2,4,,2,4690,3.88057,2.9361,1250.646,226.106,28.7,
1441,1,SBT2050,2,4,,2,4725,3.88955,2.9353,1279.19,226.106,28.8,
1441,1,SBT2050,2,4,,2,4760,3.89886,2.9365,1307.733,226.106,28.8,
1441,1,SBT2050,2,4,,2,4795,3.90823,2.9362,1336.277,226.106,28.8,
1441,1,SBT2050,2,4,,2,4830,3.91792,2.9357,1364.821,226.106,28.9,
1441,1,SBT2050,2,4,,2,4865,3.92778,2.936,1393.365,226.106,28.9,
1441,1,SBT2050,2,4,,2,4900,3.937316,2.9357,1421.909,226.106,29,
1441,1,SBT2050,2,4,,2,4935,3.94723,2.9356,1450.453,226.106,29,
1441,1,SBT2050,2,4,,2,4970,3.957242,2.9361,1478.997,226.106,29,
1441,1,SBT2050,2,4,,2,5005,3.96703,2.9363,1507.541,226.106,29,
1441,1,SBT2050,2,4,,2,5040,3.977408,2.9356,1536.085,226.106,29,
1441,1,SBT2050,2,4,,2,5075,3.98723,2.9358,1564.629,226.106,29.1,
1441,1,SBT2050,2,4,,2,5110,3.9977,2.9359,1593.173,226.106,29.1,
1441,1,SBT2050,2,4,,2,5145,4.00787,2.936,1621.717,226.106,29.2,
1441,1,SBT2050,2,4,,2,5180,4.018188,2.9357,1650.261,226.106,29.2,
1441,1,SBT2050,2,4,,2,5215,4.028242,2.936,1678.805,226.106,29.2,
1441,1,SBT2050,2,4,,2,5250,4.0387,2.936,1707.349,226.106,29.2,
1441,1,SBT2050,2,4,,2,5285,4.04919,2.9359,1735.893,226.106,29.3,
1441,1,SBT2050,2,4,,2,5320,4.05958,2.9355,1764.437,226.106,29.2,
1441,1,SBT2050,2,4,,2,5355,4.06983,2.9363,1792.981,226.106,29.3,
1441,1,SBT2050,2,4,,2,5390,4.08025,2.9364,1821.525,226.106,29.3,
1441,1,SBT2050,2,4,,2,5425,4.09064,2.9363,1850.069,226.106,29.3,
1441,1,SBT2050,2,4,,2,5460,4.10103,2.9359,1878.613,226.106,29.3,
1441,1,SBT2050,2,4,,2,5495,4.11124,2.936,1907.157,226.106,29.4,
1441,1,SBT2050,2,4,,2,5530,4.12204,2.9357,1935.701,226.106,29.4,
1441,1,SBT2050,2,4,,2,5565,4.13258,2.9355,1964.245,226.106,29.4,
1441,1,SBT2050,2,4,,2,5600,4.143516,2.9358,1992.789,226.106,29.5,
1441,1,SBT2050,2,4,,2,5635,4.15024,2.8391,2021.128,226.106,29.5,
1441,1,SBT2050,2,4,,2,5670,4.15025,2.6771,2047.908,226.106,29.5,
1441,1,SBT2050,2,4,,2,5705,4.15011,2.5379,2073.249,226.106,29.4,
1441,1,SBT2050,2,4,,2,5740,4.15016,2.4065,2097.274,226.106,29.3,
1441,1,SBT2050,2,4,,2,5775,4.14995,2.2793,2120.062,226.106,29.2,
1441,1,SBT2050,2,4,,2,5810,4.15022,2.1591,2141.641,226.106,29.1,
1441,1,SBT2050,2,4,,2,5845,4.15006,2.0482,2162.095,226.106,29,
1441,1,SBT2050,2,4,,2,5880,4.15012,1.9429,2181.492,226.106,28.9,
1441,1,SBT2050,2,4,,2,5915,4.15006,1.8413,2199.874,226.106,28.7,
1441,1,SBT2050,2,4,,2,5950,4.15007,1.7461,2217.304,226.106,28.5,
1441,1,SBT2050,2,4,,2,5985,4.15011,1.6564,2233.844,226.106,28.4,
1441,1,SBT2050,2,4,,2,6020,4.14989,1.5715,2249.537,226.106,28.2,
1441,1,SBT2050,2,4,,2,6055,4.15018,1.4952,2264.441,226.106,28,
1441,1,SBT2050,2,4,,2,6090,4.15009,1.4218,2278.615,226.106,27.9,
1441,1,SBT2050,2,4,,2,6125,4.150014,1.3539,2292.11,226.106,27.7,
1441,1,SBT2050,2,4,,2,6160,4.14991,1.2896,2304.959,226.106,27.6,
1441,1,SBT2050,2,4,,2,6195,4.15017,1.2308,2317.212,226.106,27.5,
1441,1,SBT2050,2,4,,2,6230,4.150264,1.1752,2328.912,226.106,27.4,
1441,1,SBT2050,2,4,,2,6265,4.150014,1.1239,2340.087,226.106,27.2,
1441,1,SBT2050,2,4,,2,6300,4.15011,1.0759,2350.771,226.106,27.1,
1441,1,SBT2050,2,4,,2,6335,4.149978,1.0303,2361.004,226.106,27,
1441,1,SBT2050,2,4,,2,6370,4.14989,0.9872,2370.806,226.106,26.9,
1441,1,SBT2050,2,4,,2,6405,4.14986,0.9491,2380.214,226.106,26.8,
1441,1,SBT2050,2,4,,2,6440,4.150026,0.9094,2389.248,226.106,26.7,
1441,1,SBT2050,2,4,,2,6475,4.150026,0.8743,2397.926,226.106,26.7,
1441,1,SBT2050,2,4,,2,6510,4.14994,0.8419,2406.269,226.106,26.5,
1441,1,SBT2050,2,4,,2,6545,4.14991,0.8104,2414.305,226.106,26.5,
1441,1,SBT2050,2,4,,2,6580,4.150276,0.7806,2422.04,226.106,26.4,
1441,1,SBT2050,2,4,,2,6615,4.15007,0.7529,2429.496,226.106,26.3,
1441,1,SBT2050,2,4,,2,6650,4.14992,0.7255,2436.688,226.106,26.3,
1441,1,SBT2050,2,4,,2,6685,4.15009,0.7013,2443.632,226.106,26.2,
1441,1,SBT2050,2,4,,2,6720,4.150002,0.6783,2450.34,226.106,26.1,
1441,1,SBT2050,2,4,,2,6755,4.15023,0.6571,2456.824,226.106,26.1,
1441,1,SBT2050,2,4,,2,6790,4.15012,0.6349,2463.102,226.106,26,
1441,1,SBT2050,2,4,,2,6825,4.149978,0.6152,2469.175,226.106,26,
1441,1,SBT2050,2,4,,2,6860,4.15009,0.5945,2475.056,226.106,26,
1441,1,SBT2050,2,4,,2,6895,4.149978,0.578,2480.753,226.106,25.9,
1441,1,SBT2050,2,4,,2,6930,4.15014,0.5583,2486.283,226.106,25.9,
1441,1,SBT2050,2,4,,2,6965,4.14992,0.5436,2491.636,226.106,25.8,
1441,1,SBT2050,2,4,,2,7000,4.15017,0.5267,2496.837,226.106,25.8,
1441,1,SBT2050,2,4,,2,7035,4.14992,0.5122,2501.884,226.106,25.7,
1441,1,SBT2050,2,4,,2,7070,4.150026,0.4972,2506.792,226.106,25.7,
1441,1,SBT2050,2,4,,2,7105,4.150014,0.4834,2511.566,226.106,25.7,
1441,1,SBT2050,2,4,,2,7140,4.15004,0.47057,2516.205,226.106,25.7,
1441,1,SBT2050,2,4,,2,7175,4.15004,0.45741,2520.717,226.106,25.7,
1441,1,SBT2050,2,4,,2,7210,4.1501,0.44533,2525.108,226.106,25.7,
1441,1,SBT2050,2,4,,2,7245,4.15013,0.43396,2529.382,226.106,25.6,
1441,1,SBT2050,2,4,,2,7280,4.1498,0.42376,2533.546,226.106,25.6,
1441,1,SBT2050,2,4,,2,7315,4.15005,0.41278,2537.609,226.106,25.6,
1441,1,SBT2050,2,4,,2,7350,4.15004,0.40276,2541.566,226.106,25.5,
1441,1,SBT2050,2,4,,2,7385,4.150276,0.39271,2545.426,226.106,25.5,
1441,1,SBT2050,2,4,,2,7420,4.15009,0.38267,2549.191,226.106,25.5,
1441,1,SBT2050,2,4,,2,7455,4.15022,0.37459,2552.869,226.106,25.5,
1441,1,SBT2050,2,4,,2,7490,4.150014,0.36516,2556.461,226.106,25.5,
1441,1,SBT2050,2,4,,2,7525,4.15017,0.35653,2559.968,226.106,25.5,
1441,1,SBT2050,2,4,,2,7560,4.15018,0.34826,2563.394,226.106,25.5,
1441,1,SBT2050,2,4,,2,7595,4.14986,0.34069,2566.742,226.106,25.4,
1441,1,SBT2050,2,4,,2,7630,4.15004,0.33296,2570.012,226.106,25.4,
1441,1,SBT2050,2,4,,2,7665,4.15016,0.32476,2573.21,226.106,25.4,
1441,1,SBT2050,2,4,,2,7700,4.1501,0.31741,2576.334,226.106,25.4,
1441,1,SBT2050,2,4,,2,7735,4.15025,0.31148,2579.393,226.106,25.4,
1441,1,SBT2050,2,4,,2,7770,4.14995,0.30469,2582.388,226.106,25.4,
1441,1,SBT2050,2,4,,2,7805,4.15013,0.29894,2585.322,226.106,25.4,
1441,1,SBT2050,2,4,,2,7840,4.150014,0.29206,2588.192,226.106,25.4,
1441,1,SBT2050,2,4,,2,7875,4.14976,0.28687,2591.005,226.106,25.4,
1441,1,SBT2050,2,4,,2,7910,4.150014,0.28048,2593.76,226.106,25.4,
1441,1,SBT2050,2,4,,2,7945,4.14991,0.27535,2596.457,226.106,25.4,
1441,1,SBT2050,2,4,,2,7980,4.15014,0.26894,2599.104,226.106,25.3,
1441,1,SBT2050,2,4,,2,8015,4.14986,0.26412,2601.696,226.106,25.4,
1441,1,SBT2050,2,4,,2,8050,4.14997,0.25866,2604.234,226.106,25.3,
1441,1,SBT2050,2,4,,2,8085,4.15013,0.25308,2606.722,226.106,25.3,
1441,1,SBT2050,2,4,,2,8120,4.14991,0.24885,2609.162,226.106,25.3,
1441,1,SBT2050,2,4,,2,8155,4.14992,0.24397,2611.552,226.106,25.3,
1441,1,SBT2050,2,4,,2,8190,4.15016,0.2391,2613.9,226.106,25.3,
1441,1,SBT2050,2,4,,2,8225,4.149978,0.23431,2616.203,226.106,25.3,
1441,1,SBT2050,2,4,,2,8260,4.14987,0.22978,2618.459,226.106,25.3,
1441,1,SBT2050,2,4,,2,8295,4.14978,0.22635,2620.672,226.106,25.3,
1441,1,SBT2050,2,4,,2,8330,4.14994,0.2215,2622.854,226.106,25.3,
1441,1,SBT2050,2,4,,2,8365,4.14995,0.21771,2624.99,226.106,25.3,
1441,1,SBT2050,2,4,,2,8400,4.149978,0.21466,2627.092,226.106,25.3,
1441,1,SBT2050,2,4,,2,8435,4.1501,0.21047,2629.151,226.106,25.2,
1441,1,SBT2050,2,4,,2,8470,4.15012,0.20587,2631.172,226.106,25.3,
1441,1,SBT2050,2,4,,2,8505,4.15009,0.20216,2633.16,226.106,25.3,
1441,1,SBT2050,2,4,,2,8540,4.14993,0.19876,2635.108,226.106,25.3,
1441,1,SBT2050,2,4,,2,8575,4.15023,0.19512,2637.024,226.106,25.3,
1441,1,SBT2050,2,4,,2,8610,4.14997,0.19205,2638.905,226.106,25.3,
1441,1,SBT2050,2,4,,2,8645,4.14991,0.18847,2640.757,226.106,25.3,
1441,1,SBT2050,2,4,,2,8680,4.14987,0.18519,2642.573,226.106,25.2,
1441,1,SBT2050,2,4,,2,8715,4.14975,0.18207,2644.356,226.106,25.2,
1441,1,SBT2050,2,4,,2,8750,4.15005,0.18001,2646.112,226.106,25.2,
1441,1,SBT2050,2,4,,2,8785,4.15012,0.17655,2647.848,226.106,25.2,
1441,1,SBT2050,2,4,,2,8820,4.15004,0.17222,2649.542,226.106,25.2,
1441,1,SBT2050,2,4,,2,8855,4.14987,0.16958,2651.204,226.106,25.2,
1441,1,SBT2050,2,4,,2,8890,4.14995,0.16705,2652.841,226.106,25.2,
1441,1,SBT2050,2,4,,2,8925,4.14989,0.1645,2654.45,226.106,25.2,
1441,1,SBT2050,2,4,,2,8960,4.15007,0.16209,2656.041,226.106,25.2,
1441,1,SBT2050,2,4,,2,8995,4.150014,0.15904,2657.6,226.106,25.2,
1441,1,SBT2050,2,4,,2,9030,4.1503,0.15586,2659.131,226.106,25.2,
1441,1,SBT2050,2,4,,2,9065,4.14986,0.15387,2660.637,226.106,25.2,
1441,1,SBT2050,2,4,,2,9100,4.15007,0.15116,2662.125,226.106,25.2,
1441,1,SBT2050,2,4,,2,9135,4.15017,0.14829,2663.583,226.106,25.1,
1441,1,SBT2050,2,4,,2,9170,4.150312,0.14711,2665.019,226.106,25.1,
1441,1,SBT2050,2,4,,2,9205,4.15025,0.14368,2666.428,226.106,25.2,
1441,1,SBT2050,2,4,,2,9240,4.15011,0.14138,2667.812,226.106,25.2,
1441,1,SBT2050,2,4,,2,9275,4.15004,0.13914,2669.177,226.106,25.2,
1441,1,SBT2050,2,4,,2,9310,4.150002,0.1373,2670.52,226.106,25.2,
1441,1,SBT2050,2,4,,2,9345,4.149978,0.13488,2671.84,226.106,25.1,
1441,1,SBT2050,2,4,,2,9380,4.14993,0.13225,2673.14,226.106,25.2,
1441,1,SBT2050,2,4,,2,9415,4.14991,0.13165,2674.42,226.106,25.2,
1441,1,SBT2050,2,4,,2,9450,4.14992,0.1283,2675.683,226.106,25.2,
1441,1,SBT2050,2,4,,2,9485,4.15016,0.12563,2676.919,226.106,25.2,
1441,1,SBT2050,2,4,,2,9520,4.15011,0.12379,2678.135,226.106,25.2,
1441,1,SBT2050,2,4,,2,9555,4.15005,0.12222,2679.333,226.106,25.2,
1441,1,SBT2050,2,4,,2,9590,4.15004,0.12026,2680.513,226.106,25.2,
1441,1,SBT2050,2,4,,2,9625,4.149978,0.11831,2681.67,226.106,25.2,
1441,1,SBT2050,2,4,,2,9660,4.15016,0.11635,2682.811,226.106,25.2,
1441,1,SBT2050,2,4,,2,9695,4.14974,0.11468,2683.934,226.106,25.2,
1441,1,SBT2050,2,4,,2,9730,4.1502,0.11297,2685.041,226.106,25.1,
1441,1,SBT2050,2,4,,2,9765,4.15011,0.1113,2686.13,226.106,25.2,
1441,1,SBT2050,2,4,,2,9800,4.15004,0.10966,2687.204,226.106,25.1,
1441,1,SBT2050,2,4,,2,9835,4.14993,0.10935,2688.265,226.106,25.2,
1441,1,SBT2050,2,4,,2,9870,4.14995,0.10642,2689.314,226.106,25.2,
1441,1,SBT2050,2,4,,2,9905,4.15036,0.10445,2690.34,226.106,25.1,
1441,1,SBT2050,2,4,,2,9940,4.1501,0.10304,2691.348,226.106,25.1,
1441,1,SBT2050,2,4,,2,9975,4.14987,0.10234,2692.342,226.106,25.1,
1441,1,SBT2050,2,4,,2,10010,4.149978,0.10001,2693.329,226.106,25.1,
1441,1,SBT2050,2,4,,2,10045,4.15012,0.09838,2694.293,226.106,25.1,
1441,1,SBT2050,2,4,,2,10080,4.15009,0.09693,2695.242,226.106,25.1,
1441,1,SBT2050,2,4,,2,10115,4.15017,0.09538,2696.176,226.106,25.1,
1441,1,SBT2050,2,4,,2,10150,4.150014,0.09405,2697.095,226.106,25.1,
1441,1,SBT2050,2,4,,2,10185,4.14986,0.09293,2698.003,226.106,25.1,
1441,1,SBT2050,2,4,,2,10220,4.14995,0.0912,2698.896,226.106,25.1,
1441,1,SBT2050,2,4,,2,10255,4.1502,0.08943,2699.778,226.106,25.1,
1441,1,SBT2050,2,4,,2,10290,4.14992,0.08814,2700.647,226.106,25.1,
1441,1,SBT2050,2,4,,2,10325,4.15012,0.0872,2701.499,226.106,25.1,
1441,1,SBT2050,2,4,,2,10360,4.15014,0.08594,2702.341,226.106,25.1,
1441,1,SBT2050,2,4,,2,10395,4.15023,0.08459,2703.172,226.106,25.1,
1441,1,SBT2050,2,4,,2,10430,4.15006,0.08362,2703.99,226.106,25.1,
1441,1,SBT2050,2,4,,2,10465,4.15006,0.08198,2704.797,226.106,25.1,
1441,1,SBT2050,2,4,,2,10500,4.15011,0.08142,2705.591,226.106,25.1,
1441,1,SBT2050,2,4,,2,10535,4.14994,0.07997,2706.374,226.106,25.1,
1441,1,SBT2050,2,4,,2,10570,4.15019,0.07937,2707.148,226.106,25.1,
1441,1,SBT2050,2,4,,2,10605,4.14986,0.07731,2707.913,226.106,25.1,
1441,1,SBT2050,2,4,,2,10640,4.15013,0.07613,2708.66,226.106,25.1,
1441,1,SBT2050,2,4,,2,10675,4.149978,0.07501,2709.393,226.106,25.1,
1441,1,SBT2050,2,4,,2,10710,4.14974,0.07433,2710.12,226.106,25.1,
1441,1,SBT2050,2,4,,2,10745,4.14991,0.07281,2710.835,226.106,25.1,
1441,1,SBT2050,2,4,,2,10780,4.14994,0.0719,2711.538,226.106,25.1,
1441,1,SBT2050,2,4,,2,10815,4.15004,0.07105,2712.233,226.106,25.1,
1441,1,SBT2050,2,4,,2,10850,4.150014,0.07037,2712.919,226.106,25.1,
1441,1,SBT2050,2,4,,2,10885,4.14991,0.06923,2713.597,226.106,25.1,
1441,1,SBT2050,2,4,,2,10920,4.14994,0.06796,2714.264,226.106,25.1,
1441,1,SBT2050,2,4,,2,10955,4.15025,0.06685,2714.92,226.106,25.1,
1441,1,SBT2050,2,4,,2,10990,4.14995,0.0664,2715.567,226.106,25.1,
1441,1,SBT2050,2,4,,2,11025,4.15004,0.06615,2716.214,226.106,25.1,
1441,1,SBT2050,2,4,,2,11060,4.15017,0.06371,2716.842,226.106,25.1,
1441,1,SBT2050,2,4,,2,11095,4.14999,0.06277,2717.458,226.106,25.1,
1441,1,SBT2050,2,4,,2,11130,4.14997,0.06327,2718.073,226.106,25,
1441,1,SBT2050,2,4,,2,11165,4.15006,0.06183,2718.682,226.106,25.1,
1441,1,SBT2050,2,4,,2,11200,4.1501,0.0602,2719.272,226.106,25.1,
1441,1,SBT2050,2,4,,2,11235,4.15022,0.05932,2719.86,226.106,25.1,
1441,1,SBT2050,2,4,,2,11270,4.15007,0.05824,2720.431,226.106,25,
1441,1,SBT2050,2,4,,2,11305,4.14994,0.05777,2720.993,226.106,25,
1441,1,SBT2050,2,4,,2,11340,4.1501,0.05685,2721.552,226.106,25.1,
1441,1,SBT2050,2,4,,2,11375,4.149978,0.05621,2722.101,226.106,25,
1441,1,SBT2050,2,4,,2,11410,4.15004,0.05585,2722.646,226.106,25,
1441,1,SBT2050,2,4,,2,11445,4.14991,0.05487,2723.183,226.106,25.1,
1441,1,SBT2050,2,4,,2,11480,4.14981,0.05427,2723.713,226.106,25.1,
1441,1,SBT2050,2,4,,2,11515,4.14988,0.0534,2724.237,226.106,25,
1441,1,SBT2050,2,4,,2,11550,4.14994,0.05357,2724.757,226.106,25,
1441,1,SBT2050,2,4,,2,11585,4.14993,0.05199,2725.269,226.106,25.1,
1441,1,SBT2050,2,4,,2,11620,4.150264,0.05158,2725.772,226.106,25.1,
1441,1,SBT2050,2,4,,2,11655,4.1502,0.05054,2726.271,226.106,25.1,
1441,1,SBT2050,2,4,,2,11690,4.150026,0.04992,2726.76,226.106,25.1,
1441,1,SBT2050,2,4,,2,11725,4.14999,0.04945,2727.247,226.106,25,
1441,1,SBT2050,2,4,,2,11760,4.14993,0.04842,2727.724,226.106,25,
1441,1,SBT2050,2,4,,2,11795,4.14992,0.04781,2728.193,226.106,25,
1441,1,SBT2050,2,4,,2,11830,4.150026,0.04793,2728.659,226.106,25,
1441,1,SBT2050,2,4,,2,11865,4.15013,0.047323,2729.12,226.106,25,
1441,1,SBT2050,2,4,,2,11900,4.14999,0.04705,2729.574,226.106,25,
1441,1,SBT2050,2,4,,2,11935,4.15007,0.045302,2730.023,226.106,25,
1441,1,SBT2050,2,4,,2,11970,4.15013,0.045498,2730.468,226.106,25.1,
1441,1,SBT2050,2,4,,2,12005,4.15006,0.04381,2730.906,226.106,25.1,
1441,1,SBT2050,2,4,,2,12040,4.14982,0.043979,2731.334,226.106,25.1,
1441,1,SBT2050,2,4,,2,12075,4.1498,0.043843,2731.759,226.106,25,
1441,1,SBT2050,2,4,,2,12110,4.14999,0.042765,2732.179,226.106,25,
1441,1,SBT2050,2,4,,2,12145,4.15009,0.042488,2732.594,226.106,25,
1441,1,SBT2050,2,4,,2,12180,4.15019,0.041924,2733.004,226.106,25,
1441,1,SBT2050,2,4,,2,12215,4.14991,0.041515,2733.41,226.106,25,
1441,1,SBT2050,2,4,,2,12250,4.15006,0.041445,2733.813,226.106,25,
1441,1,SBT2050,2,4,,2,12285,4.14982,0.04041,2734.211,226.106,25.1,
1441,1,SBT2050,2,4,,2,12320,4.14989,0.039687,2734.601,226.106,25.1,
1441,1,SBT2050,2,4,,2,12355,4.15013,0.040096,2734.987,226.106,25,
1441,1,SBT2050,2,4,,2,12390,4.15011,0.038561,2735.37,226.106,25.1,
1441,1,SBT2050,2,4,,2,12425,4.15023,0.038073,2735.744,226.106,25,
1441,1,SBT2050,2,4,,2,12460,4.149978,0.036784,2736.109,226.106,25,
1441,1,SBT2050,2,4,,2,12495,4.149978,0.036671,2736.468,226.106,25,
1441,1,SBT2050,2,4,,2,12530,4.14988,0.036389,2736.822,226.106,25,
1441,1,SBT2050,2,4,,2,12565,4.14995,0.035867,2737.173,226.106,25.1,
1441,1,SBT2050,2,4,,2,12600,4.150026,0.036157,2737.521,226.106,25.1,
1441,1,SBT2050,2,4,,2,12635,4.15011,0.035731,2737.868,226.106,25.1,
1441,1,SBT2050,2,4,,2,12670,4.15004,0.034675,2738.212,226.106,25,
1441,1,SBT2050,2,4,,2,12705,4.15004,0.034919,2738.55,226.106,25.1,
1441,1,SBT2050,2,4,,2,12740,4.15016,0.03415,2738.888,226.106,25.1,
1441,1,SBT2050,2,4,,2,12775,4.15019,0.033903,2739.219,226.106,25,
1441,1,SBT2050,2,4,,2,12810,4.14986,0.03343,2739.546,226.106,25.1,
1441,1,SBT2050,2,4,,2,12845,4.15007,0.032841,2739.869,226.106,25,
1441,1,SBT2050,2,4,,2,12880,4.15005,0.032323,2740.185,226.106,25,
1441,1,SBT2050,2,4,,2,12915,4.14988,0.032235,2740.499,226.106,25.1,
1441,1,SBT2050,2,4,,2,12950,4.14997,0.031463,2740.808,226.106,25,
1441,1,SBT2050,2,4,,2,12985,4.150014,0.031818,2741.116,226.106,25.1,
1441,1,SBT2050,2,4,,2,13020,4.149978,0.031088,2741.42,226.106,25,
1441,1,SBT2050,2,4,,2,13055,4.15012,0.030405,2741.718,226.106,25,
1441,1,SBT2050,2,4,,2,13090,4.14997,0.030618,2742.013,226.106,25,
1441,1,SBT2050,2,4,,2,13125,4.15007,0.029855,2742.306,226.106,25,
1441,1,SBT2050,2,4,,2,13160,4.14988,0.029847,2742.599,226.106,25,
1441,1,SBT2050,2,4,,2,13195,4.15004,0.029134,2742.886,226.106,25,
1441,1,SBT2050,2,4,,2,13230,4.14985,0.029145,2743.17,226.106,25,
1441,1,SBT2050,2,4,,2,13265,4.15024,0.029395,2743.453,226.106,25,
1441,1,SBT2050,2,4,,2,13300,4.14987,0.028652,2743.737,226.106,25,
1441,1,SBT2050,2,4,,2,13335,4.15006,0.027716,2744.012,226.106,25,
1441,1,SBT2050,2,4,,2,13370,4.15006,0.027884,2744.282,226.106,25,
1441,1,SBT2050,2,4,,2,13405,4.15012,0.027667,2744.552,226.106,25.1,
1441,1,SBT2050,2,4,,2,13440,4.149978,0.026768,2744.818,226.106,25.1,
1441,1,SBT2050,2,4,,2,13475,4.14987,0.026936,2745.079,226.106,25.1,
1441,1,SBT2050,2,4,,2,13510,4.14992,0.026481,2745.344,226.106,25.1,
1441,1,SBT2050,2,4,,2,13545,4.14976,0.026958,2745.601,226.106,25,
1441,1,SBT2050,2,4,,2,13580,4.14995,0.025693,2745.852,226.106,25.1,
1441,1,SBT2050,2,4,,2,13615,4.15014,0.025841,2746.103,226.106,25,
1441,1,SBT2050,2,4,,2,13650,4.150014,0.025139,2746.351,226.106,25,
1441,1,SBT2050,2,4,,2,13685,4.14993,0.025291,2746.596,226.106,25.1,
1441,1,SBT2050,2,4,,2,13720,4.150014,0.024605,2746.84,226.106,25.1,
1441,1,SBT2050,2,4,,2,13755,4.14997,0.023998,2747.077,226.106,25.1,
1441,1,SBT2050,2,4,,2,13790,4.14995,0.024614,2747.313,226.106,25.1,
1441,1,SBT2050,2,4,,2,13825,4.15013,0.023692,2747.548,226.106,25,
1441,1,SBT2050,2,4,,2,13860,4.15019,0.023637,2747.78,226.106,25,
1441,1,SBT2050,2,4,,2,13895,4.149978,0.023385,2748.008,226.106,25,
1441,1,SBT2050,2,4,,2,13930,4.14992,0.023178,2748.234,226.106,25,
1441,1,SBT2050,2,4,,2,13965,4.14978,0.023202,2748.462,226.106,25,
1441,1,SBT2050,2,4,,2,14000,4.15017,0.022882,2748.686,226.106,25.1,
1441,1,SBT2050,2,4,,2,14035,4.15007,0.022726,2748.905,226.106,25.1,
1441,1,SBT2050,2,4,,2,14070,4.149716,0.022331,2749.125,226.106,25.1,
1441,1,SBT2050,2,4,,2,14105,4.14986,0.022663,2749.344,226.106,25.1,
1441,1,SBT2050,2,4,,2,14140,4.15004,0.021573,2749.561,226.106,25,
1441,1,SBT2050,2,4,,2,14175,4.14992,0.02219,2749.773,226.106,25,
1441,1,SBT2050,2,4,,2,14210,4.14985,0.021406,2749.984,226.106,25,
1441,1,SBT2050,2,4,,2,14245,4.150026,0.021295,2750.194,226.106,25,
1441,1,SBT2050,2,4,,2,14280,4.14993,0.021803,2750.402,226.106,25,
1441,1,SBT2050,2,4,,2,14315,4.15012,0.021454,2750.612,226.106,25,
1441,1,SBT2050,2,4,,2,14350,4.14993,0.020152,2750.812,226.106,25,
1441,1,SBT2050,2,4,,2,14385,4.15012,0.02017,2751.01,226.106,25.1,
1441,1,SBT2050,2,4,,2,14420,4.14997,0.019499,2751.203,226.106,25,
1441,1,SBT2050,2,4,,2,14455,4.15019,0.019548,2751.394,226.106,25.1,
1441,1,SBT2050,2,4,,2,14490,4.14979,0.019337,2751.584,226.106,25,
1441,1,SBT2050,2,4,,2,14525,4.15022,0.020103,2751.78,226.106,25,
1441,1,SBT2050,2,4,,2,14560,4.14981,0.01892,2751.966,226.106,25.1,
1441,1,SBT2050,2,4,,2,14595,4.14989,0.020042,2752.153,226.106,25,
1441,1,SBT2050,2,4,,2,14630,4.14978,0.018451,2752.341,226.106,25,
1441,1,SBT2050,2,4,,2,14665,4.150026,0.018322,2752.521,226.106,25,
1441,1,SBT2050,2,4,,2,14700,4.15023,0.018961,2752.699,226.106,25,
1441,1,SBT2050,2,4,,2,14735,4.14993,0.018447,2752.881,226.106,25,
1441,1,SBT2050,2,4,,2,14770,4.14992,0.018154,2753.058,226.106,25.1,
1441,1,SBT2050,2,4,,2,14805,4.15014,0.017864,2753.232,226.106,25.1,
1441,1,SBT2050,2,4,,2,14840,4.15005,0.017596,2753.402,226.106,25.1,
1441,1,SBT2050,2,4,,2,14875,4.15009,0.017872,2753.573,226.106,25,
1441,1,SBT2050,2,4,,2,14910,4.150014,0.017529,2753.744,226.106,25,
1441,1,SBT2050,2,4,,2,14945,4.149978,0.01727,2753.912,226.106,25,
1441,1,SBT2050,2,4,,2,14980,4.15013,0.016822,2754.082,226.106,25,
1441,1,SBT2050,2,4,,2,15015,4.1498,0.017433,2754.251,226.106,25,
1441,1,SBT2050,2,4,,2,15050,4.14995,0.016446,2754.417,226.106,25.1,
1441,1,SBT2050,2,4,,2,15085,4.14985,0.016678,2754.575,226.106,25.1,
1441,1,SBT2050,2,4,,2,15120,4.15022,0.01576,2754.735,226.106,25.1,
1441,1,SBT2050,2,4,,2,15155,4.150014,0.016256,2754.897,226.106,25,
1441,1,SBT2050,2,4,,2,15190,4.14986,0.016056,2755.052,226.106,25.1,
1441,1,SBT2050,2,4,,2,15225,4.149692,0.01664,2755.211,226.106,25,
1441,1,SBT2050,2,4,,2,15260,4.14993,0.016516,2755.372,226.106,25.1,
1441,1,SBT2050,2,4,,2,15295,4.15019,0.015257,2755.524,226.106,25,
1441,1,SBT2050,2,4,,2,15330,4.14988,0.015616,2755.673,226.106,25,
1441,1,SBT2050,2,4,,2,15365,4.15012,0.015143,2755.823,226.106,25,
1441,1,SBT2050,2,4,,2,15400,4.14999,0.015798,2755.972,226.106,25,
1441,1,SBT2050,2,4,,2,15435,4.15007,0.014659,2756.121,226.106,25.1,
1441,1,SBT2050,2,4,,2,15470,4.14987,0.015129,2756.266,226.106,25.1,
1441,1,SBT2050,2,4,,2,15505,4.14997,0.014413,2756.411,226.106,25.1,
1441,1,SBT2050,2,4,,2,15540,4.14994,0.014275,2756.55,226.106,25,
1441,1,SBT2050,2,4,,2,15575,4.15013,0.01424,2756.69,226.106,25.1,
1441,1,SBT2050,2,4,,2,15610,4.14988,0.014567,2756.828,226.106,25,
1441,1,SBT2050,2,4,,2,15645,4.15013,0.014865,2756.973,226.106,25,
1441,1,SBT2050,2,4,,2,15680,4.150014,0.014412,2757.115,226.106,25,
1441,1,SBT2050,2,4,,2,15715,4.14989,0.01384,2757.256,226.106,25,
1441,1,SBT2050,2,4,,2,15750,4.15006,0.013923,2757.392,226.106,25,
1441,1,SBT2050,2,4,,2,15785,4.15016,0.013778,2757.525,226.106,25.1,
1441,1,SBT2050,2,4,,2,15820,4.150014,0.013449,2757.656,226.106,25.1,
1441,1,SBT2050,2,4,,2,15855,4.150264,0.013138,2757.787,226.106,25.1,
1441,1,SBT2050,2,4,,2,15890,4.14991,0.013095,2757.918,226.106,25.1,
1441,1,SBT2050,2,4,,2,15925,4.150002,0.013142,2758.046,226.106,25,
1441,1,SBT2050,2,4,,2,15960,4.15024,0.01306,2758.172,226.106,25,
1441,1,SBT2050,2,4,,2,15995,4.15022,0.012904,2758.296,226.106,25,
1441,1,SBT2050,2,4,,2,16030,4.14984,0.012945,2758.422,226.106,25.1,
1441,1,SBT2050,2,4,,2,16065,4.14993,0.0129,2758.546,226.106,25,
1441,1,SBT2050,2,4,,2,16100,4.14987,0.013593,2758.676,226.106,25.1,
1441,1,SBT2050,2,4,,2,16135,4.149716,0.012898,2758.803,226.106,25.1,
1441,1,SBT2050,2,4,,2,16170,4.15012,0.013113,2758.926,226.106,25.1,
1441,1,SBT2050,2,4,,2,16205,4.15004,0.012138,2759.047,226.106,25.1,
1441,1,SBT2050,2,4,,2,16240,4.14988,0.012209,2759.168,226.106,25.1,
1441,1,SBT2050,2,4,,2,16275,4.14981,0.011668,2759.284,226.106,25,
1441,1,SBT2050,2,4,,2,16310,4.14986,0.012947,2759.402,226.106,25,
1441,1,SBT2050,2,4,,2,16345,4.150002,0.011208,2759.515,226.106,25,
1441,1,SBT2050,2,4,,2,16380,4.150288,0.011468,2759.627,226.106,25,
1441,1,SBT2050,2,4,,2,16415,4.14988,0.012382,2759.743,226.106,25,
1441,1,SBT2050,2,4,,2,16450,4.14992,0.011898,2759.86,226.106,25.1,
1441,1,SBT2050,2,4,,2,16485,4.15018,0.011486,2759.976,226.106,25,
1441,1,SBT2050,2,4,,2,16520,4.14975,0.01134,2760.087,226.106,25.1,
1441,1,SBT2050,2,4,,2,16555,4.15025,0.011381,2760.196,226.106,25,
1441,1,SBT2050,2,4,,2,16590,4.14997,0.010779,2760.303,226.106,25,
1441,1,SBT2050,2,4,,2,16625,4.1498,0.011263,2760.411,226.106,25.1,
1441,1,SBT2050,2,4,,2,16660,4.14985,0.010858,2760.517,226.106,25,
1441,1,SBT2050,2,4,,2,16695,4.14992,0.011317,2760.622,226.106,25,
1441,1,SBT2050,2,4,,2,16730,4.14992,0.010831,2760.727,226.106,25,
1441,1,SBT2050,2,4,,2,16765,4.14988,0.010976,2760.833,226.106,25,
1441,1,SBT2050,2,4,,2,16800,4.15005,0.010738,2760.936,226.106,25.1,
1441,1,SBT2050,2,4,,3,16834,4.1483,0,2760.984,226.106,25.1,
1441,1,SBT2050,2,4,,3,16869,4.14801,0,2760.984,226.106,25.1,
1441,1,SBT2050,2,4,,3,16904,4.14802,0,2760.984,226.106,25,
1441,1,SBT2050,2,4,,3,16939,4.14747,0,2760.984,226.106,25,
1441,1,SBT2050,2,4,,3,16974,4.14746,0,2760.984,226.106,25,
1441,1,SBT2050,2,4,,3,17009,4.147272,0,2760.984,226.106,25,
1441,1,SBT2050,2,4,,3,17044,4.14728,0,2760.984,226.106,25,
1441,1,SBT2050,2,4,,3,17079,4.147206,0,2760.984,226.106,25.1,
1441,1,SBT2050,2,4,,3,17114,4.14714,0,2760.984,226.106,25.1,
1441,1,SBT2050,2,4,,3,17149,4.147282,0,2760.984,226.106,25.1,
1441,1,SBT2050,2,4,,3,17184,4.14705,0,2760.984,226.106,25.1,
1441,1,SBT2050,2,4,,3,17219,4.14669,0,2760.984,226.106,25.1,
1441,1,SBT2050,2,4,,3,17254,4.14692,0,2760.984,226.106,25,
1441,1,SBT2050,2,4,,3,17289,4.14653,0,2760.984,226.106,25,
1441,1,SBT2050,2,4,,3,17324,4.146726,0,2760.984,226.106,25,
1441,1,SBT2050,2,4,,3,17359,4.14642,0,2760.984,226.106,25.1,
1441,1,SBT2050,2,4,,3,17394,4.146374,0,2760.984,226.106,25,
1441,1,SBT2050,2,4,,3,17429,4.14612,0,2760.984,226.106,25.1,
1441,1,SBT2050,2,4,,3,17464,4.14625,0,2760.984,226.106,25,
1441,1,SBT2050,2,4,,3,17499,4.14622,0,2760.984,226.106,25.1,
1441,1,SBT2050,2,4,,3,17534,4.14612,0,2760.984,226.106,25.1,
1441,1,SBT2050,2,4,,3,17569,4.14615,0,2760.984,226.106,25,
1441,1,SBT2050,2,4,,3,17604,4.1462,0,2760.984,226.106,25.1,
1441,1,SBT2050,2,4,,3,17639,4.14586,0,2760.984,226.106,25,
1441,1,SBT2050,2,4,,3,17674,4.14595,0,2760.984,226.106,25,
1441,1,SBT2050,2,4,,3,17709,4.146266,0,2760.984,226.106,25,
1441,1,SBT2050,2,4,,3,17744,4.14573,0,2760.984,226.106,25,
1441,1,SBT2050,2,4,,3,17779,4.145968,0,2760.984,226.106,25,
1441,1,SBT2050,2,4,,3,17814,4.14593,0,2760.984,226.106,25,
1441,1,SBT2050,2,4,,3,17849,4.14585,0,2760.984,226.106,25,
1441,1,SBT2050,2,4,,3,17884,4.14577,0,2760.984,226.106,25.1,
1441,1,SBT2050,2,4,,3,17919,4.14583,0,2760.984,226.106,25.1,
1441,1,SBT2050,2,4,,3,17954,4.14595,0,2760.984,226.106,25,
1441,1,SBT2050,2,4,,3,17989,4.14589,0,2760.984,226.106,25.1,
1441,1,SBT2050,2,4,,3,18024,4.1457,0,2760.984,226.106,25,
1441,1,SBT2050,2,4,,3,18059,4.14565,0,2760.984,226.106,25,
1441,1,SBT2050,2,4,,3,18094,4.14559,0,2760.984,226.106,25,
1441,1,SBT2050,2,4,,3,18129,4.14563,0,2760.984,226.106,25,
1441,1,SBT2050,2,4,,3,18164,4.14535,0,2760.984,226.106,25,
1441,1,SBT2050,2,4,,3,18199,4.145412,0,2760.984,226.106,25.1,
1441,1,SBT2050,2,4,,3,18234,4.14514,0,2760.984,226.106,25.1,
1441,1,SBT2050,2,4,,3,18269,4.14541,0,2760.984,226.106,25.1,
1441,1,SBT2050,2,4,,3,18304,4.14577,0,2760.984,226.106,25,
1441,1,SBT2050,2,4,,3,18339,4.14557,0,2760.984,226.106,25,
1441,1,SBT2050,2,4,,3,18374,4.1453,0,2760.984,226.106,25,
1441,1,SBT2050,2,4,,3,18409,4.1453,0,2760.984,226.106,25.1,
1441,1,SBT2050,2,4,,3,18444,4.14538,0,2760.984,226.106,25,
1441,1,SBT2050,2,4,,3,18479,4.14527,0,2760.984,226.106,25,
1441,1,SBT2050,2,4,,3,18514,4.1452,0,2760.984,226.106,25,
1441,1,SBT2050,2,4,,3,18549,4.14506,0,2760.984,226.106,25.1,
1441,1,SBT2050,2,4,,3,18584,4.14492,0,2760.984,226.106,25,
1441,1,SBT2050,2,4,,4,18618,3.93502,-2.9355,2760.984,227.386,25,
1441,1,SBT2050,2,4,,4,18653,3.86035,-2.9359,2760.984,255.93,25.3,
1441,1,SBT2050,2,4,,4,18688,3.83332,-2.9361,2760.984,284.474,25.7,
1441,1,SBT2050,2,4,,4,18723,3.81899,-2.9355,2760.984,313.019,26.1,
1441,1,SBT2050,2,4,,4,18758,3.81044,-2.9358,2760.984,341.563,26.5,
1441,1,SBT2050,2,4,,4,18793,3.804144,-2.9361,2760.984,370.107,26.8,
1441,1,SBT2050,2,4,,4,18828,3.79889,-2.9358,2760.984,398.651,27.1,
1441,1,SBT2050,2,4,,4,18863,3.793722,-2.9363,2760.984,427.195,27.3,
1441,1,SBT2050,2,4,,4,18898,3.7884,-2.9363,2760.984,455.739,27.5,
1441,1,SBT2050,2,4,,4,18933,3.78297,-2.9363,2760.984,484.283,27.6,
1441,1,SBT2050,2,4,,4,18968,3.7769,-2.9355,2760.984,512.827,27.8,
1441,1,SBT2050,2,4,,4,19003,3.77024,-2.9361,2760.984,541.371,27.8,
1441,1,SBT2050,2,4,,4,19038,3.76325,-2.936,2760.984,569.915,27.9,
1441,1,SBT2050,2,4,,4,19073,3.75615,-2.9359,2760.984,598.459,28,
1441,1,SBT2050,2,4,,4,19108,3.74831,-2.9356,2760.984,627.003,28,
1441,1,SBT2050,2,4,,4,19143,3.740516,-2.9357,2760.984,655.547,28.1,
1441,1,SBT2050,2,4,,4,19178,3.732354,-2.9361,2760.984,684.091,28.1,
1441,1,SBT2050,2,4,,4,19213,3.72401,-2.9363,2760.984,712.635,28.1,
1441,1,SBT2050,2,4,,4,19248,3.71507,-2.9363,2760.984,741.179,28,
1441,1,SBT2050,2,4,,4,19283,3.70657,-2.9358,2760.984,769.723,28,
1441,1,SBT2050,2,4,,4,19318,3.69757,-2.9361,2760.984,798.267,28,
1441,1,SBT2050,2,4,,4,19353,3.68917,-2.9358,2760.984,826.811,28.1,
1441,1,SBT2050,2,4,,4,19388,3.680002,-2.9361,2760.984,855.355,28,
1441,1,SBT2050,2,4,,4,19423,3.67108,-2.9363,2760.984,883.899,28,
1441,1,SBT2050,2,4,,4,19458,3.66191,-2.9361,2760.984,912.443,28,
1441,1,SBT2050,2,4,,4,19493,3.652398,-2.9358,2760.984,940.987,28,
1441,1,SBT2050,2,4,,4,19528,3.64319,-2.9361,2760.984,969.531,28,
1441,1,SBT2050,2,4,,4,19563,3.63363,-2.9358,2760.984,998.075,28,
1441,1,SBT2050,2,4,,4,19598,3.62432,-2.9359,2760.984,1026.619,28,
1441,1,SBT2050,2,4,,4,19633,3.614658,-2.9358,2760.984,1055.163,28,
1441,1,SBT2050,2,4,,4,19668,3.60488,-2.9359,2760.984,1083.707,28.1,
1441,1,SBT2050,2,4,,4,19703,3.59486,-2.9362,2760.984,1112.251,28,
1441,1,SBT2050,2,4,,4,19738,3.58476,-2.9358,2760.984,1140.795,28.1,
1441,1,SBT2050,2,4,,4,19773,3.57504,-2.9366,2760.984,1169.339,28.1,
1441,1,SBT2050,2,4,,4,19808,3.56509,-2.936,2760.984,1197.883,28.1,
1441,1,SBT2050,2,4,,4,19843,3.5548,-2.9361,2760.984,1226.427,28.1,
1441,1,SBT2050,2,4,,4,19878,3.54465,-2.9364,2760.984,1254.971,28.2,
1441,1,SBT2050,2,4,,4,19913,3.53422,-2.9365,2760.984,1283.515,28.1,
1441,1,SBT2050,2,4,,4,19948,3.52391,-2.9359,2760.984,1312.059,28.2,
1441,1,SBT2050,2,4,,4,19983,3.51407,-2.9359,2760.984,1340.603,28.2,
1441,1,SBT2050,2,4,,4,20018,3.50371,-2.9361,2760.984,1369.147,28.2,
1441,1,SBT2050,2,4,,4,20053,3.49396,-2.9358,2760.984,1397.691,28.2,
1441,1,SBT2050,2,4,,4,20088,3.48383,-2.9355,2760.984,1426.236,28.2,
1441,1,SBT2050,2,4,,4,20123,3.47396,-2.9361,2760.984,1454.78,28.2,
1441,1,SBT2050,2,4,,4,20158,3.46428,-2.9359,2760.984,1483.324,28.2,
1441,1,SBT2050,2,4,,4,20193,3.45489,-2.9358,2760.984,1511.868,28.2,
1441,1,SBT2050,2,4,,4,20228,3.44544,-2.9362,2760.984,1540.412,28.2,
1441,1,SBT2050,2,4,,4,20263,3.43616,-2.9365,2760.984,1568.956,28.3,
1441,1,SBT2050,2,4,,4,20298,3.427254,-2.9353,2760.984,1597.5,28.3,
1441,1,SBT2050,2,4,,4,20333,3.41817,-2.936,2760.984,1626.044,28.3,
1441,1,SBT2050,2,4,,4,20368,3.4091,-2.9362,2760.984,1654.588,28.3,
1441,1,SBT2050,2,4,,4,20403,3.400218,-2.9357,2760.984,1683.132,28.3,
1441,1,SBT2050,2,4,,4,20438,3.39128,-2.936,2760.984,1711.676,28.3,
1441,1,SBT2050,2,4,,4,20473,3.3826,-2.9361,2760.984,1740.22,28.4,
1441,1,SBT2050,2,4,,4,20508,3.37382,-2.9356,2760.984,1768.764,28.4,
1441,1,SBT2050,2,4,,4,20543,3.36512,-2.9361,2760.984,1797.308,28.5,
1441,1,SBT2050,2,4,,4,20578,3.356098,-2.9358,2760.984,1825.852,28.5,
1441,1,SBT2050,2,4,,4,20613,3.34696,-2.9365,2760.984,1854.396,28.5,
1441,1,SBT2050,2,4,,4,20648,3.337753,-2.9356,2760.984,1882.94,28.5,
1441,1,SBT2050,2,4,,4,20683,3.32862,-2.9361,2760.984,1911.484,28.6,
1441,1,SBT2050,2,4,,4,20718,3.31887,-2.9358,2760.984,1940.028,28.6,
1441,1,SBT2050,2,4,,4,20753,3.30929,-2.9359,2760.984,1968.572,28.7,
1441,1,SBT2050,2,4,,4,20788,3.29918,-2.9357,2760.984,1997.116,28.7,
1441,1,SBT2050,2,4,,4,20823,3.28886,-2.9358,2760.984,2025.66,28.7,
1441,1,SBT2050,2,4,,4,20858,3.27786,-2.9364,2760.984,2054.204,28.8,
1441,1,SBT2050,2,4,,4,20893,3.26719,-2.9364,2760.984,2082.748,28.8,
1441,1,SBT2050,2,4,,4,20928,3.25515,-2.936,2760.984,2111.292,28.9,
1441,1,SBT2050,2,4,,4,20963,3.24304,-2.9362,2760.984,2139.836,29,
1441,1,SBT2050,2,4,,4,20998,3.23008,-2.9361,2760.984,2168.38,29,
1441,1,SBT2050,2,4,,4,21033,3.216706,-2.936,2760.984,2196.924,29.1,
1441,1,SBT2050,2,4,,4,21068,3.20232,-2.9359,2760.984,2225.468,29.2,
1441,1,SBT2050,2,4,,4,21103,3.18703,-2.9361,2760.984,2254.012,29.3,
1441,1,SBT2050,2,4,,4,21138,3.17044,-2.9361,2760.984,2282.557,29.4,
1441,1,SBT2050,2,4,,4,21173,3.15337,-2.9363,2760.984,2311.101,29.5,
1441,1,SBT2050,2,4,,4,21208,3.13475,-2.936,2760.984,2339.644,29.6,
1441,1,SBT2050,2,4,,4,21243,3.11452,-2.9357,2760.984,2368.188,29.7,
1441,1,SBT2050,2,4,,4,21278,3.09302,-2.9362,2760.984,2396.732,29.8,
1441,1,SBT2050,2,4,,4,21313,3.06947,-2.9359,2760.984,2425.277,30,
1441,1,SBT2050,2,4,,4,21348,3.04428,-2.9358,2760.984,2453.821,30.2,
1441,1,SBT2050,2,4,,4,21383,3.01693,-2.936,2760.984,2482.365,30.4,
1441,1,SBT2050,2,4,,4,21418,2.98651,-2.9363,2760.984,2510.909,30.5,
1441,1,SBT2050,2,4,,4,21453,2.95306,-2.9358,2760.984,2539.453,30.7,
1441,1,SBT2050,2,4,,4,21488,2.91528,-2.9361,2760.984,2567.997,31,
1441,1,SBT2050,2,4,,4,21523,2.87289,-2.936,2760.984,2596.541,31.3,
1441,1,SBT2050,2,4,,4,21558,2.82469,-2.9365,2760.984,2625.085,31.6,
1441,1,SBT2050,2,4,,4,21593,2.770944,-2.9359,2760.984,2653.629,32,
1441,1,SBT2050,2,4,,4,21628,2.7083,-2.9358,2760.984,2682.173,32.4,
1441,1,SBT2050,2,4,,4,21663,2.63155,-2.9362,2760.984,2710.717,32.9,
1441,1,SBT2050,2,4,,4,21698,2.53411,-2.936,2760.984,2739.261,33.4,
1441,1,SBT2050,2,4,,4,21733,2.49986,-2.538,2760.984,2766.183,34.1,
1441,1,SBT2050,2,4,,4,21768,2.49977,-2.2057,2760.984,2789.163,34.3,
1441,1,SBT2050,2,4,,4,21803,2.499833,-1.9318,2760.984,2809.24,34.5,
1441,1,SBT2050,2,4,,4,21838,2.499833,-1.6922,2760.984,2826.834,34.4,
1441,1,SBT2050,2,4,,4,21873,2.49973,-1.4822,2760.984,2842.244,34.2,
1441,1,SBT2050,2,4,,4,21908,2.49977,-1.3012,2760.984,2855.757,33.9,
1441,1,SBT2050,2,4,,4,21943,2.49961,-1.1447,2760.984,2867.628,33.5,
1441,1,SBT2050,2,4,,4,21978,2.49971,-1.0099,2760.984,2878.085,33.1,
1441,1,SBT2050,2,4,,4,22013,2.499821,-0.8929,2760.984,2887.321,32.6,
1441,1,SBT2050,2,4,,4,22048,2.4999,-0.7914,2760.984,2895.494,32.1,
1441,1,SBT2050,2,4,,4,22083,2.49986,-0.7059,2760.984,2902.763,31.6,
1441,1,SBT2050,2,4,,4,22118,2.49984,-0.6311,2760.984,2909.255,31.1,
1441,1,SBT2050,2,4,,4,22153,2.49974,-0.5676,2760.984,2915.077,30.7,
1441,1,SBT2050,2,4,,4,22188,2.49988,-0.5117,2760.984,2920.32,30.3,
1441,1,SBT2050,2,4,,4,22223,2.49977,-0.46251,2760.984,2925.056,29.8,
1441,1,SBT2050,2,4,,4,22258,2.499821,-0.41967,2760.984,2929.339,29.4,
1441,1,SBT2050,2,4,,4,22293,2.499821,-0.38355,2760.984,2933.238,29.1,
1441,1,SBT2050,2,4,,4,22328,2.49992,-0.35196,2760.984,2936.811,28.8,
1441,1,SBT2050,2,4,,4,22363,2.4998,-0.32449,2760.984,2940.098,28.5,
1441,1,SBT2050,2,4,,4,22398,2.49992,-0.3003,2760.984,2943.134,28.2,
1441,1,SBT2050,2,4,,4,22433,2.4999,-0.27844,2760.984,2945.947,27.9,
1441,1,SBT2050,2,4,,4,22468,2.49986,-0.25882,2760.984,2948.558,27.7,
1441,1,SBT2050,2,4,,4,22503,2.49977,-0.24099,2760.984,2950.986,27.5,
1441,1,SBT2050,2,4,,4,22538,2.49989,-0.22478,2760.984,2953.249,27.3,
1441,1,SBT2050,2,4,,4,22573,2.499833,-0.21012,2760.984,2955.361,27.1,
1441,1,SBT2050,2,4,,4,22608,2.4999,-0.19663,2760.984,2957.336,27,
1441,1,SBT2050,2,4,,4,22643,2.49987,-0.18385,2760.984,2959.185,26.9,
1441,1,SBT2050,2,4,,4,22678,2.49986,-0.17252,2760.984,2960.919,26.7,
1441,1,SBT2050,2,4,,4,22713,2.499833,-0.162,2760.984,2962.543,26.6,
1441,1,SBT2050,2,4,,4,22748,2.499666,-0.15165,2760.984,2964.068,26.5,
1441,1,SBT2050,2,4,,4,22783,2.49975,-0.14216,2760.984,2965.497,26.3,
1441,1,SBT2050,2,4,,4,22818,2.49986,-0.13364,2760.984,2966.837,26.2,
1441,1,SBT2050,2,4,,4,22853,2.4999,-0.1254,2760.984,2968.095,26.2,
1441,1,SBT2050,2,4,,4,22888,2.49988,-0.1178,2760.984,2969.276,26.1,
1441,1,SBT2050,2,4,,4,22923,2.4998,-0.11036,2760.984,2970.384,26,
1441,1,SBT2050,2,4,,4,22958,2.49992,-0.10353,2760.984,2971.423,26,
1441,1,SBT2050,2,4,,4,22993,2.50002,-0.09727,2760.984,2972.399,25.9,
1441,1,SBT2050,2,4,,4,23028,2.49988,-0.0911,2760.984,2973.315,25.8,
1441,1,SBT2050,2,4,,4,23063,2.4998,-0.08557,2760.984,2974.175,25.8,
1441,1,SBT2050,2,4,,4,23098,2.49975,-0.08029,2760.984,2974.981,25.7,
1441,1,SBT2050,2,4,,4,23133,2.499976,-0.07543,2760.984,2975.738,25.7,
1441,1,SBT2050,2,4,,4,23168,2.499976,-0.07049,2760.984,2976.447,25.6,
1441,1,SBT2050,2,4,,4,23203,2.49992,-0.06624,2760.984,2977.112,25.6,
1441,1,SBT2050,2,4,,4,23238,2.49994,-0.06177,2760.984,2977.734,25.5,
1441,1,SBT2050,2,4,,4,23273,2.49984,-0.05795,2760.984,2978.316,25.5,
1441,1,SBT2050,2,4,,4,23308,2.49987,-0.05421,2760.984,2978.862,25.5,
1441,1,SBT2050,2,4,,4,23343,2.49992,-0.05066,2760.984,2979.371,25.5,
1441,1,SBT2050,2,4,,4,23378,2.50001,-0.047559,2760.984,2979.848,25.4,
1441,1,SBT2050,2,4,,4,23413,2.50017,-0.044268,2760.984,2980.293,25.5,
1441,1,SBT2050,2,4,,4,23448,2.50005,-0.041384,2760.984,2980.709,25.4,
1441,1,SBT2050,2,4,,4,23483,2.50001,-0.038616,2760.984,2981.098,25.4,
1441,1,SBT2050,2,4,,4,23518,2.49995,-0.03617,2760.984,2981.461,25.3,
1441,1,SBT2050,2,4,,4,23553,2.4998,-0.033863,2760.984,2981.802,25.3,
1441,1,SBT2050,2,4,,4,23588,2.49984,-0.031723,2760.984,2982.121,25.3,
1441,1,SBT2050,2,4,,4,23623,2.49989,-0.029701,2760.984,2982.419,25.3,
1441,1,SBT2050,2,4,,4,23658,2.499964,-0.027925,2760.984,2982.699,25.3,
1441,1,SBT2050,2,4,,4,23693,2.49979,-0.026132,2760.984,2982.962,25.3,
1441,1,SBT2050,2,4,,4,23728,2.4998,-0.02456,2760.984,2983.209,25.3,
1441,1,SBT2050,2,4,,4,23763,2.499964,-0.02291,2760.984,2983.44,25.3,
1441,1,SBT2050,2,4,,4,23798,2.49992,-0.021633,2760.984,2983.658,25.2,
1441,1,SBT2050,2,4,,4,23833,2.49995,-0.020307,2760.984,2983.862,25.2,
1441,1,SBT2050,2,4,,4,23868,2.5,-0.019261,2760.984,2984.055,25.2,
1441,1,SBT2050,2,4,,4,23903,2.49986,-0.018075,2760.984,2984.238,25.2,
1441,1,SBT2050,2,4,,4,23938,2.50005,-0.017148,2760.984,2984.41,25.2,
1441,1,SBT2050,2,4,,4,23973,2.499809,-0.016335,2760.984,2984.573,25.2,
1441,1,SBT2050,2,4,,4,24008,2.500107,-0.015633,2760.984,2984.729,25.2,
1441,1,SBT2050,2,4,,4,24043,2.50005,-0.014952,2760.984,2984.877,25.1,
1441,1,SBT2050,2,4,,4,24078,2.499976,-0.014274,2760.984,2985.018,25.1,
1441,1,SBT2050,2,4,,4,24113,2.50002,-0.013533,2760.984,2985.154,25.1,
1441,1,SBT2050,2,4,,4,24148,2.499976,-0.013192,2760.984,2985.285,25.1,
1441,1,SBT2050,2,4,,4,24183,2.50005,-0.012725,2760.984,2985.41,25.1,
1441,1,SBT2050,2,4,,4,24218,2.49999,-0.012335,2760.984,2985.532,25.1,
1441,1,SBT2050,2,4,,4,24253,2.49993,-0.011863,2760.984,2985.65,25.1,
1441,1,SBT2050,2,4,,4,24288,2.49986,-0.011599,2760.984,2985.764,25.1,
1441,1,SBT2050,2,4,,4,24323,2.49988,-0.011266,2760.984,2985.875,25.1,
1441,1,SBT2050,2,4,,4,24358,2.50014,-0.011135,2760.984,2985.984,25.1,
1441,1,SBT2050,2,4,,4,24393,2.499976,-0.010752,2760.984,2986.09,25.1,
1441,1,SBT2050,2,4,,4,24428,2.50004,-0.010727,2760.984,2986.194,25.1,
1441,1,SBT2050,2,4,,4,24463,2.49988,-0.010218,2760.984,2986.295,25.1,
1441,1,SBT2050,2,4,,5,24497,2.504203,0,2760.984,2986.384,25.1,
1441,1,SBT2050,2,4,,5,24532,2.527258,0,2760.984,2986.384,25.1,
1441,1,SBT2050,2,4,,5,24567,2.5455,0,2760.984,2986.384,25.1,
1441,1,SBT2050,2,4,,5,24602,2.56167,0,2760.984,2986.384,25.1,
1441,1,SBT2050,2,4,,5,24637,2.57663,0,2760.984,2986.384,25.1,
1441,1,SBT2050,2,4,,5,24672,2.59045,0,2760.984,2986.384,25.1,
1441,1,SBT2050,2,4,,5,24707,2.60325,0,2760.984,2986.384,25.1,
1441,1,SBT2050,2,4,,5,24742,2.6153,0,2760.984,2986.384,25.1,
1441,1,SBT2050,2,4,,5,24777,2.62624,0,2760.984,2986.384,25,
1441,1,SBT2050,2,4,,5,24812,2.63643,0,2760.984,2986.384,25.1,
1441,1,SBT2050,2,4,,5,24847,2.64616,0,2760.984,2986.384,25.1,
1441,1,SBT2050,2,4,,5,24882,2.65506,0,2760.984,2986.384,25.1,
1441,1,SBT2050,2,4,,5,24917,2.66336,0,2760.984,2986.384,25.1,
1441,1,SBT2050,2,4,,5,24952,2.67109,0,2760.984,2986.384,25.1,
1441,1,SBT2050,2,4,,5,24987,2.67847,0,2760.984,2986.384,25.1,
1441,1,SBT2050,2,4,,5,25022,2.68505,0,2760.984,2986.384,25.1,
1441,1,SBT2050,2,4,,5,25057,2.69166,0,2760.984,2986.384,25.1,
1441,1,SBT2050,2,4,,5,25092,2.69742,0,2760.984,2986.384,25,
1441,1,SBT2050,2,4,,5,25127,2.70307,0,2760.984,2986.384,25,
1441,1,SBT2050,2,4,,5,25162,2.708339,0,2760.984,2986.384,25,
1441,1,SBT2050,2,4,,5,25197,2.71338,0,2760.984,2986.384,25,
1441,1,SBT2050,2,4,,5,25232,2.71802,0,2760.984,2986.384,25,
1441,1,SBT2050,2,4,,5,25267,2.72272,0,2760.984,2986.384,25,
1441,1,SBT2050,2,4,,5,25302,2.727144,0,2760.984,2986.384,25,
1441,1,SBT2050,2,4,,5,25337,2.731035,0,2760.984,2986.384,25.1,
1441,1,SBT2050,2,4,,5,25372,2.73484,0,2760.984,2986.384,25,
1441,1,SBT2050,2,4,,5,25407,2.73851,0,2760.984,2986.384,25.1,
1441,1,SBT2050,2,4,,5,25442,2.74194,0,2760.984,2986.384,25.1,
1441,1,SBT2050,2,4,,5,25477,2.74524,0,2760.984,2986.384,25,
1441,1,SBT2050,2,4,,5,25512,2.7484,0,2760.984,2986.384,25,
1441,1,SBT2050,2,4,,5,25547,2.75128,0,2760.984,2986.384,25,
1441,1,SBT2050,2,4,,5,25582,2.754494,0,2760.984,2986.384,25,
1441,1,SBT2050,2,4,,5,25617,2.75686,0,2760.984,2986.384,25,
1441,1,SBT2050,2,4,,5,25652,2.75995,0,2760.984,2986.384,25,
1441,1,SBT2050,2,4,,5,25687,2.76242,0,2760.984,2986.384,25,
1441,1,SBT2050,2,4,,5,25722,2.76468,0,2760.984,2986.384,25,
1441,1,SBT2050,2,4,,5,25757,2.76711,0,2760.984,2986.384,25,
1441,1,SBT2050,2,4,,5,25792,2.769513,0,2760.984,2986.384,25,
1441,1,SBT2050,2,4,,5,25827,2.771439,0,2760.984,2986.384,25,
1441,1,SBT2050,2,4,,5,25862,2.77339,0,2760.984,2986.384,25,
1441,1,SBT2050,2,4,,5,25897,2.77529,0,2760.984,2986.384,25,
1441,1,SBT2050,2,4,,5,25932,2.777262,0,2760.984,2986.384,25,
1441,1,SBT2050,2,4,,5,25967,2.77915,0,2760.984,2986.384,25,
1441,1,SBT2050,2,4,,5,26002,2.78101,0,2760.984,2986.384,25.1,
1441,1,SBT2050,2,4,,5,26037,2.78237,0,2760.984,2986.384,25.1,
1441,1,SBT2050,2,4,,5,26072,2.78424,0,2760.984,2986.384,25.1,
1441,1,SBT2050,2,4,,5,26107,2.78577,0,2760.984,2986.384,25.1,
1441,1,SBT2050,2,4,,5,26142,2.78746,0,2760.984,2986.384,25.1,
1441,1,SBT2050,2,4,,5,26177,2.78901,0,2760.984,2986.384,25.1,
1441,1,SBT2050,2,4,,5,26212,2.79051,0,2760.984,2986.384,25.2,
1441,1,SBT2050,2,4,,5,26247,2.792141,0,2760.984,2986.384,25.2,
1441,1,SBT2050,2,4,,5,26282,2.793328,0,2760.984,2986.384,25.2,
1441,1,SBT2050,2,4,,5,26294.197,2.79388,-9.9E-05,2760.984,2986.384,,