File: 1C/Test1397.csv
Request Year:,2018,,,,,,,,,,,,
Test:,1397,,,,,,,,,,,,
Test Description:,,,,,,,,,,,,,
TestRegime Name:,Aging_Performance,,,,,,,,,,,,
TestRegime Suffix:,SHP_LC,,,,,,,,,,,,
TestRegime CellSize:,18650,,,,,,,,,,,,
TestRegime Version:,1,,,,,,,,,,,,
Number Of Cells:,1,,,,,,,,,,,,
LotID:,,,,,,,,,,,,,
Lot Description:,,,,,,,,,,,,,
Date Made:,1/21/2003 12:00 AM,,,,,,,,,,,,
Origin:,Other,,,,,,,,,,,,
Requestor:,Admin,,,,,,,,,,,,
Product ID:,Default product,,,,,,,,,,,,
Storage Temp:,R.T./AMB,,,,,,,,,,,,
Storage Delay:,0 days,,,,,,,,,,,,
Test Temp:,R.T./AMB,,,,,,,,,,,,
Start Time:,3/27/2018 12:32 PM,,,,,,,,,,,,
End Time:,3/27/2018 7:56 PM,,,,,,,,,,,,
Operator Instructions:,,,,,,,,,,,,,
Test,Cell,Rack,Shelf,Position,Cell ID,Step,Total Time (Seconds),Voltage (V),Current (A),Charge Capacity (mAh),Discharge Capacity (mAh),TC1 (Â°C),
1397,1,SBT2050,2,4,,0,1,3.32036,0,0,0,-1000,
1397,1,SBT2050,2,4,,0,29,3.32029,0,0,0,-1000,
1397,1,SBT2050,2,4,,0,57,3.3202,0,0,0,-1000,
1397,1,SBT2050,2,4,,0,85,3.32041,0,0,0,-1000,
1397,1,SBT2050,2,4,,0,113,3.32021,0,0,0,-1000,
1397,1,SBT2050,2,4,,0,141,3.32042,0,0,0,-1000,
1397,1,SBT2050,2,4,,0,169,3.32042,0,0,0,-1000,
1397,1,SBT2050,2,4,,0,197,3.32038,0,0,0,-1000,
1397,1,SBT2050,2,4,,0,225,3.320575,0,0,0,-1000,
1397,1,SBT2050,2,4,,0,253,3.32067,0,0,0,-1000,
1397,1,SBT2050,2,4,,0,281,3.32077,0,0,0,-1000,
1397,1,SBT2050,2,4,,1,309,2.75163,-2.9358,0,7.339,-1000,
1397,1,SBT2050,2,4,,1,337,2.4993,-1.9211,0,27.016,-1000,
1397,1,SBT2050,2,4,,1,365,2.4997,-1.539,0,40.256,-1000,
1397,1,SBT2050,2,4,,1,393,2.49968,-1.3452,0,51.412,-1000,
1397,1,SBT2050,2,4,,1,421,2.49977,-1.2039,0,61.31,-1000,
1397,1,SBT2050,2,4,,1,449,2.4998,-1.075,0,70.162,-1000,
1397,1,SBT2050,2,4,,1,477,2.49983,-0.9704,0,78.1,-1000,
1397,1,SBT2050,2,4,,1,505,2.49976,-0.8834,0,85.302,-1000,
1397,1,SBT2050,2,4,,1,533,2.49973,-0.8076,0,91.873,-1000,
1397,1,SBT2050,2,4,,1,561,2.49986,-0.7404,0,97.888,-1000,
1397,1,SBT2050,2,4,,1,589,2.49984,-0.6795,0,103.403,-1000,
1397,1,SBT2050,2,4,,1,617,2.49984,-0.6246,0,108.47,-1000,
1397,1,SBT2050,2,4,,1,645,2.49984,-0.5757,0,113.134,-1000,
1397,1,SBT2050,2,4,,1,673,2.499923,-0.5318,0,117.437,-1000,
1397,1,SBT2050,2,4,,1,701,2.49991,-0.4916,0,121.413,-1000,
1397,1,SBT2050,2,4,,1,729,2.49976,-0.45369,0,125.09,-1000,
1397,1,SBT2050,2,4,,1,757,2.49976,-0.42018,0,128.49,-1000,
1397,1,SBT2050,2,4,,1,785,2.49971,-0.38976,0,131.639,-1000,
1397,1,SBT2050,2,4,,1,813,2.499637,-0.36004,0,134.555,-1000,
1397,1,SBT2050,2,4,,1,841,2.49986,-0.33342,0,137.253,-1000,
1397,1,SBT2050,2,4,,1,869,2.49973,-0.30781,0,139.747,-1000,
1397,1,SBT2050,2,4,,1,897,2.49986,-0.28328,0,142.045,-1000,
1397,1,SBT2050,2,4,,1,925,2.49983,-0.25947,0,144.155,-1000,
1397,1,SBT2050,2,4,,1,953,2.49973,-0.23598,0,146.081,-1000,
1397,1,SBT2050,2,4,,1,981,2.4998,-0.21399,0,147.831,-1000,
1397,1,SBT2050,2,4,,1,1009,2.49959,-0.19313,0,149.412,-1000,
1397,1,SBT2050,2,4,,1,1037,2.499482,-0.17185,0,150.829,-1000,
1397,1,SBT2050,2,4,,1,1065,2.49973,-0.15191,0,152.087,-1000,
1397,1,SBT2050,2,4,,1,1093,2.49986,-0.13285,0,153.193,-1000,
1397,1,SBT2050,2,4,,1,1121,2.49955,-0.11486,0,154.155,-1000,
1397,1,SBT2050,2,4,,1,1149,2.49973,-0.0983,0,154.982,-1000,
1397,1,SBT2050,2,4,,1,1177,2.49982,-0.08357,0,155.689,-1000,
1397,1,SBT2050,2,4,,1,1205,2.49974,-0.07074,0,156.288,-1000,
1397,1,SBT2050,2,4,,1,1233,2.49983,-0.05992,0,156.795,-1000,
1397,1,SBT2050,2,4,,1,1261,2.499935,-0.05154,0,157.228,-1000,
1397,1,SBT2050,2,4,,1,1289,2.50009,-0.044621,0,157.6,-1000,
1397,1,SBT2050,2,4,,1,1317,2.49985,-0.039229,0,157.925,-1000,
1397,1,SBT2050,2,4,,1,1345,2.49976,-0.035191,0,158.214,-1000,
1397,1,SBT2050,2,4,,1,1373,2.49996,-0.032233,0,158.477,-1000,
1397,1,SBT2050,2,4,,1,1401,2.499947,-0.029829,0,158.718,-1000,
1397,1,SBT2050,2,4,,1,1429,2.49988,-0.027884,0,158.942,-1000,
1397,1,SBT2050,2,4,,1,1457,2.4999,-0.026119,0,159.152,-1000,
1397,1,SBT2050,2,4,,1,1485,2.4998,-0.024913,0,159.351,-1000,
1397,1,SBT2050,2,4,,1,1513,2.49988,-0.023951,0,159.542,-1000,
1397,1,SBT2050,2,4,,1,1541,2.49998,-0.022976,0,159.724,-1000,
1397,1,SBT2050,2,4,,1,1569,2.50007,-0.022264,0,159.899,-1000,
1397,1,SBT2050,2,4,,1,1597,2.4999,-0.021533,0,160.069,-1000,
1397,1,SBT2050,2,4,,1,1625,2.499935,-0.020822,0,160.233,-1000,
1397,1,SBT2050,2,4,,1,1653,2.4998,-0.0202,0,160.393,24.9,
1397,1,SBT2050,2,4,,1,1681,2.50005,-0.019669,0,160.548,24.9,
1397,1,SBT2050,2,4,,1,1709,2.50007,-0.019264,0,160.699,8.4,
1397,1,SBT2050,2,4,,1,1737,2.499947,-0.018903,0,160.847,-1000,
1397,1,SBT2050,2,4,,1,1765,2.49998,-0.018395,0,160.991,-1000,
1397,1,SBT2050,2,4,,1,1793,2.50013,-0.01807,0,161.131,-1000,
1397,1,SBT2050,2,4,,1,1821,2.499923,-0.017483,0,161.269,-1000,
1397,1,SBT2050,2,4,,1,1849,2.49998,-0.017177,0,161.403,-1000,
1397,1,SBT2050,2,4,,1,1877,2.50005,-0.016921,0,161.536,-1000,
1397,1,SBT2050,2,4,,1,1905,2.50019,-0.016511,0,161.665,-1000,
1397,1,SBT2050,2,4,,1,1933,2.4999,-0.016092,0,161.793,-1000,
1397,1,SBT2050,2,4,,1,1961,2.500078,-0.015963,0,161.917,-1000,
1397,1,SBT2050,2,4,,1,1989,2.50004,-0.01549,0,162.039,-1000,
1397,1,SBT2050,2,4,,1,2017,2.5002,-0.01549,0,162.16,-1000,
1397,1,SBT2050,2,4,,1,2045,2.49999,-0.015023,0,162.278,-1000,
1397,1,SBT2050,2,4,,1,2073,2.50003,-0.014726,0,162.394,-1000,
1397,1,SBT2050,2,4,,1,2101,2.499947,-0.014535,0,162.508,-1000,
1397,1,SBT2050,2,4,,1,2129,2.50002,-0.014277,0,162.619,-1000,
1397,1,SBT2050,2,4,,1,2157,2.50021,-0.013963,0,162.729,-1000,
1397,1,SBT2050,2,4,,1,2185,2.4999,-0.013709,0,162.837,-1000,
1397,1,SBT2050,2,4,,1,2213,2.49998,-0.013599,0,162.944,-1000,
1397,1,SBT2050,2,4,,1,2241,2.49998,-0.013265,0,163.048,-1000,
1397,1,SBT2050,2,4,,1,2269,2.50003,-0.013118,0,163.151,-1000,
1397,1,SBT2050,2,4,,1,2297,2.49989,-0.01288,0,163.252,-1000,
1397,1,SBT2050,2,4,,1,2325,2.499947,-0.012717,0,163.351,-1000,
1397,1,SBT2050,2,4,,1,2353,2.499935,-0.012473,0,163.449,-1000,
1397,1,SBT2050,2,4,,1,2381,2.50002,-0.012164,0,163.545,-1000,
1397,1,SBT2050,2,4,,1,2409,2.50005,-0.012073,0,163.64,-1000,
1397,1,SBT2050,2,4,,1,2437,2.499923,-0.011845,0,163.733,-1000,
1397,1,SBT2050,2,4,,1,2465,2.50011,-0.011656,0,163.825,-1000,
1397,1,SBT2050,2,4,,1,2493,2.5001,-0.011622,0,163.915,-1000,
1397,1,SBT2050,2,4,,1,2521,2.50005,-0.011364,0,164.004,-1000,
1397,1,SBT2050,2,4,,1,2549,2.49972,-0.011044,0,164.092,-1000,
1397,1,SBT2050,2,4,,1,2577,2.499935,-0.010958,0,164.178,-1000,
1397,1,SBT2050,2,4,,1,2605,2.49996,-0.01077,0,164.264,-1000,
1397,1,SBT2050,2,4,,1,2633,2.49986,-0.010846,0,164.348,-1000,
1397,1,SBT2050,2,4,,1,2661,2.50019,-0.010686,0,164.431,-1000,
1397,1,SBT2050,2,4,,1,2689,2.50003,-0.010509,0,164.513,-1000,
1397,1,SBT2050,2,4,,1,2717,2.50002,-0.010424,0,164.594,-1000,
1397,1,SBT2050,2,4,,1,2745,2.49998,-0.010186,0,164.674,-1000,
1397,1,SBT2050,2,4,,2,2772,3.14721,2.9355,10.119,164.716,-1000,
1397,1,SBT2050,2,4,,2,2800,3.32285,2.9362,32.954,164.716,-1000,
1397,1,SBT2050,2,4,,2,2828,3.42093,2.9357,55.789,164.716,24.8,
1397,1,SBT2050,2,4,,2,2856,3.48774,2.936,78.624,164.716,24.9,
1397,1,SBT2050,2,4,,2,2884,3.53657,2.9362,101.459,164.716,-1000,
1397,1,SBT2050,2,4,,2,2912,3.56499,2.9356,124.294,164.716,-1000,
1397,1,SBT2050,2,4,,2,2940,3.57468,2.9361,147.13,164.716,-1000,
1397,1,SBT2050,2,4,,2,2968,3.579194,2.9356,169.965,164.716,-1000,
1397,1,SBT2050,2,4,,2,2996,3.58427,2.9359,192.8,164.716,-1000,
1397,1,SBT2050,2,4,,2,3024,3.58981,2.9357,215.635,164.716,-1000,
1397,1,SBT2050,2,4,,2,3052,3.59535,2.9359,238.47,164.716,-1000,
1397,1,SBT2050,2,4,,2,3080,3.601116,2.936,261.305,164.716,-1000,
1397,1,SBT2050,2,4,,2,3108,3.606756,2.9363,284.14,164.716,-1000,
1397,1,SBT2050,2,4,,2,3136,3.61263,2.936,306.975,164.716,-1000,
1397,1,SBT2050,2,4,,2,3164,3.61842,2.9354,329.811,164.716,-1000,
1397,1,SBT2050,2,4,,2,3192,3.62419,2.9359,352.646,164.716,-1000,
1397,1,SBT2050,2,4,,2,3220,3.63005,2.9364,375.481,164.716,-1000,
1397,1,SBT2050,2,4,,2,3248,3.63581,2.9356,398.316,164.716,-1000,
1397,1,SBT2050,2,4,,2,3276,3.641,2.936,421.151,164.716,-1000,
1397,1,SBT2050,2,4,,2,3304,3.64656,2.9359,443.986,164.716,-1000,
1397,1,SBT2050,2,4,,2,3332,3.65169,2.9359,466.821,164.716,-1000,
1397,1,SBT2050,2,4,,2,3360,3.656248,2.936,489.656,164.716,-1000,
1397,1,SBT2050,2,4,,2,3388,3.660706,2.9362,512.491,164.716,-1000,
1397,1,SBT2050,2,4,,2,3416,3.664968,2.9362,535.326,164.716,-1000,
1397,1,SBT2050,2,4,,2,3444,3.66927,2.9358,558.162,164.716,-1000,
1397,1,SBT2050,2,4,,2,3472,3.673678,2.9361,580.997,164.716,-1000,
1397,1,SBT2050,2,4,,2,3500,3.67735,2.9356,603.832,164.716,-1000,
1397,1,SBT2050,2,4,,2,3528,3.681442,2.9358,626.667,164.716,-1000,
1397,1,SBT2050,2,4,,2,3556,3.68623,2.9355,649.502,164.716,-1000,
1397,1,SBT2050,2,4,,2,3584,3.69071,2.9361,672.337,164.716,-1000,
1397,1,SBT2050,2,4,,2,3612,3.69576,2.9356,695.172,164.716,-1000,
1397,1,SBT2050,2,4,,2,3640,3.70031,2.9362,718.007,164.716,-1000,
1397,1,SBT2050,2,4,,2,3668,3.70515,2.9359,740.842,164.716,-1000,
1397,1,SBT2050,2,4,,2,3696,3.709874,2.9359,763.677,164.716,-1000,
1397,1,SBT2050,2,4,,2,3724,3.71435,2.9361,786.512,164.716,-1000,
1397,1,SBT2050,2,4,,2,3752,3.71921,2.9364,809.348,164.716,-1000,
1397,1,SBT2050,2,4,,2,3780,3.7239,2.9359,832.183,164.716,-1000,
1397,1,SBT2050,2,4,,2,3808,3.72862,2.9361,855.018,164.716,-1000,
1397,1,SBT2050,2,4,,2,3836,3.73317,2.936,877.853,164.716,-1000,
1397,1,SBT2050,2,4,,2,3864,3.73819,2.9359,900.688,164.716,-1000,
1397,1,SBT2050,2,4,,2,3892,3.74306,2.9359,923.523,164.716,-1000,
1397,1,SBT2050,2,4,,2,3920,3.74778,2.9357,946.358,164.716,-1000,
1397,1,SBT2050,2,4,,2,3948,3.75237,2.9363,969.193,164.716,-1000,
1397,1,SBT2050,2,4,,2,3976,3.75752,2.9359,992.029,164.716,-1000,
1397,1,SBT2050,2,4,,2,4004,3.7625,2.936,1014.864,164.716,-1000,
1397,1,SBT2050,2,4,,2,4032,3.76748,2.9359,1037.699,164.716,-1000,
1397,1,SBT2050,2,4,,2,4060,3.772512,2.9359,1060.534,164.716,-1000,
1397,1,SBT2050,2,4,,2,4088,3.77769,2.9359,1083.369,164.716,-1000,
1397,1,SBT2050,2,4,,2,4116,3.78262,2.9359,1106.204,164.716,-1000,
1397,1,SBT2050,2,4,,2,4144,3.78774,2.9362,1129.039,164.716,-1000,
1397,1,SBT2050,2,4,,2,4172,3.79333,2.9356,1151.874,164.716,-1000,
1397,1,SBT2050,2,4,,2,4200,3.79855,2.9363,1174.709,164.716,-1000,
1397,1,SBT2050,2,4,,2,4228,3.804112,2.9359,1197.544,164.716,-1000,
1397,1,SBT2050,2,4,,2,4256,3.80952,2.936,1220.379,164.716,-1000,
1397,1,SBT2050,2,4,,2,4284,3.815174,2.9358,1243.215,164.716,-1000,
1397,1,SBT2050,2,4,,2,4312,3.82106,2.9356,1266.05,164.716,-1000,
1397,1,SBT2050,2,4,,2,4340,3.82727,2.9364,1288.885,164.716,-1000,
1397,1,SBT2050,2,4,,2,4368,3.83329,2.9357,1311.72,164.716,-1000,
1397,1,SBT2050,2,4,,2,4396,3.83939,2.9356,1334.555,164.716,-1000,
1397,1,SBT2050,2,4,,2,4424,3.84585,2.9363,1357.39,164.716,-1000,
1397,1,SBT2050,2,4,,2,4452,3.852452,2.936,1380.225,164.716,-1000,
1397,1,SBT2050,2,4,,2,4480,3.85917,2.9357,1403.06,164.716,-1000,
1397,1,SBT2050,2,4,,2,4508,3.86609,2.9363,1425.896,164.716,-1000,
1397,1,SBT2050,2,4,,2,4536,3.87295,2.9361,1448.731,164.716,-1000,
1397,1,SBT2050,2,4,,2,4564,3.88019,2.936,1471.566,164.716,-1000,
1397,1,SBT2050,2,4,,2,4592,3.88778,2.9361,1494.401,164.716,-1000,
1397,1,SBT2050,2,4,,2,4620,3.895026,2.936,1517.236,164.716,-1000,
1397,1,SBT2050,2,4,,2,4648,3.90263,2.9361,1540.071,164.716,-1000,
1397,1,SBT2050,2,4,,2,4676,3.91046,2.9354,1562.906,164.716,-1000,
1397,1,SBT2050,2,4,,2,4704,3.91873,2.9358,1585.741,164.716,-1000,
1397,1,SBT2050,2,4,,2,4732,3.926208,2.9363,1608.576,164.716,-1000,
1397,1,SBT2050,2,4,,2,4760,3.93386,2.9359,1631.411,164.716,-1000,
1397,1,SBT2050,2,4,,2,4788,3.942378,2.9357,1654.246,164.716,-1000,
1397,1,SBT2050,2,4,,2,4816,3.95042,2.9359,1677.081,164.716,-1000,
1397,1,SBT2050,2,4,,2,4844,3.9588,2.9356,1699.916,164.716,-1000,
1397,1,SBT2050,2,4,,2,4872,3.96684,2.9357,1722.751,164.716,-1000,
1397,1,SBT2050,2,4,,2,4900,3.97517,2.9358,1745.587,164.716,-1000,
1397,1,SBT2050,2,4,,2,4928,3.98349,2.9359,1768.422,164.716,-1000,
1397,1,SBT2050,2,4,,2,4956,3.991864,2.9359,1791.257,164.716,-1000,
1397,1,SBT2050,2,4,,2,4984,4.0001,2.9363,1814.092,164.716,-1000,
1397,1,SBT2050,2,4,,2,5012,4.00838,2.9357,1836.927,164.716,-1000,
1397,1,SBT2050,2,4,,2,5040,4.01682,2.9357,1859.762,164.716,-1000,
1397,1,SBT2050,2,4,,2,5068,4.02496,2.9356,1882.597,164.716,-1000,
1397,1,SBT2050,2,4,,2,5096,4.03289,2.936,1905.432,164.716,-1000,
1397,1,SBT2050,2,4,,2,5124,4.04118,2.9361,1928.267,164.716,-1000,
1397,1,SBT2050,2,4,,2,5152,4.04951,2.9363,1951.102,164.716,-1000,
1397,1,SBT2050,2,4,,2,5180,4.05773,2.9361,1973.938,164.716,-1000,
1397,1,SBT2050,2,4,,2,5208,4.06569,2.9358,1996.773,164.716,-1000,
1397,1,SBT2050,2,4,,2,5236,4.0739,2.9356,2019.608,164.716,-1000,
1397,1,SBT2050,2,4,,2,5264,4.08183,2.9363,2042.443,164.716,-1000,
1397,1,SBT2050,2,4,,2,5292,4.09024,2.936,2065.278,164.716,-1000,
1397,1,SBT2050,2,4,,2,5320,4.09846,2.936,2088.113,164.716,-1000,
1397,1,SBT2050,2,4,,2,5348,4.10668,2.9359,2110.948,164.716,-1000,
1397,1,SBT2050,2,4,,2,5376,4.11509,2.9357,2133.783,164.716,-1000,
1397,1,SBT2050,2,4,,2,5404,4.123008,2.9356,2156.618,164.716,-1000,
1397,1,SBT2050,2,4,,2,5432,4.13156,2.9361,2179.453,164.716,-1000,
1397,1,SBT2050,2,4,,2,5460,4.139272,2.9357,2202.288,164.716,-1000,
1397,1,SBT2050,2,4,,2,5488,4.14773,2.9357,2225.124,164.716,-1000,
1397,1,SBT2050,2,4,,2,5516,4.15002,2.803,2247.585,164.716,-1000,
1397,1,SBT2050,2,4,,2,5544,4.15003,2.6553,2268.79,164.716,-1000,
1397,1,SBT2050,2,4,,2,5572,4.14996,2.5187,2288.912,164.716,-1000,
1397,1,SBT2050,2,4,,2,5600,4.1502,2.3926,2308.01,164.716,-1000,
1397,1,SBT2050,2,4,,2,5628,4.150412,2.2673,2326.122,164.716,-1000,
1397,1,SBT2050,2,4,,2,5656,4.15001,2.1459,2343.28,164.716,-1000,
1397,1,SBT2050,2,4,,2,5684,4.15,2.0336,2359.537,164.716,-1000,
1397,1,SBT2050,2,4,,2,5712,4.15019,1.927,2374.928,164.716,-1000,
1397,1,SBT2050,2,4,,2,5740,4.14995,1.8259,2389.51,164.716,-1000,
1397,1,SBT2050,2,4,,2,5768,4.15023,1.7313,2403.337,164.716,-1000,
1397,1,SBT2050,2,4,,2,5796,4.15,1.6425,2416.448,164.716,-1000,
1397,1,SBT2050,2,4,,2,5824,4.15007,1.5577,2428.891,164.716,-1000,
1397,1,SBT2050,2,4,,2,5852,4.15002,1.4784,2440.69,164.716,-1000,
1397,1,SBT2050,2,4,,2,5880,4.15019,1.4061,2451.901,164.716,-1000,
1397,1,SBT2050,2,4,,2,5908,4.15005,1.3381,2462.565,164.716,-1000,
1397,1,SBT2050,2,4,,2,5936,4.1501,1.2747,2472.713,164.716,-1000,
1397,1,SBT2050,2,4,,2,5964,4.15009,1.2148,2482.392,164.716,-1000,
1397,1,SBT2050,2,4,,2,5992,4.150138,1.1579,2491.628,164.716,-1000,
1397,1,SBT2050,2,4,,2,6020,4.15028,1.1098,2500.459,164.716,-1000,
1397,1,SBT2050,2,4,,2,6048,4.14997,1.0619,2508.902,164.716,-1000,
1397,1,SBT2050,2,4,,2,6076,4.14994,1.0175,2516.99,164.716,-1000,
1397,1,SBT2050,2,4,,2,6104,4.15026,0.9784,2524.752,164.716,-1000,
1397,1,SBT2050,2,4,,2,6132,4.15021,0.9392,2532.211,164.716,-1000,
1397,1,SBT2050,2,4,,2,6160,4.15007,0.905,2539.383,164.716,-1000,
1397,1,SBT2050,2,4,,2,6188,4.149852,0.8743,2546.302,164.716,-1000,
1397,1,SBT2050,2,4,,2,6216,4.15032,0.8436,2552.975,164.716,-1000,
1397,1,SBT2050,2,4,,2,6244,4.15022,0.8157,2559.417,164.716,-1000,
1397,1,SBT2050,2,4,,2,6272,4.149864,0.7882,2565.654,164.716,-1000,
1397,1,SBT2050,2,4,,2,6300,4.150138,0.7635,2571.69,164.716,-1000,
1397,1,SBT2050,2,4,,2,6328,4.15015,0.7422,2577.541,164.716,-1000,
1397,1,SBT2050,2,4,,2,6356,4.15001,0.7174,2583.217,164.716,-1000,
1397,1,SBT2050,2,4,,2,6384,4.15002,0.6975,2588.722,164.716,-1000,
1397,1,SBT2050,2,4,,2,6412,4.14996,0.6777,2594.073,164.716,-1000,
1397,1,SBT2050,2,4,,2,6440,4.14992,0.6605,2599.267,164.716,-1000,
1397,1,SBT2050,2,4,,2,6468,4.15025,0.6423,2604.337,164.716,-1000,
1397,1,SBT2050,2,4,,2,6496,4.14992,0.6228,2609.256,164.716,-1000,
1397,1,SBT2050,2,4,,2,6524,4.15007,0.606,2614.035,164.716,-1000,
1397,1,SBT2050,2,4,,2,6552,4.15004,0.5922,2618.696,164.716,-1000,
1397,1,SBT2050,2,4,,2,6580,4.14983,0.5771,2623.239,164.716,-1000,
1397,1,SBT2050,2,4,,2,6608,4.15007,0.5609,2627.667,164.716,-1000,
1397,1,SBT2050,2,4,,2,6636,4.1502,0.5482,2631.981,164.716,-1000,
1397,1,SBT2050,2,4,,2,6664,4.150126,0.5338,2636.191,164.716,-1000,
1397,1,SBT2050,2,4,,2,6692,4.1499,0.5214,2640.295,164.716,-1000,
1397,1,SBT2050,2,4,,2,6720,4.15019,0.5085,2644.305,164.716,-1000,
1397,1,SBT2050,2,4,,2,6748,4.15,0.4973,2648.219,164.716,-1000,
1397,1,SBT2050,2,4,,2,6776,4.15015,0.4878,2652.045,164.716,-1000,
1397,1,SBT2050,2,4,,2,6804,4.14992,0.47433,2655.782,164.716,-1000,
1397,1,SBT2050,2,4,,2,6832,4.1499,0.46414,2659.423,164.716,-1000,
1397,1,SBT2050,2,4,,2,6860,4.15005,0.45262,2662.984,164.716,-1000,
1397,1,SBT2050,2,4,,2,6888,4.15004,0.44251,2666.465,164.716,-1000,
1397,1,SBT2050,2,4,,2,6916,4.15003,0.43238,2669.869,164.716,-1000,
1397,1,SBT2050,2,4,,2,6944,4.15008,0.42372,2673.198,164.716,-1000,
1397,1,SBT2050,2,4,,2,6972,4.15002,0.41472,2676.452,164.716,-1000,
1397,1,SBT2050,2,4,,2,7000,4.15009,0.40385,2679.635,164.716,-1000,
1397,1,SBT2050,2,4,,2,7028,4.150126,0.39515,2682.749,164.716,-1000,
1397,1,SBT2050,2,4,,2,7056,4.15003,0.38651,2685.789,164.716,-1000,
1397,1,SBT2050,2,4,,2,7084,4.14996,0.37829,2688.763,164.716,-1000,
1397,1,SBT2050,2,4,,2,7112,4.150174,0.37103,2691.68,164.716,-1000,
1397,1,SBT2050,2,4,,2,7140,4.14998,0.36204,2694.525,164.716,-1000,
1397,1,SBT2050,2,4,,2,7168,4.15001,0.35335,2697.307,164.716,-1000,
1397,1,SBT2050,2,4,,2,7196,4.15011,0.34627,2700.033,164.716,-1000,
1397,1,SBT2050,2,4,,2,7224,4.150126,0.33869,2702.696,164.716,-1000,
1397,1,SBT2050,2,4,,2,7252,4.14997,0.33217,2705.304,164.716,-1000,
1397,1,SBT2050,2,4,,2,7280,4.15003,0.32464,2707.861,164.716,-1000,
1397,1,SBT2050,2,4,,2,7308,4.14996,0.3179,2710.368,164.716,-1000,
1397,1,SBT2050,2,4,,2,7336,4.14983,0.31207,2712.807,164.716,-1000,
1397,1,SBT2050,2,4,,2,7364,4.150126,0.30388,2715.203,164.716,-1000,
1397,1,SBT2050,2,4,,2,7392,4.14991,0.29697,2717.533,164.716,-1000,
1397,1,SBT2050,2,4,,2,7420,4.15015,0.29242,2719.824,164.716,-1000,
1397,1,SBT2050,2,4,,2,7448,4.15004,0.28392,2722.065,164.716,-1000,
1397,1,SBT2050,2,4,,2,7476,4.14995,0.27876,2724.255,164.716,-1000,
1397,1,SBT2050,2,4,,2,7504,4.1498,0.27342,2726.399,164.716,-1000,
1397,1,SBT2050,2,4,,2,7532,4.15002,0.26694,2728.5,164.716,-1000,
1397,1,SBT2050,2,4,,2,7560,4.15021,0.26137,2730.552,164.716,-1000,
1397,1,SBT2050,2,4,,2,7588,4.14995,0.25516,2732.56,164.716,-1000,
1397,1,SBT2050,2,4,,2,7616,4.14978,0.25011,2734.527,164.716,-1000,
1397,1,SBT2050,2,4,,2,7644,4.149876,0.24559,2736.451,164.716,-1000,
1397,1,SBT2050,2,4,,2,7672,4.1501,0.24015,2738.337,164.716,-1000,
1397,1,SBT2050,2,4,,2,7700,4.15003,0.23654,2740.192,164.716,-1000,
1397,1,SBT2050,2,4,,2,7728,4.15001,0.22999,2742.009,164.716,-1000,
1397,1,SBT2050,2,4,,2,7756,4.1502,0.22524,2743.778,164.716,-1000,
1397,1,SBT2050,2,4,,2,7784,4.15009,0.21921,2745.509,164.716,-1000,
1397,1,SBT2050,2,4,,2,7812,4.15019,0.21403,2747.195,164.716,-1000,
1397,1,SBT2050,2,4,,2,7840,4.15008,0.21054,2748.847,164.716,-1000,
1397,1,SBT2050,2,4,,2,7868,4.15002,0.20784,2750.469,164.716,-1000,
1397,1,SBT2050,2,4,,2,7896,4.15019,0.20112,2752.064,164.716,-1000,
1397,1,SBT2050,2,4,,2,7924,4.15008,0.19893,2753.622,164.716,-1000,
1397,1,SBT2050,2,4,,2,7952,4.150138,0.19345,2755.146,164.716,-1000,
1397,1,SBT2050,2,4,,2,7980,4.15015,0.18959,2756.637,164.716,-1000,
1397,1,SBT2050,2,4,,2,8008,4.149876,0.18601,2758.097,164.716,-1000,
1397,1,SBT2050,2,4,,2,8036,4.15027,0.18172,2759.529,164.716,-1000,
1397,1,SBT2050,2,4,,2,8064,4.150174,0.17799,2760.927,164.716,-1000,
1397,1,SBT2050,2,4,,2,8092,4.15,0.17385,2762.293,164.716,-1000,
1397,1,SBT2050,2,4,,2,8120,4.149876,0.17094,2763.636,164.716,-1000,
1397,1,SBT2050,2,4,,2,8148,4.15019,0.16714,2764.953,164.716,-1000,
1397,1,SBT2050,2,4,,2,8176,4.15025,0.16335,2766.238,164.716,-1000,
1397,1,SBT2050,2,4,,2,8204,4.14998,0.1603,2767.498,164.716,-1000,
1397,1,SBT2050,2,4,,2,8232,4.15015,0.15745,2768.731,164.716,-1000,
1397,1,SBT2050,2,4,,2,8260,4.15,0.1539,2769.943,164.716,-1000,
1397,1,SBT2050,2,4,,2,8288,4.14997,0.15255,2771.134,164.716,-1000,
1397,1,SBT2050,2,4,,2,8316,4.14998,0.14805,2772.305,164.716,-1000,
1397,1,SBT2050,2,4,,2,8344,4.15015,0.14493,2773.441,164.716,-1000,
1397,1,SBT2050,2,4,,2,8372,4.15011,0.14139,2774.556,164.716,-1000,
1397,1,SBT2050,2,4,,2,8400,4.14995,0.13863,2775.646,164.716,-1000,
1397,1,SBT2050,2,4,,2,8428,4.15015,0.13537,2776.713,164.716,-1000,
1397,1,SBT2050,2,4,,2,8456,4.14996,0.13424,2777.765,164.716,-1000,
1397,1,SBT2050,2,4,,2,8484,4.1504,0.13108,2778.797,164.716,-1000,
1397,1,SBT2050,2,4,,2,8512,4.14995,0.12819,2779.802,164.716,-1000,
1397,1,SBT2050,2,4,,2,8540,4.15021,0.1259,2780.79,164.716,-1000,
1397,1,SBT2050,2,4,,2,8568,4.15007,0.12356,2781.759,164.716,-1000,
1397,1,SBT2050,2,4,,2,8596,4.15001,0.12043,2782.706,164.716,-1000,
1397,1,SBT2050,2,4,,2,8624,4.15004,0.11867,2783.634,164.716,-1000,
1397,1,SBT2050,2,4,,2,8652,4.149888,0.11699,2784.552,164.716,-1000,
1397,1,SBT2050,2,4,,2,8680,4.149876,0.11376,2785.446,164.716,-1000,
1397,1,SBT2050,2,4,,2,8708,4.14991,0.11053,2786.317,164.716,-1000,
1397,1,SBT2050,2,4,,2,8736,4.149876,0.10928,2787.173,164.716,-1000,
1397,1,SBT2050,2,4,,2,8764,4.15007,0.10774,2788.016,164.716,-1000,
1397,1,SBT2050,2,4,,2,8792,4.15015,0.10457,2788.842,164.716,-1000,
1397,1,SBT2050,2,4,,2,8820,4.15028,0.10248,2789.647,164.716,-1000,
1397,1,SBT2050,2,4,,2,8848,4.14998,0.10032,2790.435,164.716,-1000,
1397,1,SBT2050,2,4,,2,8876,4.14998,0.09864,2791.21,164.716,-1000,
1397,1,SBT2050,2,4,,2,8904,4.14998,0.09702,2791.97,164.716,-1000,
1397,1,SBT2050,2,4,,2,8932,4.14996,0.09553,2792.718,164.716,-1000,
1397,1,SBT2050,2,4,,2,8960,4.15,0.09377,2793.456,164.716,-1000,
1397,1,SBT2050,2,4,,2,8988,4.15015,0.09124,2794.176,164.716,-1000,
1397,1,SBT2050,2,4,,2,9016,4.15005,0.08994,2794.879,164.716,-1000,
1397,1,SBT2050,2,4,,2,9044,4.15002,0.0882,2795.575,164.716,-1000,
1397,1,SBT2050,2,4,,2,9072,4.149876,0.08686,2796.255,164.716,-1000,
1397,1,SBT2050,2,4,,2,9100,4.15007,0.08438,2796.921,164.716,-1000,
1397,1,SBT2050,2,4,,2,9128,4.15019,0.08336,2797.575,164.716,-1000,
1397,1,SBT2050,2,4,,2,9156,4.1502,0.08128,2798.216,164.716,-1000,
1397,1,SBT2050,2,4,,2,9184,4.14992,0.08069,2798.845,164.716,-1000,
1397,1,SBT2050,2,4,,2,9212,4.15003,0.07871,2799.47,164.716,-1000,
1397,1,SBT2050,2,4,,2,9240,4.14996,0.0776,2800.076,164.716,-1000,
1397,1,SBT2050,2,4,,2,9268,4.15005,0.07557,2800.671,164.716,-1000,
1397,1,SBT2050,2,4,,2,9296,4.1501,0.07466,2801.255,164.716,-1000,
1397,1,SBT2050,2,4,,2,9324,4.14978,0.07288,2801.83,164.716,-1000,
1397,1,SBT2050,2,4,,2,9352,4.15026,0.07097,2802.393,164.716,-1000,
1397,1,SBT2050,2,4,,2,9380,4.1502,0.07106,2802.948,164.716,-1000,
1397,1,SBT2050,2,4,,2,9408,4.150162,0.06862,2803.492,164.716,-1000,
1397,1,SBT2050,2,4,,2,9436,4.15003,0.06679,2804.02,164.716,-1000,
1397,1,SBT2050,2,4,,2,9464,4.14996,0.06591,2804.535,164.716,-1000,
1397,1,SBT2050,2,4,,2,9492,4.14994,0.06455,2805.042,164.716,-1000,
1397,1,SBT2050,2,4,,2,9520,4.15022,0.06365,2805.54,164.716,-1000,
1397,1,SBT2050,2,4,,2,9548,4.15001,0.06282,2806.032,164.716,-1000,
1397,1,SBT2050,2,4,,2,9576,4.14983,0.06162,2806.516,164.716,-1000,
1397,1,SBT2050,2,4,,2,9604,4.14997,0.06103,2806.994,164.716,-1000,
1397,1,SBT2050,2,4,,2,9632,4.149852,0.06016,2807.465,164.716,-1000,
1397,1,SBT2050,2,4,,2,9660,4.149852,0.05906,2807.928,164.716,-1000,
1397,1,SBT2050,2,4,,2,9688,4.14995,0.05794,2808.383,164.716,-1000,
1397,1,SBT2050,2,4,,2,9716,4.15001,0.05606,2808.828,164.716,-1000,
1397,1,SBT2050,2,4,,2,9744,4.15019,0.05545,2809.263,164.716,-1000,
1397,1,SBT2050,2,4,,2,9772,4.15,0.05466,2809.69,164.716,-1000,
1397,1,SBT2050,2,4,,2,9800,4.14983,0.05428,2810.113,164.716,-1000,
1397,1,SBT2050,2,4,,2,9828,4.15003,0.05419,2810.536,164.716,-1000,
1397,1,SBT2050,2,4,,2,9856,4.14992,0.05327,2810.952,164.716,-1000,
1397,1,SBT2050,2,4,,2,9884,4.15003,0.05186,2811.361,164.716,-1000,
1397,1,SBT2050,2,4,,2,9912,4.149852,0.05099,2811.764,164.716,-1000,
1397,1,SBT2050,2,4,,2,9940,4.15023,0.04901,2812.155,164.716,-1000,
1397,1,SBT2050,2,4,,2,9968,4.14992,0.047673,2812.533,164.716,-1000,
1397,1,SBT2050,2,4,,2,9996,4.15005,0.046763,2812.901,164.716,-1000,
1397,1,SBT2050,2,4,,2,10024,4.1501,0.046514,2813.266,164.716,-1000,
1397,1,SBT2050,2,4,,2,10052,4.15004,0.046173,2813.627,164.716,-1000,
1397,1,SBT2050,2,4,,2,10080,4.15005,0.044947,2813.98,164.716,-1000,
1397,1,SBT2050,2,4,,2,10108,4.15032,0.04551,2814.337,164.716,-1000,
1397,1,SBT2050,2,4,,2,10136,4.1499,0.04286,2814.676,164.716,-1000,
1397,1,SBT2050,2,4,,2,10164,4.14992,0.042522,2815.008,164.716,-1000,
1397,1,SBT2050,2,4,,2,10192,4.15015,0.042323,2815.339,164.716,-1000,
1397,1,SBT2050,2,4,,2,10220,4.14996,0.041757,2815.664,164.716,-1000,
1397,1,SBT2050,2,4,,2,10248,4.149876,0.040888,2815.984,164.716,-1000,
1397,1,SBT2050,2,4,,2,10276,4.14992,0.040674,2816.301,164.716,-1000,
1397,1,SBT2050,2,4,,2,10304,4.15004,0.03997,2816.616,164.716,-1000,
1397,1,SBT2050,2,4,,2,10332,4.15011,0.038808,2816.925,164.716,-1000,
1397,1,SBT2050,2,4,,2,10360,4.15009,0.038511,2817.226,164.716,-1000,
1397,1,SBT2050,2,4,,2,10388,4.14992,0.03835,2817.525,164.716,-1000,
1397,1,SBT2050,2,4,,2,10416,4.14995,0.037724,2817.82,164.716,-1000,
1397,1,SBT2050,2,4,,2,10444,4.1499,0.036787,2818.106,164.716,-1000,
1397,1,SBT2050,2,4,,2,10472,4.1501,0.036685,2818.394,164.716,-1000,
1397,1,SBT2050,2,4,,2,10500,4.15015,0.035881,2818.678,164.716,-1000,
1397,1,SBT2050,2,4,,2,10528,4.15011,0.035291,2818.956,164.716,-1000,
1397,1,SBT2050,2,4,,2,10556,4.14992,0.034405,2819.227,164.716,-1000,
1397,1,SBT2050,2,4,,2,10584,4.15003,0.034349,2819.494,164.716,-1000,
1397,1,SBT2050,2,4,,2,10612,4.149876,0.034123,2819.759,164.716,-1000,
1397,1,SBT2050,2,4,,2,10640,4.14982,0.034355,2820.025,164.716,-1000,
1397,1,SBT2050,2,4,,2,10668,4.15004,0.032762,2820.287,164.716,-1000,
1397,1,SBT2050,2,4,,2,10696,4.15022,0.031908,2820.538,164.716,-1000,
1397,1,SBT2050,2,4,,2,10724,4.14997,0.032275,2820.786,164.716,-1000,
1397,1,SBT2050,2,4,,2,10752,4.15009,0.03188,2821.035,164.716,-1000,
1397,1,SBT2050,2,4,,2,10780,4.14992,0.031538,2821.281,164.716,-1000,
1397,1,SBT2050,2,4,,2,10808,4.14996,0.030539,2821.518,164.716,-1000,
1397,1,SBT2050,2,4,,2,10836,4.149852,0.029544,2821.754,164.716,-1000,
1397,1,SBT2050,2,4,,2,10864,4.1498,0.028762,2821.979,164.716,-1000,
1397,1,SBT2050,2,4,,2,10892,4.15008,0.028526,2822.203,164.716,-1000,
1397,1,SBT2050,2,4,,2,10920,4.14994,0.027617,2822.422,164.716,-1000,
1397,1,SBT2050,2,4,,2,10948,4.14984,0.027365,2822.636,164.716,-1000,
1397,1,SBT2050,2,4,,2,10976,4.15008,0.026895,2822.848,164.716,-1000,
1397,1,SBT2050,2,4,,2,11004,4.15,0.02658,2823.059,164.716,-1000,
1397,1,SBT2050,2,4,,2,11032,4.14973,0.026448,2823.265,164.716,-1000,
1397,1,SBT2050,2,4,,2,11060,4.150174,0.025777,2823.469,164.716,-1000,
1397,1,SBT2050,2,4,,2,11088,4.15005,0.025057,2823.665,164.716,-1000,
1397,1,SBT2050,2,4,,2,11116,4.150174,0.02514,2823.863,164.716,-1000,
1397,1,SBT2050,2,4,,2,11144,4.149888,0.024189,2824.055,164.716,-1000,
1397,1,SBT2050,2,4,,2,11172,4.150126,0.023619,2824.24,164.716,-1000,
1397,1,SBT2050,2,4,,2,11200,4.14996,0.024078,2824.425,164.716,-1000,
1397,1,SBT2050,2,4,,2,11228,4.14998,0.023699,2824.613,164.716,-1000,
1397,1,SBT2050,2,4,,2,11256,4.14998,0.022961,2824.794,164.716,-1000,
1397,1,SBT2050,2,4,,2,11284,4.1501,0.022647,2824.972,164.716,-1000,
1397,1,SBT2050,2,4,,2,11312,4.149888,0.022345,2825.146,164.716,-1000,
1397,1,SBT2050,2,4,,2,11340,4.15007,0.02199,2825.318,164.716,-1000,
1397,1,SBT2050,2,4,,2,11368,4.15011,0.021891,2825.488,164.716,-1000,
1397,1,SBT2050,2,4,,2,11396,4.15026,0.021708,2825.66,164.716,-1000,
1397,1,SBT2050,2,4,,2,11424,4.1499,0.02155,2825.827,164.716,-1000,
1397,1,SBT2050,2,4,,2,11452,4.14992,0.020831,2825.992,164.716,-1000,
1397,1,SBT2050,2,4,,2,11480,4.15011,0.020896,2826.154,164.716,-1000,
1397,1,SBT2050,2,4,,2,11508,4.14992,0.021577,2826.32,164.716,-1000,
1397,1,SBT2050,2,4,,2,11536,4.14997,0.021694,2826.486,164.716,-1000,
1397,1,SBT2050,2,4,,2,11564,4.150138,0.02067,2826.653,164.716,-1000,
1397,1,SBT2050,2,4,,2,11592,4.14998,0.019674,2826.807,164.716,-1000,
1397,1,SBT2050,2,4,,2,11620,4.15004,0.019863,2826.96,164.716,-1000,
1397,1,SBT2050,2,4,,2,11648,4.149864,0.019689,2827.112,164.716,-1000,
1397,1,SBT2050,2,4,,2,11676,4.1501,0.019272,2827.265,164.716,-1000,
1397,1,SBT2050,2,4,,2,11704,4.15003,0.018996,2827.413,164.716,-1000,
1397,1,SBT2050,2,4,,2,11732,4.15004,0.018771,2827.563,164.716,-1000,
1397,1,SBT2050,2,4,,2,11760,4.15001,0.018785,2827.707,164.716,-1000,
1397,1,SBT2050,2,4,,2,11788,4.14996,0.018557,2827.853,164.716,-1000,
1397,1,SBT2050,2,4,,2,11816,4.14978,0.018531,2827.998,164.716,-1000,
1397,1,SBT2050,2,4,,2,11844,4.14973,0.018609,2828.139,164.716,-1000,
1397,1,SBT2050,2,4,,2,11872,4.1498,0.01779,2828.281,164.716,-1000,
1397,1,SBT2050,2,4,,2,11900,4.14991,0.017315,2828.419,164.716,-1000,
1397,1,SBT2050,2,4,,2,11928,4.14998,0.016735,2828.552,164.716,-1000,
1397,1,SBT2050,2,4,,2,11956,4.15009,0.016998,2828.685,164.716,-1000,
1397,1,SBT2050,2,4,,2,11984,4.150138,0.016619,2828.816,164.716,-1000,
1397,1,SBT2050,2,4,,2,12012,4.15,0.016523,2828.946,164.716,-1000,
1397,1,SBT2050,2,4,,2,12040,4.149888,0.017109,2829.077,164.716,-1000,
1397,1,SBT2050,2,4,,2,12068,4.15007,0.016825,2829.208,164.716,-1000,
1397,1,SBT2050,2,4,,2,12096,4.14972,0.016839,2829.339,164.716,-1000,
1397,1,SBT2050,2,4,,2,12124,4.150162,0.015592,2829.465,164.716,-1000,
1397,1,SBT2050,2,4,,2,12152,4.1501,0.016103,2829.588,164.716,-1000,
1397,1,SBT2050,2,4,,2,12180,4.14983,0.015703,2829.711,164.716,-1000,
1397,1,SBT2050,2,4,,2,12208,4.15004,0.015109,2829.828,164.716,-1000,
1397,1,SBT2050,2,4,,2,12236,4.14997,0.016264,2829.951,164.716,-1000,
1397,1,SBT2050,2,4,,2,12264,4.15001,0.01466,2830.072,164.716,-1000,
1397,1,SBT2050,2,4,,2,12292,4.1499,0.014271,2830.184,164.716,-1000,
1397,1,SBT2050,2,4,,2,12320,4.14998,0.014829,2830.296,164.716,-1000,
1397,1,SBT2050,2,4,,2,12348,4.149888,0.013794,2830.406,164.716,-1000,
1397,1,SBT2050,2,4,,2,12376,4.149888,0.015308,2830.522,164.716,-1000,
1397,1,SBT2050,2,4,,2,12404,4.15007,0.014002,2830.64,164.716,-1000,
1397,1,SBT2050,2,4,,2,12432,4.15022,0.013902,2830.746,164.716,-1000,
1397,1,SBT2050,2,4,,2,12460,4.14997,0.013277,2830.852,164.716,-1000,
1397,1,SBT2050,2,4,,2,12488,4.150138,0.013288,2830.956,164.716,-1000,
1397,1,SBT2050,2,4,,2,12516,4.15001,0.01274,2831.057,164.716,-1000,
1397,1,SBT2050,2,4,,2,12544,4.150138,0.013357,2831.16,164.716,-1000,
1397,1,SBT2050,2,4,,2,12572,4.15,0.013382,2831.264,164.716,-1000,
1397,1,SBT2050,2,4,,2,12600,4.150174,0.012924,2831.365,164.716,-1000,
1397,1,SBT2050,2,4,,2,12628,4.14996,0.013157,2831.466,164.716,-1000,
1397,1,SBT2050,2,4,,2,12656,4.15003,0.01269,2831.566,164.716,-1000,
1397,1,SBT2050,2,4,,2,12684,4.14973,0.012863,2831.666,164.716,-1000,
1397,1,SBT2050,2,4,,2,12712,4.15,0.013482,2831.77,164.716,-1000,
1397,1,SBT2050,2,4,,2,12740,4.15003,0.012247,2831.871,164.716,-1000,
1397,1,SBT2050,2,4,,2,12768,4.14992,0.011706,2831.964,164.716,-1000,
1397,1,SBT2050,2,4,,2,12796,4.15002,0.011706,2832.054,164.716,-1000,
1397,1,SBT2050,2,4,,2,12824,4.15,0.011736,2832.145,164.716,-1000,
1397,1,SBT2050,2,4,,2,12852,4.1499,0.011314,2832.233,164.716,-1000,
1397,1,SBT2050,2,4,,2,12880,4.15004,0.011511,2832.323,164.716,-1000,
1397,1,SBT2050,2,4,,2,12908,4.14991,0.011378,2832.415,164.716,-1000,
1397,1,SBT2050,2,4,,2,12936,4.15011,0.010645,2832.501,164.716,-1000,
1397,1,SBT2050,2,4,,2,12964,4.14992,0.010832,2832.581,164.716,-1000,
1397,1,SBT2050,2,4,,2,12992,4.15009,0.010862,2832.665,164.716,-1000,
1397,1,SBT2050,2,4,,2,13020,4.15007,0.011363,2832.751,164.716,-1000,
1397,1,SBT2050,2,4,,2,13048,4.14994,0.011279,2832.837,164.716,-1000,
1397,1,SBT2050,2,4,,2,13076,4.149876,0.010615,2832.92,164.716,-1000,
1397,1,SBT2050,2,4,,3,13103,4.149424,0,2832.962,164.716,-1000,
1397,1,SBT2050,2,4,,3,13131,4.1492,0,2832.962,164.716,-1000,
1397,1,SBT2050,2,4,,3,13159,4.14906,0,2832.962,164.716,-1000,
1397,1,SBT2050,2,4,,3,13187,4.14882,0,2832.962,164.716,-1000,
1397,1,SBT2050,2,4,,3,13215,4.14867,0,2832.962,164.716,-1000,
1397,1,SBT2050,2,4,,3,13243,4.14868,0,2832.962,164.716,-1000,
1397,1,SBT2050,2,4,,3,13271,4.14845,0,2832.962,164.716,-1000,
1397,1,SBT2050,2,4,,3,13299,4.14851,0,2832.962,164.716,-1000,
1397,1,SBT2050,2,4,,3,13327,4.14865,0,2832.962,164.716,-1000,
1397,1,SBT2050,2,4,,3,13355,4.14849,0,2832.962,164.716,-1000,
1397,1,SBT2050,2,4,,3,13383,4.14852,0,2832.962,164.716,-1000,
1397,1,SBT2050,2,4,,3,13411,4.14822,0,2832.962,164.716,-1000,
1397,1,SBT2050,2,4,,3,13439,4.14822,0,2832.962,164.716,-1000,
1397,1,SBT2050,2,4,,3,13467,4.14829,0,2832.962,164.716,-1000,
1397,1,SBT2050,2,4,,3,13495,4.14817,0,2832.962,164.716,-1000,
1397,1,SBT2050,2,4,,3,13523,4.14834,0,2832.962,164.716,-1000,
1397,1,SBT2050,2,4,,3,13551,4.14793,0,2832.962,164.716,-1000,
1397,1,SBT2050,2,4,,3,13579,4.14777,0,2832.962,164.716,-1000,
1397,1,SBT2050,2,4,,3,13607,4.148218,0,2832.962,164.716,-1000,
1397,1,SBT2050,2,4,,3,13635,4.14798,0,2832.962,164.716,-1000,
1397,1,SBT2050,2,4,,3,13663,4.1481,0,2832.962,164.716,-1000,
1397,1,SBT2050,2,4,,3,13691,4.147948,0,2832.962,164.716,-1000,
1397,1,SBT2050,2,4,,3,13719,4.14789,0,2832.962,164.716,-1000,
1397,1,SBT2050,2,4,,3,13747,4.147782,0,2832.962,164.716,-1000,
1397,1,SBT2050,2,4,,3,13775,4.14768,0,2832.962,164.716,-1000,
1397,1,SBT2050,2,4,,3,13803,4.14788,0,2832.962,164.716,-1000,
1397,1,SBT2050,2,4,,3,13831,4.14763,0,2832.962,164.716,-1000,
1397,1,SBT2050,2,4,,3,13859,4.14757,0,2832.962,164.716,-1000,
1397,1,SBT2050,2,4,,3,13887,4.147554,0,2832.962,164.716,-1000,
1397,1,SBT2050,2,4,,3,13915,4.14782,0,2832.962,164.716,-1000,
1397,1,SBT2050,2,4,,3,13943,4.14775,0,2832.962,164.716,-1000,
1397,1,SBT2050,2,4,,3,13971,4.14758,0,2832.962,164.716,-1000,
1397,1,SBT2050,2,4,,3,13999,4.14788,0,2832.962,164.716,-1000,
1397,1,SBT2050,2,4,,3,14027,4.14768,0,2832.962,164.716,-1000,
1397,1,SBT2050,2,4,,3,14055,4.14773,0,2832.962,164.716,-1000,
1397,1,SBT2050,2,4,,3,14083,4.14772,0,2832.962,164.716,-1000,
1397,1,SBT2050,2,4,,3,14111,4.14761,0,2832.962,164.716,-1000,
1397,1,SBT2050,2,4,,3,14139,4.147396,0,2832.962,164.716,-1000,
1397,1,SBT2050,2,4,,3,14167,4.147466,0,2832.962,164.716,-1000,
1397,1,SBT2050,2,4,,3,14195,4.1474,0,2832.962,164.716,-1000,
1397,1,SBT2050,2,4,,3,14223,4.1475,0,2832.962,164.716,-1000,
1397,1,SBT2050,2,4,,3,14251,4.14727,0,2832.962,164.716,-1000,
1397,1,SBT2050,2,4,,3,14279,4.147502,0,2832.962,164.716,-1000,
1397,1,SBT2050,2,4,,3,14307,4.14719,0,2832.962,164.716,-1000,
1397,1,SBT2050,2,4,,3,14335,4.1472,0,2832.962,164.716,-1000,
1397,1,SBT2050,2,4,,3,14363,4.14741,0,2832.962,164.716,-1000,
1397,1,SBT2050,2,4,,3,14391,4.14746,0,2832.962,164.716,-1000,
1397,1,SBT2050,2,4,,3,14419,4.14725,0,2832.962,164.716,-1000,
1397,1,SBT2050,2,4,,3,14447,4.14734,0,2832.962,164.716,-1000,
1397,1,SBT2050,2,4,,3,14475,4.1472,0,2832.962,164.716,-1000,
1397,1,SBT2050,2,4,,3,14503,4.14707,0,2832.962,164.716,-1000,
1397,1,SBT2050,2,4,,3,14531,4.147142,0,2832.962,164.716,-1000,
1397,1,SBT2050,2,4,,3,14559,4.14701,0,2832.962,164.716,-1000,
1397,1,SBT2050,2,4,,3,14587,4.1472,0,2832.962,164.716,-1000,
1397,1,SBT2050,2,4,,3,14615,4.14739,0,2832.962,164.716,-1000,
1397,1,SBT2050,2,4,,3,14643,4.14709,0,2832.962,164.716,-1000,
1397,1,SBT2050,2,4,,3,14671,4.14704,0,2832.962,164.716,-1000,
1397,1,SBT2050,2,4,,3,14699,4.14714,0,2832.962,164.716,-1000,
1397,1,SBT2050,2,4,,3,14727,4.14697,0,2832.962,164.716,-1000,
1397,1,SBT2050,2,4,,3,14755,4.1467,0,2832.962,164.716,-1000,
1397,1,SBT2050,2,4,,3,14783,4.14712,0,2832.962,164.716,-1000,
1397,1,SBT2050,2,4,,3,14811,4.146974,0,2832.962,164.716,-1000,
1397,1,SBT2050,2,4,,3,14839,4.14675,0,2832.962,164.716,-1000,
1397,1,SBT2050,2,4,,3,14867,4.14684,0,2832.962,164.716,-1000,
1397,1,SBT2050,2,4,,4,14894,3.9812,-2.9361,2832.962,167.588,-1000,
1397,1,SBT2050,2,4,,4,14922,3.93634,-2.9351,2832.962,190.424,-1000,
1397,1,SBT2050,2,4,,4,14950,3.91823,-2.9355,2832.962,213.259,-1000,
1397,1,SBT2050,2,4,,4,14978,3.90747,-2.9363,2832.962,236.094,-1000,
1397,1,SBT2050,2,4,,4,15006,3.9001,-2.9361,2832.962,258.929,-1000,
1397,1,SBT2050,2,4,,4,15034,3.89399,-2.9358,2832.962,281.764,-1000,
1397,1,SBT2050,2,4,,4,15062,3.88832,-2.9356,2832.962,304.599,-1000,
1397,1,SBT2050,2,4,,4,15090,3.883232,-2.9361,2832.962,327.435,-1000,
1397,1,SBT2050,2,4,,4,15118,3.87777,-2.9359,2832.962,350.27,-1000,
1397,1,SBT2050,2,4,,4,15146,3.87242,-2.9361,2832.962,373.105,-1000,
1397,1,SBT2050,2,4,,4,15174,3.86666,-2.9362,2832.962,395.94,-1000,
1397,1,SBT2050,2,4,,4,15202,3.86055,-2.9356,2832.962,418.775,-1000,
1397,1,SBT2050,2,4,,4,15230,3.85418,-2.9357,2832.962,441.611,-1000,
1397,1,SBT2050,2,4,,4,15258,3.847132,-2.9362,2832.962,464.446,-1000,
1397,1,SBT2050,2,4,,4,15286,3.8401,-2.9358,2832.962,487.281,-1000,
1397,1,SBT2050,2,4,,4,15314,3.83268,-2.9356,2832.962,510.116,-1000,
1397,1,SBT2050,2,4,,4,15342,3.82525,-2.9361,2832.962,532.951,-1000,
1397,1,SBT2050,2,4,,4,15370,3.817344,-2.9361,2832.962,555.787,-1000,
1397,1,SBT2050,2,4,,4,15398,3.80978,-2.9359,2832.962,578.622,-1000,
1397,1,SBT2050,2,4,,4,15426,3.80177,-2.9359,2832.962,601.457,-1000,
1397,1,SBT2050,2,4,,4,15454,3.79386,-2.9356,2832.962,624.292,-1000,
1397,1,SBT2050,2,4,,4,15482,3.78622,-2.9353,2832.962,647.128,-1000,
1397,1,SBT2050,2,4,,4,15510,3.778494,-2.9358,2832.962,669.963,-1000,
1397,1,SBT2050,2,4,,4,15538,3.77098,-2.936,2832.962,692.798,-1000,
1397,1,SBT2050,2,4,,4,15566,3.76339,-2.936,2832.962,715.633,-1000,
1397,1,SBT2050,2,4,,4,15594,3.75619,-2.9361,2832.962,738.468,-1000,
1397,1,SBT2050,2,4,,4,15622,3.74842,-2.9357,2832.962,761.304,-1000,
1397,1,SBT2050,2,4,,4,15650,3.74133,-2.9358,2832.962,784.139,-1000,
1397,1,SBT2050,2,4,,4,15678,3.734154,-2.936,2832.962,806.974,-1000,
1397,1,SBT2050,2,4,,4,15706,3.72728,-2.9355,2832.962,829.809,-1000,
1397,1,SBT2050,2,4,,4,15734,3.72024,-2.9356,2832.962,852.644,-1000,
1397,1,SBT2050,2,4,,4,15762,3.71307,-2.9358,2832.962,875.48,-1000,
1397,1,SBT2050,2,4,,4,15790,3.70619,-2.9359,2832.962,898.315,-1000,
1397,1,SBT2050,2,4,,4,15818,3.698986,-2.9357,2832.962,921.15,-1000,
1397,1,SBT2050,2,4,,4,15846,3.69228,-2.936,2832.962,943.985,-1000,
1397,1,SBT2050,2,4,,4,15874,3.68476,-2.9362,2832.962,966.821,-1000,
1397,1,SBT2050,2,4,,4,15902,3.67765,-2.9363,2832.962,989.656,-1000,
1397,1,SBT2050,2,4,,4,15930,3.67038,-2.9363,2832.962,1012.491,-1000,
1397,1,SBT2050,2,4,,4,15958,3.66279,-2.9357,2832.962,1035.326,-1000,
1397,1,SBT2050,2,4,,4,15986,3.65531,-2.9356,2832.962,1058.161,-1000,
1397,1,SBT2050,2,4,,4,16014,3.64808,-2.9356,2832.962,1080.997,-1000,
1397,1,SBT2050,2,4,,4,16042,3.64012,-2.9359,2832.962,1103.832,-1000,
1397,1,SBT2050,2,4,,4,16070,3.632422,-2.9359,2832.962,1126.667,-1000,
1397,1,SBT2050,2,4,,4,16098,3.62461,-2.936,2832.962,1149.502,-1000,
1397,1,SBT2050,2,4,,4,16126,3.61704,-2.9357,2832.962,1172.337,-1000,
1397,1,SBT2050,2,4,,4,16154,3.60899,-2.9362,2832.962,1195.172,-1000,
1397,1,SBT2050,2,4,,4,16182,3.60087,-2.9355,2832.962,1218.007,-1000,
1397,1,SBT2050,2,4,,4,16210,3.59296,-2.9361,2832.962,1240.843,-1000,
1397,1,SBT2050,2,4,,4,16238,3.58458,-2.936,2832.962,1263.678,-1000,
1397,1,SBT2050,2,4,,4,16266,3.5765,-2.9355,2832.962,1286.513,-1000,
1397,1,SBT2050,2,4,,4,16294,3.56849,-2.936,2832.962,1309.348,-1000,
1397,1,SBT2050,2,4,,4,16322,3.56052,-2.9362,2832.962,1332.184,-1000,
1397,1,SBT2050,2,4,,4,16350,3.55251,-2.9363,2832.962,1355.019,-1000,
1397,1,SBT2050,2,4,,4,16378,3.54461,-2.936,2832.962,1377.854,-1000,
1397,1,SBT2050,2,4,,4,16406,3.536788,-2.9361,2832.962,1400.689,-1000,
1397,1,SBT2050,2,4,,4,16434,3.52901,-2.9359,2832.962,1423.525,-1000,
1397,1,SBT2050,2,4,,4,16462,3.52144,-2.9361,2832.962,1446.36,-1000,
1397,1,SBT2050,2,4,,4,16490,3.513904,-2.9357,2832.962,1469.195,-1000,
1397,1,SBT2050,2,4,,4,16518,3.50656,-2.9361,2832.962,1492.031,-1000,
1397,1,SBT2050,2,4,,4,16546,3.49939,-2.9356,2832.962,1514.866,-1000,
1397,1,SBT2050,2,4,,4,16574,3.49225,-2.9356,2832.962,1537.701,-1000,
1397,1,SBT2050,2,4,,4,16602,3.48516,-2.9362,2832.962,1560.536,-1000,
1397,1,SBT2050,2,4,,4,16630,3.47855,-2.9359,2832.962,1583.372,-1000,
1397,1,SBT2050,2,4,,4,16658,3.47169,-2.9358,2832.962,1606.207,-1000,
1397,1,SBT2050,2,4,,4,16686,3.46503,-2.936,2832.962,1629.042,-1000,
1397,1,SBT2050,2,4,,4,16714,3.45872,-2.9362,2832.962,1651.878,-1000,
1397,1,SBT2050,2,4,,4,16742,3.45226,-2.9362,2832.962,1674.713,-1000,
1397,1,SBT2050,2,4,,4,16770,3.44587,-2.9356,2832.962,1697.548,-1000,
1397,1,SBT2050,2,4,,4,16798,3.43975,-2.9359,2832.962,1720.383,-1000,
1397,1,SBT2050,2,4,,4,16826,3.43349,-2.9363,2832.962,1743.219,-1000,
1397,1,SBT2050,2,4,,4,16854,3.427832,-2.9359,2832.962,1766.054,-1000,
1397,1,SBT2050,2,4,,4,16882,3.4217,-2.9359,2832.962,1788.889,-1000,
1397,1,SBT2050,2,4,,4,16910,3.41595,-2.9361,2832.962,1811.724,-1000,
1397,1,SBT2050,2,4,,4,16938,3.41014,-2.9367,2832.962,1834.56,-1000,
1397,1,SBT2050,2,4,,4,16966,3.40443,-2.9361,2832.962,1857.395,-1000,
1397,1,SBT2050,2,4,,4,16994,3.39853,-2.9361,2832.962,1880.23,-1000,
1397,1,SBT2050,2,4,,4,17022,3.39298,-2.9358,2832.962,1903.065,-1000,
1397,1,SBT2050,2,4,,4,17050,3.3872,-2.9363,2832.962,1925.9,-1000,
1397,1,SBT2050,2,4,,4,17078,3.38142,-2.9355,2832.962,1948.736,-1000,
1397,1,SBT2050,2,4,,4,17106,3.37543,-2.9359,2832.962,1971.571,-1000,
1397,1,SBT2050,2,4,,4,17134,3.36931,-2.9359,2832.962,1994.406,-1000,
1397,1,SBT2050,2,4,,4,17162,3.36341,-2.9361,2832.962,2017.241,-1000,
1397,1,SBT2050,2,4,,4,17190,3.35705,-2.936,2832.962,2040.077,-1000,
1397,1,SBT2050,2,4,,4,17218,3.35077,-2.9363,2832.962,2062.912,-1000,
1397,1,SBT2050,2,4,,4,17246,3.34396,-2.9362,2832.962,2085.747,-1000,
1397,1,SBT2050,2,4,,4,17274,3.33718,-2.9361,2832.962,2108.582,-1000,
1397,1,SBT2050,2,4,,4,17302,3.33044,-2.9361,2832.962,2131.418,-1000,
1397,1,SBT2050,2,4,,4,17330,3.32339,-2.9359,2832.962,2154.253,-1000,
1397,1,SBT2050,2,4,,4,17358,3.315866,-2.9359,2832.962,2177.088,-1000,
1397,1,SBT2050,2,4,,4,17386,3.30811,-2.9361,2832.962,2199.923,-1000,
1397,1,SBT2050,2,4,,4,17414,3.30039,-2.9358,2832.962,2222.759,-1000,
1397,1,SBT2050,2,4,,4,17442,3.2919,-2.9358,2832.962,2245.594,-1000,
1397,1,SBT2050,2,4,,4,17470,3.283015,-2.936,2832.962,2268.429,-1000,
1397,1,SBT2050,2,4,,4,17498,3.27385,-2.9361,2832.962,2291.264,-1000,
1397,1,SBT2050,2,4,,4,17526,3.26413,-2.9359,2832.962,2314.099,-1000,
1397,1,SBT2050,2,4,,4,17554,3.2542,-2.9356,2832.962,2336.935,-1000,
1397,1,SBT2050,2,4,,4,17582,3.243507,-2.936,2832.962,2359.77,-1000,
1397,1,SBT2050,2,4,,4,17610,3.23218,-2.9359,2832.962,2382.605,-1000,
1397,1,SBT2050,2,4,,4,17638,3.2201,-2.936,2832.962,2405.44,-1000,
1397,1,SBT2050,2,4,,4,17666,3.20718,-2.9361,2832.962,2428.275,-1000,
1397,1,SBT2050,2,4,,4,17694,3.19335,-2.9362,2832.962,2451.11,-1000,
1397,1,SBT2050,2,4,,4,17722,3.17827,-2.9359,2832.962,2473.946,-1000,
1397,1,SBT2050,2,4,,4,17750,3.1616,-2.9362,2832.962,2496.781,-1000,
1397,1,SBT2050,2,4,,4,17778,3.14416,-2.9361,2832.962,2519.616,-1000,
1397,1,SBT2050,2,4,,4,17806,3.1246,-2.9361,2832.962,2542.451,-1000,
1397,1,SBT2050,2,4,,4,17834,3.10315,-2.936,2832.962,2565.286,-1000,
1397,1,SBT2050,2,4,,4,17862,3.079314,-2.936,2832.962,2588.122,-1000,
1397,1,SBT2050,2,4,,4,17890,3.05298,-2.9358,2832.962,2610.957,-1000,
1397,1,SBT2050,2,4,,4,17918,3.02307,-2.936,2832.962,2633.792,-1000,
1397,1,SBT2050,2,4,,4,17946,2.98932,-2.936,2832.962,2656.627,-1000,
1397,1,SBT2050,2,4,,4,17974,2.950512,-2.9358,2832.962,2679.463,-1000,
1397,1,SBT2050,2,4,,4,18002,2.90656,-2.9358,2832.962,2702.298,-1000,
1397,1,SBT2050,2,4,,4,18030,2.85548,-2.9358,2832.962,2725.133,-1000,
1397,1,SBT2050,2,4,,4,18058,2.79527,-2.9362,2832.962,2747.969,-1000,
1397,1,SBT2050,2,4,,4,18086,2.72445,-2.9356,2832.962,2770.804,-1000,
1397,1,SBT2050,2,4,,4,18114,2.63974,-2.9357,2832.962,2793.639,-1000,
1397,1,SBT2050,2,4,,4,18142,2.53854,-2.9361,2832.962,2816.474,-1000,
1397,1,SBT2050,2,4,,4,18170,2.49973,-2.5464,2832.962,2838.104,-1000,
1397,1,SBT2050,2,4,,4,18198,2.49977,-2.2231,2832.962,2856.585,-1000,
1397,1,SBT2050,2,4,,4,18226,2.49966,-1.9597,2832.962,2872.823,-1000,
1397,1,SBT2050,2,4,,4,18254,2.49976,-1.7278,2832.962,2887.149,-1000,
1397,1,SBT2050,2,4,,4,18282,2.49965,-1.5185,2832.962,2899.758,-1000,
1397,1,SBT2050,2,4,,4,18310,2.49966,-1.3318,2832.962,2910.831,-1000,
1397,1,SBT2050,2,4,,4,18338,2.49958,-1.1668,2832.962,2920.536,-1000,
1397,1,SBT2050,2,4,,4,18366,2.49963,-1.0235,2832.962,2929.044,-1000,
1397,1,SBT2050,2,4,,4,18394,2.49977,-0.8982,2832.962,2936.503,-1000,
1397,1,SBT2050,2,4,,4,18422,2.49965,-0.7899,2832.962,2943.054,-1000,
1397,1,SBT2050,2,4,,4,18450,2.49982,-0.6963,2832.962,2948.825,-1000,
1397,1,SBT2050,2,4,,4,18478,2.49979,-0.616,2832.962,2953.922,-1000,
1397,1,SBT2050,2,4,,4,18506,2.49997,-0.5468,2832.962,2958.437,-1000,
1397,1,SBT2050,2,4,,4,18534,2.499687,-0.4868,2832.962,2962.449,-1000,
1397,1,SBT2050,2,4,,4,18562,2.49977,-0.43344,2832.962,2966.021,-1000,
1397,1,SBT2050,2,4,,4,18590,2.49979,-0.38829,2832.962,2969.212,-1000,
1397,1,SBT2050,2,4,,4,18618,2.49973,-0.347,2832.962,2972.066,-1000,
1397,1,SBT2050,2,4,,4,18646,2.499711,-0.30947,2832.962,2974.616,-1000,
1397,1,SBT2050,2,4,,4,18674,2.49958,-0.27507,2832.962,2976.888,-1000,
1397,1,SBT2050,2,4,,4,18702,2.49968,-0.24313,2832.962,2978.901,-1000,
1397,1,SBT2050,2,4,,4,18730,2.499699,-0.21335,2832.962,2980.675,-1000,
1397,1,SBT2050,2,4,,4,18758,2.4995,-0.18589,2832.962,2982.228,-1000,
1397,1,SBT2050,2,4,,4,18786,2.49952,-0.16073,2832.962,2983.576,-1000,
1397,1,SBT2050,2,4,,4,18814,2.49953,-0.13689,2832.962,2984.731,-1000,
1397,1,SBT2050,2,4,,4,18842,2.49959,-0.11549,2832.962,2985.712,-1000,
1397,1,SBT2050,2,4,,4,18870,2.499687,-0.09649,2832.962,2986.534,-1000,
1397,1,SBT2050,2,4,,4,18898,2.49965,-0.0795,2832.962,2987.217,-1000,
1397,1,SBT2050,2,4,,4,18926,2.499842,-0.06544,2832.962,2987.779,-1000,
1397,1,SBT2050,2,4,,4,18954,2.49995,-0.05392,2832.962,2988.241,-1000,
1397,1,SBT2050,2,4,,4,18982,2.499687,-0.044847,2832.962,2988.625,-1000,
1397,1,SBT2050,2,4,,4,19010,2.49991,-0.038781,2832.962,2988.95,-1000,
1397,1,SBT2050,2,4,,4,19038,2.5001,-0.034272,2832.962,2989.232,-1000,
1397,1,SBT2050,2,4,,4,19066,2.49996,-0.030997,2832.962,2989.485,-1000,
1397,1,SBT2050,2,4,,4,19094,2.49994,-0.028641,2832.962,2989.717,-1000,
1397,1,SBT2050,2,4,,4,19122,2.49987,-0.026898,2832.962,2989.932,-1000,
1397,1,SBT2050,2,4,,4,19150,2.499997,-0.025491,2832.962,2990.135,-1000,
1397,1,SBT2050,2,4,,4,19178,2.49996,-0.024335,2832.962,2990.328,-1000,
1397,1,SBT2050,2,4,,4,19206,2.5001,-0.023347,2832.962,2990.513,-1000,
1397,1,SBT2050,2,4,,4,19234,2.499997,-0.022351,2832.962,2990.691,-1000,
1397,1,SBT2050,2,4,,4,19262,2.49996,-0.021794,2832.962,2990.863,-1000,
1397,1,SBT2050,2,4,,4,19290,2.499985,-0.021165,2832.962,2991.03,-1000,
1397,1,SBT2050,2,4,,4,19318,2.49997,-0.020511,2832.962,2991.191,-1000,
1397,1,SBT2050,2,4,,4,19346,2.4999,-0.019847,2832.962,2991.348,-1000,
1397,1,SBT2050,2,4,,4,19374,2.4999,-0.019205,2832.962,2991.501,-1000,
1397,1,SBT2050,2,4,,4,19402,2.49988,-0.019003,2832.962,2991.651,-1000,
1397,1,SBT2050,2,4,,4,19430,2.49997,-0.018501,2832.962,2991.796,-1000,
1397,1,SBT2050,2,4,,4,19458,2.50009,-0.018123,2832.962,2991.939,-1000,
1397,1,SBT2050,2,4,,4,19486,2.50007,-0.017734,2832.962,2992.078,-1000,
1397,1,SBT2050,2,4,,4,19514,2.499997,-0.017365,2832.962,2992.214,-1000,
1397,1,SBT2050,2,4,,4,19542,2.49987,-0.017043,2832.962,2992.348,-1000,
1397,1,SBT2050,2,4,,4,19570,2.49994,-0.016764,2832.962,2992.479,-1000,
1397,1,SBT2050,2,4,,4,19598,2.49982,-0.016397,2832.962,2992.608,-1000,
1397,1,SBT2050,2,4,,4,19626,2.50007,-0.016232,2832.962,2992.733,-1000,
1397,1,SBT2050,2,4,,4,19654,2.50014,-0.01571,2832.962,2992.857,-1000,
1397,1,SBT2050,2,4,,4,19682,2.49997,-0.015443,2832.962,2992.978,-1000,
1397,1,SBT2050,2,4,,4,19710,2.49995,-0.014978,2832.962,2993.097,-1000,
1397,1,SBT2050,2,4,,4,19738,2.49987,-0.014962,2832.962,2993.214,-1000,
1397,1,SBT2050,2,4,,4,19766,2.50002,-0.014714,2832.962,2993.328,-1000,
1397,1,SBT2050,2,4,,4,19794,2.499997,-0.014204,2832.962,2993.441,-1000,
1397,1,SBT2050,2,4,,4,19822,2.50001,-0.014008,2832.962,2993.551,-1000,
1397,1,SBT2050,2,4,,4,19850,2.50002,-0.0138,2832.962,2993.659,-1000,
1397,1,SBT2050,2,4,,4,19878,2.49993,-0.013471,2832.962,2993.765,-1000,
1397,1,SBT2050,2,4,,4,19906,2.49996,-0.013247,2832.962,2993.869,-1000,
1397,1,SBT2050,2,4,,4,19934,2.50004,-0.013,2832.962,2993.97,-1000,
1397,1,SBT2050,2,4,,4,19962,2.5001,-0.012787,2832.962,2994.07,-1000,
1397,1,SBT2050,2,4,,4,19990,2.49997,-0.012561,2832.962,2994.168,-1000,
1397,1,SBT2050,2,4,,4,20018,2.50001,-0.012234,2832.962,2994.265,-1000,
1397,1,SBT2050,2,4,,4,20046,2.50006,-0.0122,2832.962,2994.36,-1000,
1397,1,SBT2050,2,4,,4,20074,2.50009,-0.012011,2832.962,2994.453,-1000,
1397,1,SBT2050,2,4,,4,20102,2.50004,-0.011536,2832.962,2994.545,-1000,
1397,1,SBT2050,2,4,,4,20130,2.50002,-0.011556,2832.962,2994.635,-1000,
1397,1,SBT2050,2,4,,4,20158,2.499985,-0.011367,2832.962,2994.725,-1000,
1397,1,SBT2050,2,4,,4,20186,2.50004,-0.011204,2832.962,2994.812,-1000,
1397,1,SBT2050,2,4,,4,20214,2.50003,-0.011028,2832.962,2994.898,-1000,
1397,1,SBT2050,2,4,,4,20242,2.49988,-0.010815,2832.962,2994.983,-1000,
1397,1,SBT2050,2,4,,4,20270,2.499997,-0.010747,2832.962,2995.067,-1000,
1397,1,SBT2050,2,4,,4,20298,2.50001,-0.010319,2832.962,2995.15,-1000,
1397,1,SBT2050,2,4,,4,20326,2.49989,-0.010463,2832.962,2995.232,-1000,
1397,1,SBT2050,2,4,,4,20354,2.49994,-0.010292,2832.962,2995.312,-1000,
1397,1,SBT2050,2,4,,4,20382,2.5001,-0.010153,2832.962,2995.392,-1000,
1397,1,SBT2050,2,4,,5,20409,2.52259,0,2832.962,2995.396,-1000,
1397,1,SBT2050,2,4,,5,20437,2.53967,0,2832.962,2995.396,-1000,
1397,1,SBT2050,2,4,,5,20465,2.5547,0,2832.962,2995.396,-1000,
1397,1,SBT2050,2,4,,5,20493,2.56835,0,2832.962,2995.396,-1000,
1397,1,SBT2050,2,4,,5,20521,2.58109,0,2832.962,2995.396,-1000,
1397,1,SBT2050,2,4,,5,20549,2.59279,0,2832.962,2995.396,-1000,
1397,1,SBT2050,2,4,,5,20577,2.60359,0,2832.962,2995.396,-1000,
1397,1,SBT2050,2,4,,5,20605,2.61385,0,2832.962,2995.396,-1000,
1397,1,SBT2050,2,4,,5,20633,2.62337,0,2832.962,2995.396,-1000,
1397,1,SBT2050,2,4,,5,20661,2.63207,0,2832.962,2995.396,-1000,
1397,1,SBT2050,2,4,,5,20689,2.64053,0,2832.962,2995.396,-1000,
1397,1,SBT2050,2,4,,5,20717,2.64825,0,2832.962,2995.396,-1000,
1397,1,SBT2050,2,4,,5,20745,2.65524,0,2832.962,2995.396,-1000,
1397,1,SBT2050,2,4,,5,20773,2.66214,0,2832.962,2995.396,-1000,
1397,1,SBT2050,2,4,,5,20801,2.668733,0,2832.962,2995.396,-1000,
1397,1,SBT2050,2,4,,5,20829,2.674945,0,2832.962,2995.396,-1000,
1397,1,SBT2050,2,4,,5,20857,2.68039,0,2832.962,2995.396,-1000,
1397,1,SBT2050,2,4,,5,20885,2.68584,0,2832.962,2995.396,-1000,
1397,1,SBT2050,2,4,,5,20913,2.69117,0,2832.962,2995.396,-1000,
1397,1,SBT2050,2,4,,5,20941,2.69613,0,2832.962,2995.396,-1000,
1397,1,SBT2050,2,4,,5,20969,2.70072,0,2832.962,2995.396,-1000,
1397,1,SBT2050,2,4,,5,20997,2.70509,0,2832.962,2995.396,-1000,
1397,1,SBT2050,2,4,,5,21025,2.709282,0,2832.962,2995.396,-1000,
1397,1,SBT2050,2,4,,5,21053,2.71353,0,2832.962,2995.396,-1000,
1397,1,SBT2050,2,4,,5,21081,2.71746,0,2832.962,2995.396,-1000,
1397,1,SBT2050,2,4,,5,26654.362,2.87746,0,2832.962,2995.396,,