File: 1C/Test1563.csv
Request Year:,2018,,,,,,,,,,,,
Test:,1563,,,,,,,,,,,,
Test Description:,,,,,,,,,,,,,
TestRegime Name:,Aging_Performance,,,,,,,,,,,,
TestRegime Suffix:,SHP_LC,,,,,,,,,,,,
TestRegime CellSize:,18650,,,,,,,,,,,,
TestRegime Version:,1,,,,,,,,,,,,
Number Of Cells:,1,,,,,,,,,,,,
LotID:,,,,,,,,,,,,,
Lot Description:,,,,,,,,,,,,,
Date Made:,1/21/2003 12:00 AM,,,,,,,,,,,,
Origin:,Other,,,,,,,,,,,,
Requestor:,Admin,,,,,,,,,,,,
Product ID:,Default product,,,,,,,,,,,,
Storage Temp:,R.T./AMB,,,,,,,,,,,,
Storage Delay:,0 days,,,,,,,,,,,,
Test Temp:,R.T./AMB,,,,,,,,,,,,
Start Time:,4/29/2018 2:29 AM,,,,,,,,,,,,
End Time:,4/29/2018 2:22 PM,,,,,,,,,,,,
Operator Instructions:,,,,,,,,,,,,,
Test,Cell,Rack,Shelf,Position,Cell ID,Step,Total Time (Seconds),Voltage (V),Current (A),Charge Capacity (mAh),Discharge Capacity (mAh),TC1 (Â°C),
1563,1,SBT2050,2,4,,0,1,3.3674,0,0,0,25.1,
1563,1,SBT2050,2,4,,0,56,3.36763,0,0,0,25.2,
1563,1,SBT2050,2,4,,0,111,3.367742,0,0,0,25.2,
1563,1,SBT2050,2,4,,0,166,3.36793,0,0,0,25.2,
1563,1,SBT2050,2,4,,0,221,3.36808,0,0,0,25.2,
1563,1,SBT2050,2,4,,0,276,3.368408,0,0,0,25.2,
1563,1,SBT2050,2,4,,1,331,2.49876,-2.3315,0,24.713,25.9,
1563,1,SBT2050,2,4,,1,386,2.49979,-1.5317,0,52.029,27.4,
1563,1,SBT2050,2,4,,1,441,2.49979,-1.2897,0,73.454,28.3,
1563,1,SBT2050,2,4,,1,496,2.49998,-1.1047,0,91.704,28.7,
1563,1,SBT2050,2,4,,1,551,2.499858,-0.9534,0,107.365,28.9,
1563,1,SBT2050,2,4,,1,606,2.49987,-0.8357,0,120.997,28.9,
1563,1,SBT2050,2,4,,1,661,2.499882,-0.7401,0,133.011,28.9,
1563,1,SBT2050,2,4,,1,716,2.49991,-0.6609,0,143.695,28.7,
1563,1,SBT2050,2,4,,1,771,2.49983,-0.5942,0,153.268,28.6,
1563,1,SBT2050,2,4,,1,826,2.49982,-0.5382,0,161.906,28.4,
1563,1,SBT2050,2,4,,1,881,2.49995,-0.4902,0,169.751,28.1,
1563,1,SBT2050,2,4,,1,936,2.49976,-0.44899,0,176.918,28,
1563,1,SBT2050,2,4,,1,991,2.49994,-0.41323,0,183.5,27.9,
1563,1,SBT2050,2,4,,1,1046,2.49994,-0.3834,0,189.581,27.6,
1563,1,SBT2050,2,4,,1,1101,2.49997,-0.35657,0,195.227,27.5,
1563,1,SBT2050,2,4,,1,1156,2.49998,-0.33302,0,200.492,27.3,
1563,1,SBT2050,2,4,,1,1211,2.49992,-0.31248,0,205.422,27.1,
1563,1,SBT2050,2,4,,1,1266,2.49992,-0.29461,0,210.056,27,
1563,1,SBT2050,2,4,,1,1321,2.49997,-0.27855,0,214.43,26.9,
1563,1,SBT2050,2,4,,1,1376,2.49998,-0.26449,0,218.574,26.8,
1563,1,SBT2050,2,4,,1,1431,2.49987,-0.25119,0,222.509,26.7,
1563,1,SBT2050,2,4,,1,1486,2.4998,-0.23907,0,226.254,26.6,
1563,1,SBT2050,2,4,,1,1541,2.49977,-0.22849,0,229.823,26.5,
1563,1,SBT2050,2,4,,1,1596,2.50007,-0.2186,0,233.234,26.4,
1563,1,SBT2050,2,4,,1,1651,2.500025,-0.20936,0,236.501,26.4,
1563,1,SBT2050,2,4,,1,1706,2.5001,-0.20082,0,239.633,26.3,
1563,1,SBT2050,2,4,,1,1761,2.49992,-0.19252,0,242.637,26.2,
1563,1,SBT2050,2,4,,1,1816,2.49999,-0.18535,0,245.522,26.1,
1563,1,SBT2050,2,4,,1,1871,2.49992,-0.1785,0,248.298,26.1,
1563,1,SBT2050,2,4,,1,1926,2.49983,-0.17198,0,250.974,26.1,
1563,1,SBT2050,2,4,,1,1981,2.49998,-0.16599,0,253.555,26,
1563,1,SBT2050,2,4,,1,2036,2.49987,-0.1605,0,256.05,26,
1563,1,SBT2050,2,4,,1,2091,2.49981,-0.15509,0,258.46,25.9,
1563,1,SBT2050,2,4,,1,2146,2.49991,-0.15015,0,260.793,25.9,
1563,1,SBT2050,2,4,,1,2201,2.499858,-0.14562,0,263.053,25.9,
1563,1,SBT2050,2,4,,1,2256,2.49993,-0.14125,0,265.245,25.8,
1563,1,SBT2050,2,4,,1,2311,2.49997,-0.13717,0,267.371,25.8,
1563,1,SBT2050,2,4,,1,2366,2.49987,-0.13322,0,269.436,25.8,
1563,1,SBT2050,2,4,,1,2421,2.49992,-0.12932,0,271.44,25.8,
1563,1,SBT2050,2,4,,1,2476,2.50012,-0.12587,0,273.388,25.8,
1563,1,SBT2050,2,4,,1,2531,2.49989,-0.12209,0,275.281,25.7,
1563,1,SBT2050,2,4,,1,2586,2.499858,-0.11892,0,277.124,25.7,
1563,1,SBT2050,2,4,,1,2641,2.499727,-0.11582,0,278.918,25.7,
1563,1,SBT2050,2,4,,1,2696,2.49997,-0.11259,0,280.664,25.6,
1563,1,SBT2050,2,4,,1,2751,2.49992,-0.10978,0,282.363,25.6,
1563,1,SBT2050,2,4,,1,2806,2.49999,-0.10712,0,284.019,25.6,
1563,1,SBT2050,2,4,,1,2861,2.499858,-0.10427,0,285.632,25.6,
1563,1,SBT2050,2,4,,1,2916,2.500025,-0.10172,0,287.206,25.6,
1563,1,SBT2050,2,4,,1,2971,2.49989,-0.09898,0,288.739,25.6,
1563,1,SBT2050,2,4,,1,3026,2.49992,-0.09654,0,290.232,25.5,
1563,1,SBT2050,2,4,,1,3081,2.49998,-0.09423,0,291.688,25.6,
1563,1,SBT2050,2,4,,1,3136,2.49998,-0.09164,0,293.108,25.5,
1563,1,SBT2050,2,4,,1,3191,2.50006,-0.08956,0,294.493,25.6,
1563,1,SBT2050,2,4,,1,3246,2.49997,-0.08721,0,295.844,25.5,
1563,1,SBT2050,2,4,,1,3301,2.49997,-0.08517,0,297.16,25.5,
1563,1,SBT2050,2,4,,1,3356,2.500168,-0.08291,0,298.444,25.5,
1563,1,SBT2050,2,4,,1,3411,2.500001,-0.08091,0,299.695,25.5,
1563,1,SBT2050,2,4,,1,3466,2.50006,-0.07897,0,300.915,25.5,
1563,1,SBT2050,2,4,,1,3521,2.49987,-0.07685,0,302.103,25.5,
1563,1,SBT2050,2,4,,1,3576,2.500025,-0.07489,0,303.261,25.4,
1563,1,SBT2050,2,4,,1,3631,2.50005,-0.07309,0,304.39,25.4,
1563,1,SBT2050,2,4,,1,3686,2.50006,-0.07119,0,305.492,25.4,
1563,1,SBT2050,2,4,,1,3741,2.500025,-0.06945,0,306.565,25.4,
1563,1,SBT2050,2,4,,1,3796,2.49995,-0.06751,0,307.612,25.4,
1563,1,SBT2050,2,4,,1,3851,2.49997,-0.06604,0,308.633,25.4,
1563,1,SBT2050,2,4,,1,3906,2.50013,-0.06429,0,309.628,25.4,
1563,1,SBT2050,2,4,,1,3961,2.500013,-0.06248,0,310.597,25.4,
1563,1,SBT2050,2,4,,1,4016,2.49998,-0.06108,0,311.542,25.3,
1563,1,SBT2050,2,4,,1,4071,2.499882,-0.05923,0,312.464,25.4,
1563,1,SBT2050,2,4,,1,4126,2.49994,-0.05806,0,313.362,25.4,
1563,1,SBT2050,2,4,,1,4181,2.49994,-0.05644,0,314.237,25.4,
1563,1,SBT2050,2,4,,1,4236,2.49987,-0.05515,0,315.09,25.3,
1563,1,SBT2050,2,4,,1,4291,2.49989,-0.05374,0,315.922,25.3,
1563,1,SBT2050,2,4,,1,4346,2.50014,-0.05238,0,316.733,25.3,
1563,1,SBT2050,2,4,,1,4401,2.500001,-0.05099,0,317.523,25.3,
1563,1,SBT2050,2,4,,1,4456,2.499858,-0.04979,0,318.293,25.3,
1563,1,SBT2050,2,4,,1,4511,2.50007,-0.0485,0,319.044,25.3,
1563,1,SBT2050,2,4,,1,4566,2.5001,-0.047414,0,319.775,25.3,
1563,1,SBT2050,2,4,,1,4621,2.50013,-0.046052,0,320.488,25.3,
1563,1,SBT2050,2,4,,1,4676,2.499882,-0.044789,0,321.182,25.3,
1563,1,SBT2050,2,4,,1,4731,2.50012,-0.043751,0,321.859,25.3,
1563,1,SBT2050,2,4,,1,4786,2.50007,-0.042828,0,322.518,25.3,
1563,1,SBT2050,2,4,,1,4841,2.500168,-0.041388,0,323.161,25.3,
1563,1,SBT2050,2,4,,1,4896,2.50005,-0.040287,0,323.786,25.3,
1563,1,SBT2050,2,4,,1,4951,2.500013,-0.039377,0,324.396,25.3,
1563,1,SBT2050,2,4,,1,5006,2.500025,-0.038178,0,324.989,25.3,
1563,1,SBT2050,2,4,,1,5061,2.49999,-0.03746,0,325.567,25.3,
1563,1,SBT2050,2,4,,1,5116,2.49997,-0.036444,0,326.131,25.3,
1563,1,SBT2050,2,4,,1,5171,2.50008,-0.035529,0,326.679,25.3,
1563,1,SBT2050,2,4,,1,5226,2.49997,-0.034577,0,327.214,25.2,
1563,1,SBT2050,2,4,,1,5281,2.50007,-0.033802,0,327.734,25.2,
1563,1,SBT2050,2,4,,1,5336,2.50013,-0.032954,0,328.242,25.3,
1563,1,SBT2050,2,4,,1,5391,2.500001,-0.032005,0,328.738,25.2,
1563,1,SBT2050,2,4,,1,5446,2.49994,-0.031422,0,329.221,25.2,
1563,1,SBT2050,2,4,,1,5501,2.500013,-0.030494,0,329.693,25.2,
1563,1,SBT2050,2,4,,1,5556,2.50007,-0.029824,0,330.152,25.2,
1563,1,SBT2050,2,4,,1,5611,2.49995,-0.028873,0,330.601,25.2,
1563,1,SBT2050,2,4,,1,5666,2.49997,-0.02813,0,331.039,25.2,
1563,1,SBT2050,2,4,,1,5721,2.49999,-0.027527,0,331.466,25.2,
1563,1,SBT2050,2,4,,1,5776,2.49997,-0.026954,0,331.882,25.2,
1563,1,SBT2050,2,4,,1,5831,2.50011,-0.026279,0,332.288,25.2,
1563,1,SBT2050,2,4,,1,5886,2.50012,-0.025697,0,332.683,25.2,
1563,1,SBT2050,2,4,,1,5941,2.49991,-0.024841,0,333.069,25.2,
1563,1,SBT2050,2,4,,1,5996,2.50024,-0.024311,0,333.444,25.2,
1563,1,SBT2050,2,4,,1,6051,2.500013,-0.02366,0,333.81,25.2,
1563,1,SBT2050,2,4,,1,6106,2.500025,-0.022962,0,334.166,25.2,
1563,1,SBT2050,2,4,,1,6161,2.50013,-0.022333,0,334.512,25.2,
1563,1,SBT2050,2,4,,1,6216,2.49997,-0.021831,0,334.85,25.2,
1563,1,SBT2050,2,4,,1,6271,2.50012,-0.02112,0,335.178,25.2,
1563,1,SBT2050,2,4,,1,6326,2.49995,-0.020651,0,335.498,25.2,
1563,1,SBT2050,2,4,,1,6381,2.49995,-0.020025,0,335.809,25.2,
1563,1,SBT2050,2,4,,1,6436,2.49989,-0.019518,0,336.113,25.2,
1563,1,SBT2050,2,4,,1,6491,2.50007,-0.019212,0,336.409,25.2,
1563,1,SBT2050,2,4,,1,6546,2.50004,-0.018717,0,336.697,25.2,
1563,1,SBT2050,2,4,,1,6601,2.49992,-0.018147,0,336.978,25.1,
1563,1,SBT2050,2,4,,1,6656,2.49998,-0.017693,0,337.252,25.2,
1563,1,SBT2050,2,4,,1,6711,2.50012,-0.017334,0,337.52,25.2,
1563,1,SBT2050,2,4,,1,6766,2.50005,-0.016982,0,337.781,25.2,
1563,1,SBT2050,2,4,,1,6821,2.49999,-0.016416,0,338.035,25.2,
1563,1,SBT2050,2,4,,1,6876,2.50024,-0.01609,0,338.283,25.1,
1563,1,SBT2050,2,4,,1,6931,2.50008,-0.015638,0,338.525,25.2,
1563,1,SBT2050,2,4,,1,6986,2.49987,-0.015273,0,338.762,25.2,
1563,1,SBT2050,2,4,,1,7041,2.49997,-0.014954,0,338.993,25.2,
1563,1,SBT2050,2,4,,1,7096,2.50012,-0.014662,0,339.218,25.2,
1563,1,SBT2050,2,4,,1,7151,2.49987,-0.014241,0,339.438,25.2,
1563,1,SBT2050,2,4,,1,7206,2.49987,-0.013958,0,339.653,25.2,
1563,1,SBT2050,2,4,,1,7261,2.49994,-0.013471,0,339.864,25.2,
1563,1,SBT2050,2,4,,1,7316,2.500013,-0.013262,0,340.069,25.1,
1563,1,SBT2050,2,4,,1,7371,2.49992,-0.013004,0,340.27,25.2,
1563,1,SBT2050,2,4,,1,7426,2.49992,-0.012729,0,340.466,25.1,
1563,1,SBT2050,2,4,,1,7481,2.50006,-0.012434,0,340.657,25.2,
1563,1,SBT2050,2,4,,1,7536,2.49989,-0.012032,0,340.845,25.2,
1563,1,SBT2050,2,4,,1,7591,2.50008,-0.011963,0,341.029,25.1,
1563,1,SBT2050,2,4,,1,7646,2.49992,-0.011518,0,341.208,25.2,
1563,1,SBT2050,2,4,,1,7701,2.49995,-0.01109,0,341.383,25.2,
1563,1,SBT2050,2,4,,1,7756,2.500013,-0.011102,0,341.555,25.2,
1563,1,SBT2050,2,4,,1,7811,2.500025,-0.010753,0,341.723,25.2,
1563,1,SBT2050,2,4,,1,7866,2.500013,-0.010697,0,341.887,25.2,
1563,1,SBT2050,2,4,,1,7921,2.500156,-0.010512,0,342.049,25.2,
1563,1,SBT2050,2,4,,2,7975,2.94047,2.9364,1.082,342.2,25.2,
1563,1,SBT2050,2,4,,2,8030,3.48246,2.9357,45.936,342.2,25.5,
1563,1,SBT2050,2,4,,2,8085,3.626036,2.9358,90.791,342.2,25.9,
1563,1,SBT2050,2,4,,2,8140,3.666508,2.9357,135.646,342.2,26.6,
1563,1,SBT2050,2,4,,2,8195,3.683482,2.9358,180.5,342.2,27.3,
1563,1,SBT2050,2,4,,2,8250,3.701184,2.9358,225.355,342.2,27.9,
1563,1,SBT2050,2,4,,2,8305,3.718212,2.9355,270.21,342.2,28.3,
1563,1,SBT2050,2,4,,2,8360,3.73419,2.9359,315.064,342.2,28.7,
1563,1,SBT2050,2,4,,2,8415,3.74789,2.9361,359.919,342.2,28.9,
1563,1,SBT2050,2,4,,2,8470,3.75936,2.9365,404.773,342.2,29.2,
1563,1,SBT2050,2,4,,2,8525,3.76884,2.936,449.628,342.2,29.4,
1563,1,SBT2050,2,4,,2,8580,3.77686,2.9356,494.483,342.2,29.5,
1563,1,SBT2050,2,4,,2,8635,3.78532,2.9357,539.338,342.2,29.5,
1563,1,SBT2050,2,4,,2,8690,3.79493,2.9359,584.192,342.2,29.6,
1563,1,SBT2050,2,4,,2,8745,3.80442,2.9359,629.047,342.2,29.6,
1563,1,SBT2050,2,4,,2,8800,3.81493,2.9358,673.902,342.2,29.7,
1563,1,SBT2050,2,4,,2,8855,3.824544,2.9358,718.757,342.2,29.7,
1563,1,SBT2050,2,4,,2,8910,3.83439,2.9359,763.611,342.2,29.8,
1563,1,SBT2050,2,4,,2,8965,3.84479,2.9359,808.466,342.2,29.7,
1563,1,SBT2050,2,4,,2,9020,3.8557,2.9362,853.321,342.2,29.7,
1563,1,SBT2050,2,4,,2,9075,3.86633,2.9364,898.176,342.2,29.7,
1563,1,SBT2050,2,4,,2,9130,3.87766,2.936,943.031,342.2,29.8,
1563,1,SBT2050,2,4,,2,9185,3.88968,2.9357,987.886,342.2,29.9,
1563,1,SBT2050,2,4,,2,9240,3.902904,2.9358,1032.74,342.2,29.8,
1563,1,SBT2050,2,4,,2,9295,3.91543,2.9358,1077.595,342.2,29.9,
1563,1,SBT2050,2,4,,2,9350,3.929,2.9359,1122.45,342.2,29.8,
1563,1,SBT2050,2,4,,2,9405,3.94366,2.9362,1167.305,342.2,29.9,
1563,1,SBT2050,2,4,,2,9460,3.95791,2.9355,1212.16,342.2,30,
1563,1,SBT2050,2,4,,2,9515,3.973224,2.9354,1257.015,342.2,30,
1563,1,SBT2050,2,4,,2,9570,3.98821,2.9357,1301.869,342.2,30,
1563,1,SBT2050,2,4,,2,9625,4.00448,2.9361,1346.724,342.2,30.2,
1563,1,SBT2050,2,4,,2,9680,4.020704,2.9361,1391.578,342.2,30.2,
1563,1,SBT2050,2,4,,2,9735,4.03714,2.9361,1436.433,342.2,30.2,
1563,1,SBT2050,2,4,,2,9790,4.05413,2.936,1481.288,342.2,30.3,
1563,1,SBT2050,2,4,,2,9845,4.07147,2.936,1526.143,342.2,30.3,
1563,1,SBT2050,2,4,,2,9900,4.08917,2.9365,1570.998,342.2,30.4,
1563,1,SBT2050,2,4,,2,9955,4.10677,2.9357,1615.853,342.2,30.4,
1563,1,SBT2050,2,4,,2,10010,4.125232,2.9358,1660.708,342.2,30.5,
1563,1,SBT2050,2,4,,2,10065,4.14387,2.9361,1705.563,342.2,30.5,
1563,1,SBT2050,2,4,,2,10120,4.149634,2.7662,1749.435,342.2,30.5,
1563,1,SBT2050,2,4,,2,10175,4.15023,2.57,1790.123,342.2,30.4,
1563,1,SBT2050,2,4,,2,10230,4.15046,2.3989,1828.057,342.2,30.3,
1563,1,SBT2050,2,4,,2,10285,4.15043,2.2339,1863.431,342.2,30.2,
1563,1,SBT2050,2,4,,2,10340,4.14996,2.0819,1896.378,342.2,29.9,
1563,1,SBT2050,2,4,,2,10395,4.15012,1.9403,1927.078,342.2,29.6,
1563,1,SBT2050,2,4,,2,10450,4.15013,1.8134,1955.732,342.2,29.4,
1563,1,SBT2050,2,4,,2,10505,4.150206,1.6947,1982.52,342.2,29.1,
1563,1,SBT2050,2,4,,2,10560,4.14986,1.589,2007.608,342.2,28.8,
1563,1,SBT2050,2,4,,2,10615,4.14997,1.491,2031.134,342.2,28.6,
1563,1,SBT2050,2,4,,2,10670,4.15004,1.3989,2053.189,342.2,28.3,
1563,1,SBT2050,2,4,,2,10725,4.15013,1.314,2073.916,342.2,28.1,
1563,1,SBT2050,2,4,,2,10780,4.14997,1.2393,2093.429,342.2,27.9,
1563,1,SBT2050,2,4,,2,10835,4.149944,1.1697,2111.833,342.2,27.7,
1563,1,SBT2050,2,4,,2,10890,4.15034,1.1088,2129.226,342.2,27.5,
1563,1,SBT2050,2,4,,2,10945,4.15042,1.0486,2145.709,342.2,27.4,
1563,1,SBT2050,2,4,,2,11000,4.1498,0.9959,2161.322,342.2,27.2,
1563,1,SBT2050,2,4,,2,11055,4.14997,0.9433,2176.113,342.2,27.1,
1563,1,SBT2050,2,4,,2,11110,4.15005,0.8964,2190.16,342.2,27,
1563,1,SBT2050,2,4,,2,11165,4.14982,0.8527,2203.524,342.2,26.8,
1563,1,SBT2050,2,4,,2,11220,4.15011,0.8129,2216.251,342.2,26.7,
1563,1,SBT2050,2,4,,2,11275,4.15006,0.7754,2228.383,342.2,26.7,
1563,1,SBT2050,2,4,,2,11330,4.15025,0.7399,2239.96,342.2,26.6,
1563,1,SBT2050,2,4,,2,11385,4.14997,0.7081,2251.009,342.2,26.5,
1563,1,SBT2050,2,4,,2,11440,4.15028,0.6766,2261.574,342.2,26.5,
1563,1,SBT2050,2,4,,2,11495,4.14985,0.6485,2271.688,342.2,26.4,
1563,1,SBT2050,2,4,,2,11550,4.14996,0.6219,2281.385,342.2,26.3,
1563,1,SBT2050,2,4,,2,11605,4.14979,0.5963,2290.691,342.2,26.2,
1563,1,SBT2050,2,4,,2,11660,4.15,0.573,2299.624,342.2,26.2,
1563,1,SBT2050,2,4,,2,11715,4.150218,0.5502,2308.201,342.2,26.2,
1563,1,SBT2050,2,4,,2,11770,4.15009,0.5292,2316.45,342.2,26.1,
1563,1,SBT2050,2,4,,2,11825,4.15023,0.5094,2324.389,342.2,26.1,
1563,1,SBT2050,2,4,,2,11880,4.15025,0.4915,2332.036,342.2,26,
1563,1,SBT2050,2,4,,2,11935,4.15,0.47432,2339.409,342.2,26,
1563,1,SBT2050,2,4,,2,11990,4.15,0.45734,2346.519,342.2,26,
1563,1,SBT2050,2,4,,2,12045,4.1501,0.44106,2353.377,342.2,26,
1563,1,SBT2050,2,4,,2,12100,4.14999,0.42598,2360.001,342.2,26,
1563,1,SBT2050,2,4,,2,12155,4.15004,0.41144,2366.41,342.2,25.9,
1563,1,SBT2050,2,4,,2,12210,4.149908,0.39908,2372.598,342.2,25.8,
1563,1,SBT2050,2,4,,2,12265,4.15024,0.38607,2378.592,342.2,25.8,
1563,1,SBT2050,2,4,,2,12320,4.15015,0.37449,2384.407,342.2,25.8,
1563,1,SBT2050,2,4,,2,12375,4.15009,0.36376,2390.046,342.2,25.8,
1563,1,SBT2050,2,4,,2,12430,4.1501,0.35125,2395.507,342.2,25.8,
1563,1,SBT2050,2,4,,2,12485,4.14996,0.34132,2400.802,342.2,25.8,
1563,1,SBT2050,2,4,,2,12540,4.14999,0.33178,2405.947,342.2,25.7,
1563,1,SBT2050,2,4,,2,12595,4.149908,0.32284,2410.943,342.2,25.7,
1563,1,SBT2050,2,4,,2,12650,4.14988,0.31359,2415.808,342.2,25.7,
1563,1,SBT2050,2,4,,2,12705,4.15004,0.30633,2420.545,342.2,25.7,
1563,1,SBT2050,2,4,,2,12760,4.149944,0.29707,2425.148,342.2,25.7,
1563,1,SBT2050,2,4,,2,12815,4.15027,0.29002,2429.633,342.2,25.7,
1563,1,SBT2050,2,4,,2,12870,4.1501,0.28307,2434.001,342.2,25.6,
1563,1,SBT2050,2,4,,2,12925,4.14997,0.27478,2438.26,342.2,25.6,
1563,1,SBT2050,2,4,,2,12980,4.15017,0.26767,2442.406,342.2,25.6,
1563,1,SBT2050,2,4,,2,13035,4.15007,0.26124,2446.445,342.2,25.6,
1563,1,SBT2050,2,4,,2,13090,4.14998,0.2545,2450.387,342.2,25.6,
1563,1,SBT2050,2,4,,2,13145,4.15006,0.24857,2454.229,342.2,25.6,
1563,1,SBT2050,2,4,,2,13200,4.14996,0.24238,2457.978,342.2,25.6,
1563,1,SBT2050,2,4,,2,13255,4.14985,0.2367,2461.639,342.2,25.6,
1563,1,SBT2050,2,4,,2,13310,4.1501,0.23076,2465.216,342.2,25.5,
1563,1,SBT2050,2,4,,2,13365,4.15018,0.22598,2468.702,342.2,25.5,
1563,1,SBT2050,2,4,,2,13420,4.15013,0.2206,2472.117,342.2,25.5,
1563,1,SBT2050,2,4,,2,13475,4.15003,0.21585,2475.451,342.2,25.5,
1563,1,SBT2050,2,4,,2,13530,4.1498,0.21105,2478.71,342.2,25.6,
1563,1,SBT2050,2,4,,2,13585,4.15017,0.20536,2481.892,342.2,25.5,
1563,1,SBT2050,2,4,,2,13640,4.14996,0.20207,2485.002,342.2,25.5,
1563,1,SBT2050,2,4,,2,13695,4.15015,0.19695,2488.044,342.2,25.5,
1563,1,SBT2050,2,4,,2,13750,4.14982,0.19288,2491.019,342.2,25.5,
1563,1,SBT2050,2,4,,2,13805,4.15002,0.18852,2493.93,342.2,25.5,
1563,1,SBT2050,2,4,,2,13860,4.15002,0.18392,2496.778,342.2,25.5,
1563,1,SBT2050,2,4,,2,13915,4.15004,0.1807,2499.563,342.2,25.5,
1563,1,SBT2050,2,4,,2,13970,4.15018,0.17656,2502.288,342.2,25.4,
1563,1,SBT2050,2,4,,2,14025,4.149932,0.17313,2504.96,342.2,25.4,
1563,1,SBT2050,2,4,,2,14080,4.14992,0.16969,2507.58,342.2,25.5,
1563,1,SBT2050,2,4,,2,14135,4.14979,0.16626,2510.141,342.2,25.4,
1563,1,SBT2050,2,4,,2,14190,4.15009,0.16206,2512.648,342.2,25.4,
1563,1,SBT2050,2,4,,2,14245,4.15005,0.15829,2515.095,342.2,25.4,
1563,1,SBT2050,2,4,,2,14300,4.15007,0.15538,2517.49,342.2,25.4,
1563,1,SBT2050,2,4,,2,14355,4.15015,0.15254,2519.842,342.2,25.4,
1563,1,SBT2050,2,4,,2,14410,4.14998,0.14948,2522.147,342.2,25.4,
1563,1,SBT2050,2,4,,2,14465,4.149932,0.14662,2524.409,342.2,25.4,
1563,1,SBT2050,2,4,,2,14520,4.15004,0.14369,2526.628,342.2,25.4,
1563,1,SBT2050,2,4,,2,14575,4.15035,0.14167,2528.807,342.2,25.4,
1563,1,SBT2050,2,4,,2,14630,4.15,0.13805,2530.943,342.2,25.4,
1563,1,SBT2050,2,4,,2,14685,4.15005,0.13568,2533.037,342.2,25.4,
1563,1,SBT2050,2,4,,2,14740,4.14999,0.13403,2535.097,342.2,25.3,
1563,1,SBT2050,2,4,,2,14795,4.15016,0.13111,2537.121,342.2,25.3,
1563,1,SBT2050,2,4,,2,14850,4.15018,0.12835,2539.103,342.2,25.3,
1563,1,SBT2050,2,4,,2,14905,4.15015,0.12636,2541.051,342.2,25.4,
1563,1,SBT2050,2,4,,2,14960,4.15013,0.12386,2542.966,342.2,25.3,
1563,1,SBT2050,2,4,,2,15015,4.15002,0.12192,2544.842,342.2,25.3,
1563,1,SBT2050,2,4,,2,15070,4.150218,0.11993,2546.686,342.2,25.3,
1563,1,SBT2050,2,4,,2,15125,4.14969,0.1182,2548.501,342.2,25.3,
1563,1,SBT2050,2,4,,2,15180,4.149944,0.1157,2550.287,342.2,25.3,
1563,1,SBT2050,2,4,,2,15235,4.149908,0.11425,2552.04,342.2,25.3,
1563,1,SBT2050,2,4,,2,15290,4.1501,0.11187,2553.768,342.2,25.3,
1563,1,SBT2050,2,4,,2,15345,4.15012,0.11003,2555.464,342.2,25.3,
1563,1,SBT2050,2,4,,2,15400,4.15024,0.10811,2557.131,342.2,25.3,
1563,1,SBT2050,2,4,,2,15455,4.14978,0.10661,2558.769,342.2,25.3,
1563,1,SBT2050,2,4,,2,15510,4.14988,0.10489,2560.384,342.2,25.3,
1563,1,SBT2050,2,4,,2,15565,4.149932,0.10329,2561.971,342.2,25.3,
1563,1,SBT2050,2,4,,2,15620,4.15017,0.10153,2563.536,342.2,25.3,
1563,1,SBT2050,2,4,,2,15675,4.15015,0.09997,2565.074,342.2,25.3,
1563,1,SBT2050,2,4,,2,15730,4.15012,0.09904,2566.59,342.2,25.3,
1563,1,SBT2050,2,4,,2,15785,4.149932,0.09734,2568.084,342.2,25.3,
1563,1,SBT2050,2,4,,2,15840,4.15011,0.09545,2569.556,342.2,25.3,
1563,1,SBT2050,2,4,,2,15895,4.15005,0.09386,2571,342.2,25.3,
1563,1,SBT2050,2,4,,2,15950,4.14978,0.09242,2572.424,342.2,25.3,
1563,1,SBT2050,2,4,,2,16005,4.15007,0.09122,2573.827,342.2,25.3,
1563,1,SBT2050,2,4,,2,16060,4.15011,0.08922,2575.206,342.2,25.3,
1563,1,SBT2050,2,4,,2,16115,4.15006,0.08772,2576.562,342.2,25.3,
1563,1,SBT2050,2,4,,2,16170,4.14981,0.08643,2577.89,342.2,25.2,
1563,1,SBT2050,2,4,,2,16225,4.15005,0.08534,2579.204,342.2,25.2,
1563,1,SBT2050,2,4,,2,16280,4.15005,0.08449,2580.501,342.2,25.2,
1563,1,SBT2050,2,4,,2,16335,4.15016,0.08249,2581.775,342.2,25.2,
1563,1,SBT2050,2,4,,2,16390,4.15009,0.08114,2583.027,342.2,25.3,
1563,1,SBT2050,2,4,,2,16445,4.149658,0.08009,2584.258,342.2,25.2,
1563,1,SBT2050,2,4,,2,16500,4.14992,0.07859,2585.471,342.2,25.2,
1563,1,SBT2050,2,4,,2,16555,4.15004,0.07832,2586.667,342.2,25.2,
1563,1,SBT2050,2,4,,2,16610,4.14998,0.07654,2587.845,342.2,25.2,
1563,1,SBT2050,2,4,,2,16665,4.15006,0.07532,2589.005,342.2,25.2,
1563,1,SBT2050,2,4,,2,16720,4.15012,0.07436,2590.147,342.2,25.2,
1563,1,SBT2050,2,4,,2,16775,4.15023,0.07309,2591.277,342.2,25.2,
1563,1,SBT2050,2,4,,2,16830,4.14998,0.07207,2592.39,342.2,25.2,
1563,1,SBT2050,2,4,,2,16885,4.150194,0.07095,2593.484,342.2,25.2,
1563,1,SBT2050,2,4,,2,16940,4.14999,0.07043,2594.564,342.2,25.2,
1563,1,SBT2050,2,4,,2,16995,4.15002,0.06949,2595.633,342.2,25.2,
1563,1,SBT2050,2,4,,2,17050,4.15011,0.06816,2596.681,342.2,25.2,
1563,1,SBT2050,2,4,,2,17105,4.15018,0.0669,2597.712,342.2,25.2,
1563,1,SBT2050,2,4,,2,17160,4.14998,0.06577,2598.725,342.2,25.2,
1563,1,SBT2050,2,4,,2,17215,4.15015,0.06531,2599.726,342.2,25.2,
1563,1,SBT2050,2,4,,2,17270,4.149908,0.0641,2600.713,342.2,25.1,
1563,1,SBT2050,2,4,,2,17325,4.14999,0.06322,2601.684,342.2,25.2,
1563,1,SBT2050,2,4,,2,17380,4.14982,0.06226,2602.642,342.2,25.2,
1563,1,SBT2050,2,4,,2,17435,4.1498,0.06141,2603.584,342.2,25.1,
1563,1,SBT2050,2,4,,2,17490,4.1501,0.06105,2604.519,342.2,25.1,
1563,1,SBT2050,2,4,,2,17545,4.15013,0.05956,2605.437,342.2,25.1,
1563,1,SBT2050,2,4,,2,17600,4.15012,0.05876,2606.342,342.2,25.1,
1563,1,SBT2050,2,4,,2,17655,4.15027,0.05793,2607.236,342.2,25.1,
1563,1,SBT2050,2,4,,2,17710,4.14997,0.05764,2608.126,342.2,25.1,
1563,1,SBT2050,2,4,,2,17765,4.14975,0.05652,2608.995,342.2,25.2,
1563,1,SBT2050,2,4,,2,17820,4.14997,0.05606,2609.859,342.2,25.1,
1563,1,SBT2050,2,4,,2,17875,4.149932,0.05556,2610.711,342.2,25.2,
1563,1,SBT2050,2,4,,2,17930,4.15002,0.05412,2611.551,342.2,25.1,
1563,1,SBT2050,2,4,,2,17985,4.1499,0.05411,2612.376,342.2,25.1,
1563,1,SBT2050,2,4,,2,18040,4.15002,0.05317,2613.193,342.2,25.1,
1563,1,SBT2050,2,4,,2,18095,4.14996,0.05245,2614.001,342.2,25.1,
1563,1,SBT2050,2,4,,2,18150,4.14985,0.05188,2614.801,342.2,25.1,
1563,1,SBT2050,2,4,,2,18205,4.15009,0.051,2615.59,342.2,25.2,
1563,1,SBT2050,2,4,,2,18260,4.14984,0.05036,2616.367,342.2,25.1,
1563,1,SBT2050,2,4,,2,18315,4.14984,0.05001,2617.136,342.2,25.1,
1563,1,SBT2050,2,4,,2,18370,4.15004,0.04913,2617.893,342.2,25.1,
1563,1,SBT2050,2,4,,2,18425,4.14984,0.04886,2618.642,342.2,25.1,
1563,1,SBT2050,2,4,,2,18480,4.1499,0.0481,2619.382,342.2,25.1,
1563,1,SBT2050,2,4,,2,18535,4.15,0.04722,2620.112,342.2,25.1,
1563,1,SBT2050,2,4,,2,18590,4.15005,0.04636,2620.829,342.2,25.1,
1563,1,SBT2050,2,4,,2,18645,4.14981,0.046438,2621.538,342.2,25.1,
1563,1,SBT2050,2,4,,2,18700,4.14972,0.046152,2622.243,342.2,25.2,
1563,1,SBT2050,2,4,,2,18755,4.14986,0.045506,2622.94,342.2,25.1,
1563,1,SBT2050,2,4,,2,18810,4.14999,0.044703,2623.628,342.2,25.1,
1563,1,SBT2050,2,4,,2,18865,4.15011,0.044303,2624.309,342.2,25.1,
1563,1,SBT2050,2,4,,2,18920,4.150218,0.043353,2624.979,342.2,25.1,
1563,1,SBT2050,2,4,,2,18975,4.15011,0.042962,2625.641,342.2,25.1,
1563,1,SBT2050,2,4,,2,19030,4.14998,0.042609,2626.293,342.2,25.1,
1563,1,SBT2050,2,4,,2,19085,4.1499,0.041896,2626.938,342.2,25.1,
1563,1,SBT2050,2,4,,2,19140,4.15011,0.041488,2627.576,342.2,25.1,
1563,1,SBT2050,2,4,,2,19195,4.15028,0.041589,2628.21,342.2,25.1,
1563,1,SBT2050,2,4,,2,19250,4.14998,0.040946,2628.839,342.2,25.1,
1563,1,SBT2050,2,4,,2,19305,4.15006,0.040085,2629.458,342.2,25.1,
1563,1,SBT2050,2,4,,2,19360,4.150206,0.03949,2630.071,342.2,25.1,
1563,1,SBT2050,2,4,,2,19415,4.14975,0.039276,2630.676,342.2,25.1,
1563,1,SBT2050,2,4,,2,19470,4.15012,0.038982,2631.274,342.2,25.1,
1563,1,SBT2050,2,4,,2,19525,4.15017,0.038289,2631.867,342.2,25.1,
1563,1,SBT2050,2,4,,2,19580,4.14992,0.038004,2632.458,342.2,25.1,
1563,1,SBT2050,2,4,,2,19635,4.149908,0.037556,2633.038,342.2,25.1,
1563,1,SBT2050,2,4,,2,19690,4.15012,0.037026,2633.611,342.2,25.1,
1563,1,SBT2050,2,4,,2,19745,4.1498,0.037001,2634.183,342.2,25.1,
1563,1,SBT2050,2,4,,2,19800,4.15017,0.037029,2634.749,342.2,25.1,
1563,1,SBT2050,2,4,,2,19855,4.149908,0.035955,2635.303,342.2,25.1,
1563,1,SBT2050,2,4,,2,19910,4.15029,0.035896,2635.853,342.2,25.1,
1563,1,SBT2050,2,4,,2,19965,4.150206,0.035604,2636.4,342.2,25.1,
1563,1,SBT2050,2,4,,2,20020,4.15012,0.035212,2636.944,342.2,25.1,
1563,1,SBT2050,2,4,,2,20075,4.14979,0.034726,2637.478,342.2,25.1,
1563,1,SBT2050,2,4,,2,20130,4.14998,0.034259,2638.008,342.2,25.1,
1563,1,SBT2050,2,4,,2,20185,4.149908,0.034393,2638.531,342.2,25.1,
1563,1,SBT2050,2,4,,2,20240,4.15003,0.034198,2639.051,342.2,25.1,
1563,1,SBT2050,2,4,,2,20295,4.15006,0.033692,2639.569,342.2,25.1,
1563,1,SBT2050,2,4,,2,20350,4.14971,0.033954,2640.083,342.2,25.1,
1563,1,SBT2050,2,4,,2,20405,4.14992,0.033442,2640.598,342.2,25.2,
1563,1,SBT2050,2,4,,2,20460,4.14987,0.032572,2641.1,342.2,25.1,
1563,1,SBT2050,2,4,,2,20515,4.14998,0.032468,2641.598,342.2,25.1,
1563,1,SBT2050,2,4,,2,20570,4.14997,0.032381,2642.093,342.2,25.1,
1563,1,SBT2050,2,4,,2,20625,4.14997,0.031913,2642.582,342.2,25.1,
1563,1,SBT2050,2,4,,2,20680,4.15003,0.031588,2643.069,342.2,25.1,
1563,1,SBT2050,2,4,,2,20735,4.15007,0.031292,2643.548,342.2,25.1,
1563,1,SBT2050,2,4,,2,20790,4.149932,0.030928,2644.02,342.2,25.1,
1563,1,SBT2050,2,4,,2,20845,4.15031,0.03041,2644.487,342.2,25.1,
1563,1,SBT2050,2,4,,2,20900,4.14996,0.030466,2644.95,342.2,25.1,
1563,1,SBT2050,2,4,,2,20955,4.149944,0.03069,2645.41,342.2,25.1,
1563,1,SBT2050,2,4,,2,21010,4.14999,0.029744,2645.87,342.2,25.1,
1563,1,SBT2050,2,4,,2,21065,4.15009,0.029299,2646.327,342.2,25.1,
1563,1,SBT2050,2,4,,2,21120,4.15004,0.029287,2646.776,342.2,25.1,
1563,1,SBT2050,2,4,,2,21175,4.15003,0.029352,2647.223,342.2,25.1,
1563,1,SBT2050,2,4,,2,21230,4.15025,0.028703,2647.662,342.2,25.1,
1563,1,SBT2050,2,4,,2,21285,4.15006,0.028313,2648.096,342.2,25.1,
1563,1,SBT2050,2,4,,2,21340,4.14987,0.028121,2648.525,342.2,25.1,
1563,1,SBT2050,2,4,,2,21395,4.15015,0.027824,2648.952,342.2,25.1,
1563,1,SBT2050,2,4,,2,21450,4.14999,0.027352,2649.374,342.2,25.1,
1563,1,SBT2050,2,4,,2,21505,4.15003,0.02745,2649.792,342.2,25.2,
1563,1,SBT2050,2,4,,2,21560,4.15017,0.027281,2650.208,342.2,25.1,
1563,1,SBT2050,2,4,,2,21615,4.14978,0.027243,2650.621,342.2,25.1,
1563,1,SBT2050,2,4,,2,21670,4.14982,0.026888,2651.032,342.2,25.1,
1563,1,SBT2050,2,4,,2,21725,4.15003,0.026401,2651.439,342.2,25.1,
1563,1,SBT2050,2,4,,2,21780,4.15007,0.026293,2651.842,342.2,25.2,
1563,1,SBT2050,2,4,,2,21835,4.14978,0.026225,2652.244,342.2,25.2,
1563,1,SBT2050,2,4,,2,21890,4.14985,0.025922,2652.641,342.2,25.2,
1563,1,SBT2050,2,4,,2,21945,4.14996,0.025351,2653.03,342.2,25.1,
1563,1,SBT2050,2,4,,2,22000,4.15006,0.02484,2653.416,342.2,25.1,
1563,1,SBT2050,2,4,,2,22055,4.149944,0.025207,2653.801,342.2,25.1,
1563,1,SBT2050,2,4,,2,22110,4.14999,0.025112,2654.183,342.2,25.1,
1563,1,SBT2050,2,4,,2,22165,4.14998,0.024919,2654.562,342.2,25.1,
1563,1,SBT2050,2,4,,2,22220,4.14998,0.024506,2654.939,342.2,25.1,
1563,1,SBT2050,2,4,,2,22275,4.14998,0.024182,2655.309,342.2,25.1,
1563,1,SBT2050,2,4,,2,22330,4.1503,0.023747,2655.674,342.2,25.1,
1563,1,SBT2050,2,4,,2,22385,4.14984,0.023737,2656.039,342.2,25.1,
1563,1,SBT2050,2,4,,2,22440,4.15013,0.023851,2656.403,342.2,25.1,
1563,1,SBT2050,2,4,,2,22495,4.149944,0.023531,2656.767,342.2,25.1,
1563,1,SBT2050,2,4,,2,22550,4.15002,0.023214,2657.121,342.2,25.1,
1563,1,SBT2050,2,4,,2,22605,4.14996,0.02295,2657.474,342.2,25.1,
1563,1,SBT2050,2,4,,2,22660,4.149932,0.022635,2657.825,342.2,25.1,
1563,1,SBT2050,2,4,,2,22715,4.1499,0.022648,2658.174,342.2,25.1,
1563,1,SBT2050,2,4,,2,22770,4.149932,0.022878,2658.523,342.2,25.1,
1563,1,SBT2050,2,4,,2,22825,4.14988,0.022515,2658.865,342.2,25.2,
1563,1,SBT2050,2,4,,2,22880,4.14981,0.021995,2659.206,342.2,25.1,
1563,1,SBT2050,2,4,,2,22935,4.14971,0.021567,2659.539,342.2,25.2,
1563,1,SBT2050,2,4,,2,22990,4.15006,0.021911,2659.872,342.2,25.2,
1563,1,SBT2050,2,4,,2,23045,4.149646,0.021173,2660.198,342.2,25.1,
1563,1,SBT2050,2,4,,2,23100,4.1498,0.021161,2660.523,342.2,25.1,
1563,1,SBT2050,2,4,,2,23155,4.15011,0.020989,2660.844,342.2,25.1,
1563,1,SBT2050,2,4,,2,23210,4.1499,0.02091,2661.164,342.2,25.1,
1563,1,SBT2050,2,4,,2,23265,4.149932,0.020957,2661.484,342.2,25.1,
1563,1,SBT2050,2,4,,2,23320,4.1499,0.020557,2661.801,342.2,25.1,
1563,1,SBT2050,2,4,,2,23375,4.1499,0.02042,2662.114,342.2,25.1,
1563,1,SBT2050,2,4,,2,23430,4.14999,0.020423,2662.426,342.2,25.1,
1563,1,SBT2050,2,4,,2,23485,4.149944,0.02015,2662.735,342.2,25.1,
1563,1,SBT2050,2,4,,2,23540,4.14978,0.019987,2663.041,342.2,25.1,
1563,1,SBT2050,2,4,,2,23595,4.14999,0.020044,2663.345,342.2,25.1,
1563,1,SBT2050,2,4,,2,23650,4.15011,0.019862,2663.648,342.2,25.1,
1563,1,SBT2050,2,4,,2,23705,4.15005,0.019304,2663.947,342.2,25.1,
1563,1,SBT2050,2,4,,2,23760,4.15009,0.019374,2664.24,342.2,25.1,
1563,1,SBT2050,2,4,,2,23815,4.1498,0.019363,2664.532,342.2,25.1,
1563,1,SBT2050,2,4,,2,23870,4.15018,0.019275,2664.829,342.2,25.1,
1563,1,SBT2050,2,4,,2,23925,4.149932,0.018952,2665.115,342.2,25.1,
1563,1,SBT2050,2,4,,2,23980,4.149932,0.019202,2665.404,342.2,25.1,
1563,1,SBT2050,2,4,,2,24035,4.15003,0.018367,2665.688,342.2,25.1,
1563,1,SBT2050,2,4,,2,24090,4.15009,0.018608,2665.975,342.2,25.1,
1563,1,SBT2050,2,4,,2,24145,4.14986,0.018367,2666.255,342.2,25.1,
1563,1,SBT2050,2,4,,2,24200,4.15034,0.018584,2666.532,342.2,25.1,
1563,1,SBT2050,2,4,,2,24255,4.15005,0.018203,2666.808,342.2,25.1,
1563,1,SBT2050,2,4,,2,24310,4.15009,0.018491,2667.087,342.2,25.1,
1563,1,SBT2050,2,4,,2,24365,4.14999,0.017431,2667.36,342.2,25.1,
1563,1,SBT2050,2,4,,2,24420,4.149932,0.017642,2667.632,342.2,25.1,
1563,1,SBT2050,2,4,,2,24475,4.14987,0.017516,2667.9,342.2,25.1,
1563,1,SBT2050,2,4,,2,24530,4.1501,0.017517,2668.169,342.2,25.1,
1563,1,SBT2050,2,4,,2,24585,4.15011,0.01742,2668.436,342.2,25.1,
1563,1,SBT2050,2,4,,2,24640,4.14996,0.01724,2668.699,342.2,25.1,
1563,1,SBT2050,2,4,,2,24695,4.15009,0.016717,2668.962,342.2,25.1,
1563,1,SBT2050,2,4,,2,24750,4.1501,0.016654,2669.22,342.2,25.1,
1563,1,SBT2050,2,4,,2,24805,4.15004,0.016618,2669.476,342.2,25.1,
1563,1,SBT2050,2,4,,2,24860,4.15006,0.016642,2669.731,342.2,25.1,
1563,1,SBT2050,2,4,,2,24915,4.14975,0.016609,2669.983,342.2,25.1,
1563,1,SBT2050,2,4,,2,24970,4.15007,0.016674,2670.237,342.2,25.1,
1563,1,SBT2050,2,4,,2,25025,4.15004,0.016619,2670.488,342.2,25.1,
1563,1,SBT2050,2,4,,2,25080,4.15006,0.016154,2670.738,342.2,25.1,
1563,1,SBT2050,2,4,,2,25135,4.14996,0.016497,2670.985,342.2,25.1,
1563,1,SBT2050,2,4,,2,25190,4.149908,0.016656,2671.231,342.2,25.1,
1563,1,SBT2050,2,4,,2,25245,4.14997,0.015711,2671.476,342.2,25.1,
1563,1,SBT2050,2,4,,2,25300,4.149908,0.015958,2671.718,342.2,25.1,
1563,1,SBT2050,2,4,,2,25355,4.15009,0.016046,2671.962,342.2,25.1,
1563,1,SBT2050,2,4,,2,25410,4.14997,0.015693,2672.202,342.2,25.1,
1563,1,SBT2050,2,4,,2,25465,4.14984,0.015374,2672.439,342.2,25.1,
1563,1,SBT2050,2,4,,2,25520,4.15025,0.014896,2672.673,342.2,25.1,
1563,1,SBT2050,2,4,,2,25575,4.15031,0.015212,2672.907,342.2,25.1,
1563,1,SBT2050,2,4,,2,25630,4.14987,0.014824,2673.138,342.2,25.1,
1563,1,SBT2050,2,4,,2,25685,4.149622,0.01548,2673.369,342.2,25.1,
1563,1,SBT2050,2,4,,2,25740,4.14997,0.01496,2673.598,342.2,25.1,
1563,1,SBT2050,2,4,,2,25795,4.15003,0.014763,2673.824,342.2,25.1,
1563,1,SBT2050,2,4,,2,25850,4.14982,0.01454,2674.047,342.2,25.1,
1563,1,SBT2050,2,4,,2,25905,4.15006,0.01437,2674.267,342.2,25.1,
1563,1,SBT2050,2,4,,2,25960,4.14987,0.014217,2674.486,342.2,25.1,
1563,1,SBT2050,2,4,,2,26015,4.1501,0.014464,2674.712,342.2,25.1,
1563,1,SBT2050,2,4,,2,26070,4.14996,0.014346,2674.932,342.2,25.1,
1563,1,SBT2050,2,4,,2,26125,4.15012,0.014077,2675.151,342.2,25.1,
1563,1,SBT2050,2,4,,2,26180,4.15009,0.0141,2675.368,342.2,25.1,
1563,1,SBT2050,2,4,,2,26235,4.15002,0.013836,2675.582,342.2,25.1,
1563,1,SBT2050,2,4,,2,26290,4.15016,0.013968,2675.794,342.2,25.1,
1563,1,SBT2050,2,4,,2,26345,4.15009,0.014141,2676.01,342.2,25.1,
1563,1,SBT2050,2,4,,2,26400,4.15017,0.013918,2676.227,342.2,25.1,
1563,1,SBT2050,2,4,,2,26455,4.14974,0.014135,2676.437,342.2,25.1,
1563,1,SBT2050,2,4,,2,26510,4.14974,0.013524,2676.647,342.2,25.1,
1563,1,SBT2050,2,4,,2,26565,4.15013,0.013025,2676.854,342.2,25.1,
1563,1,SBT2050,2,4,,2,26620,4.15003,0.013263,2677.057,342.2,25.1,
1563,1,SBT2050,2,4,,2,26675,4.14987,0.01336,2677.26,342.2,25.1,
1563,1,SBT2050,2,4,,2,26730,4.15006,0.013051,2677.46,342.2,25.1,
1563,1,SBT2050,2,4,,2,26785,4.15003,0.013143,2677.662,342.2,25.1,
1563,1,SBT2050,2,4,,2,26840,4.1498,0.012973,2677.864,342.2,25.1,
1563,1,SBT2050,2,4,,2,26895,4.15007,0.012894,2678.063,342.2,25.1,
1563,1,SBT2050,2,4,,2,26950,4.149944,0.012856,2678.261,342.2,25.1,
1563,1,SBT2050,2,4,,2,27005,4.149908,0.012819,2678.457,342.2,25.1,
1563,1,SBT2050,2,4,,2,27060,4.15003,0.012665,2678.653,342.2,25.1,
1563,1,SBT2050,2,4,,2,27115,4.14973,0.012505,2678.845,342.2,25,
1563,1,SBT2050,2,4,,2,27170,4.149908,0.012482,2679.04,342.2,25.1,
1563,1,SBT2050,2,4,,2,27225,4.15006,0.01272,2679.234,342.2,25.1,
1563,1,SBT2050,2,4,,2,27280,4.1501,0.012318,2679.426,342.2,25.1,
1563,1,SBT2050,2,4,,2,27335,4.14997,0.012004,2679.612,342.2,25.1,
1563,1,SBT2050,2,4,,2,27390,4.14992,0.012051,2679.798,342.2,25.1,
1563,1,SBT2050,2,4,,2,27445,4.15009,0.011974,2679.983,342.2,25.1,
1563,1,SBT2050,2,4,,2,27500,4.14986,0.012432,2680.169,342.2,25.1,
1563,1,SBT2050,2,4,,2,27555,4.14988,0.012315,2680.353,342.2,25.1,
1563,1,SBT2050,2,4,,2,27610,4.15016,0.011883,2680.535,342.2,25.1,
1563,1,SBT2050,2,4,,2,27665,4.14985,0.011908,2680.716,342.2,25.1,
1563,1,SBT2050,2,4,,2,27720,4.14986,0.011886,2680.896,342.2,25.1,
1563,1,SBT2050,2,4,,2,27775,4.15003,0.011648,2681.074,342.2,25.1,
1563,1,SBT2050,2,4,,2,27830,4.14998,0.011608,2681.253,342.2,25.1,
1563,1,SBT2050,2,4,,2,27885,4.14999,0.011472,2681.428,342.2,25.1,
1563,1,SBT2050,2,4,,2,27940,4.1501,0.011472,2681.604,342.2,25.1,
1563,1,SBT2050,2,4,,2,27995,4.1501,0.011508,2681.778,342.2,25.1,
1563,1,SBT2050,2,4,,2,28050,4.149932,0.011344,2681.953,342.2,25.1,
1563,1,SBT2050,2,4,,2,28105,4.14997,0.011065,2682.125,342.2,25.1,
1563,1,SBT2050,2,4,,2,28160,4.14988,0.011146,2682.294,342.2,25.1,
1563,1,SBT2050,2,4,,2,28215,4.149944,0.011111,2682.463,342.2,25.1,
1563,1,SBT2050,2,4,,2,28270,4.14998,0.010977,2682.633,342.2,25.1,
1563,1,SBT2050,2,4,,2,28325,4.14979,0.011159,2682.803,342.2,25.1,
1563,1,SBT2050,2,4,,2,28380,4.15024,0.011014,2682.973,342.2,25.1,
1563,1,SBT2050,2,4,,2,28435,4.15012,0.010964,2683.141,342.2,25.1,
1563,1,SBT2050,2,4,,2,28490,4.14997,0.01095,2683.308,342.2,25.1,
1563,1,SBT2050,2,4,,2,28545,4.14997,0.010838,2683.477,342.2,25.1,
1563,1,SBT2050,2,4,,2,28600,4.14996,0.010751,2683.641,342.2,25.1,
1563,1,SBT2050,2,4,,2,28655,4.149908,0.010668,2683.805,342.2,25.1,
1563,1,SBT2050,2,4,,2,28710,4.14973,0.010707,2683.966,342.2,25.1,
1563,1,SBT2050,2,4,,2,28765,4.15004,0.010389,2684.126,342.2,25.1,
1563,1,SBT2050,2,4,,3,28819,4.14806,0,2684.26,342.2,25.1,
1563,1,SBT2050,2,4,,3,28874,4.14698,0,2684.26,342.2,25,
1563,1,SBT2050,2,4,,3,28929,4.14651,0,2684.26,342.2,25.1,
1563,1,SBT2050,2,4,,3,28984,4.14617,0,2684.26,342.2,25.1,
1563,1,SBT2050,2,4,,3,29039,4.14564,0,2684.26,342.2,25.1,
1563,1,SBT2050,2,4,,3,29094,4.145484,0,2684.26,342.2,25.1,
1563,1,SBT2050,2,4,,3,29149,4.145306,0,2684.26,342.2,25.1,
1563,1,SBT2050,2,4,,3,29204,4.14531,0,2684.26,342.2,25.1,
1563,1,SBT2050,2,4,,3,29259,4.14473,0,2684.26,342.2,25.1,
1563,1,SBT2050,2,4,,3,29314,4.14481,0,2684.26,342.2,25.1,
1563,1,SBT2050,2,4,,3,29369,4.144548,0,2684.26,342.2,25.1,
1563,1,SBT2050,2,4,,3,29424,4.144246,0,2684.26,342.2,25.1,
1563,1,SBT2050,2,4,,3,29479,4.14409,0,2684.26,342.2,25.1,
1563,1,SBT2050,2,4,,3,29534,4.14397,0,2684.26,342.2,25.1,
1563,1,SBT2050,2,4,,3,29589,4.14386,0,2684.26,342.2,25.1,
1563,1,SBT2050,2,4,,3,29644,4.14363,0,2684.26,342.2,25.1,
1563,1,SBT2050,2,4,,3,29699,4.14367,0,2684.26,342.2,25.1,
1563,1,SBT2050,2,4,,3,29754,4.143156,0,2684.26,342.2,25.1,
1563,1,SBT2050,2,4,,3,29809,4.14326,0,2684.26,342.2,25.1,
1563,1,SBT2050,2,4,,3,29864,4.1432,0,2684.26,342.2,25.1,
1563,1,SBT2050,2,4,,3,29919,4.14324,0,2684.26,342.2,25.1,
1563,1,SBT2050,2,4,,3,29974,4.14326,0,2684.26,342.2,25.1,
1563,1,SBT2050,2,4,,3,30029,4.143052,0,2684.26,342.2,25.1,
1563,1,SBT2050,2,4,,3,30084,4.14255,0,2684.26,342.2,25.1,
1563,1,SBT2050,2,4,,3,30139,4.14271,0,2684.26,342.2,25.1,
1563,1,SBT2050,2,4,,3,30194,4.14244,0,2684.26,342.2,25.1,
1563,1,SBT2050,2,4,,3,30249,4.14242,0,2684.26,342.2,25.1,
1563,1,SBT2050,2,4,,3,30304,4.14229,0,2684.26,342.2,25.1,
1563,1,SBT2050,2,4,,3,30359,4.14204,0,2684.26,342.2,25.1,
1563,1,SBT2050,2,4,,3,30414,4.1422,0,2684.26,342.2,25.1,
1563,1,SBT2050,2,4,,3,30469,4.14214,0,2684.26,342.2,25.1,
1563,1,SBT2050,2,4,,3,30524,4.14208,0,2684.26,342.2,25.1,
1563,1,SBT2050,2,4,,3,30579,4.14193,0,2684.26,342.2,25.1,
1563,1,SBT2050,2,4,,4,30633,3.78256,-2.9361,2684.26,360.38,25.3,
1563,1,SBT2050,2,4,,4,30688,3.73147,-2.9361,2684.26,405.235,26.1,
1563,1,SBT2050,2,4,,4,30743,3.71095,-2.9361,2684.26,450.09,26.9,
1563,1,SBT2050,2,4,,4,30798,3.69881,-2.9363,2684.26,494.945,27.5,
1563,1,SBT2050,2,4,,4,30853,3.68874,-2.9359,2684.26,539.8,27.9,
1563,1,SBT2050,2,4,,4,30908,3.679,-2.936,2684.26,584.655,28.4,
1563,1,SBT2050,2,4,,4,30963,3.66856,-2.9361,2684.26,629.51,28.6,
1563,1,SBT2050,2,4,,4,31018,3.65792,-2.9356,2684.26,674.365,28.8,
1563,1,SBT2050,2,4,,4,31073,3.64633,-2.936,2684.26,719.22,29,
1563,1,SBT2050,2,4,,4,31128,3.63443,-2.9358,2684.26,764.075,29.1,
1563,1,SBT2050,2,4,,4,31183,3.621422,-2.9359,2684.26,808.93,29.1,
1563,1,SBT2050,2,4,,4,31238,3.60827,-2.9356,2684.26,853.785,29.2,
1563,1,SBT2050,2,4,,4,31293,3.59436,-2.9362,2684.26,898.64,29.3,
1563,1,SBT2050,2,4,,4,31348,3.580128,-2.936,2684.26,943.495,29.3,
1563,1,SBT2050,2,4,,4,31403,3.56567,-2.9362,2684.26,988.35,29.3,
1563,1,SBT2050,2,4,,4,31458,3.55117,-2.936,2684.26,1033.205,29.4,
1563,1,SBT2050,2,4,,4,31513,3.53614,-2.9359,2684.26,1078.06,29.4,
1563,1,SBT2050,2,4,,4,31568,3.521108,-2.9359,2684.26,1122.914,29.4,
1563,1,SBT2050,2,4,,4,31623,3.50597,-2.9357,2684.26,1167.769,29.4,
1563,1,SBT2050,2,4,,4,31678,3.49043,-2.9364,2684.26,1212.624,29.4,
1563,1,SBT2050,2,4,,4,31733,3.475002,-2.9359,2684.26,1257.479,29.4,
1563,1,SBT2050,2,4,,4,31788,3.45956,-2.9359,2684.26,1302.334,29.4,
1563,1,SBT2050,2,4,,4,31843,3.44441,-2.936,2684.26,1347.189,29.4,
1563,1,SBT2050,2,4,,4,31898,3.42878,-2.9356,2684.26,1392.044,29.4,
1563,1,SBT2050,2,4,,4,31953,3.41352,-2.936,2684.26,1436.899,29.4,
1563,1,SBT2050,2,4,,4,32008,3.39767,-2.9361,2684.26,1481.754,29.5,
1563,1,SBT2050,2,4,,4,32063,3.38208,-2.9362,2684.26,1526.609,29.5,
1563,1,SBT2050,2,4,,4,32118,3.366102,-2.936,2684.26,1571.463,29.5,
1563,1,SBT2050,2,4,,4,32173,3.350343,-2.9359,2684.26,1616.318,29.5,
1563,1,SBT2050,2,4,,4,32228,3.33375,-2.9363,2684.26,1661.173,29.6,
1563,1,SBT2050,2,4,,4,32283,3.31737,-2.9358,2684.26,1706.028,29.6,
1563,1,SBT2050,2,4,,4,32338,3.300564,-2.9361,2684.26,1750.883,29.7,
1563,1,SBT2050,2,4,,4,32393,3.28339,-2.9361,2684.26,1795.738,29.8,
1563,1,SBT2050,2,4,,4,32448,3.26573,-2.9357,2684.26,1840.593,29.8,
1563,1,SBT2050,2,4,,4,32503,3.24742,-2.936,2684.26,1885.448,29.9,
1563,1,SBT2050,2,4,,4,32558,3.228394,-2.9365,2684.26,1930.303,30,
1563,1,SBT2050,2,4,,4,32613,3.20873,-2.9365,2684.26,1975.158,30.1,
1563,1,SBT2050,2,4,,4,32668,3.188562,-2.9362,2684.26,2020.013,30.3,
1563,1,SBT2050,2,4,,4,32723,3.16731,-2.9356,2684.26,2064.868,30.4,
1563,1,SBT2050,2,4,,4,32778,3.14511,-2.9357,2684.26,2109.723,30.5,
1563,1,SBT2050,2,4,,4,32833,3.12135,-2.9358,2684.26,2154.578,30.6,
1563,1,SBT2050,2,4,,4,32888,3.09593,-2.9359,2684.26,2199.433,30.8,
1563,1,SBT2050,2,4,,4,32943,3.069787,-2.9363,2684.26,2244.287,31,
1563,1,SBT2050,2,4,,4,32998,3.040792,-2.9362,2684.26,2289.142,31.2,
1563,1,SBT2050,2,4,,4,33053,3.00985,-2.9354,2684.26,2333.997,31.4,
1563,1,SBT2050,2,4,,4,33108,2.9757,-2.9363,2684.26,2378.852,31.7,
1563,1,SBT2050,2,4,,4,33163,2.93754,-2.9358,2684.26,2423.707,32,
1563,1,SBT2050,2,4,,4,33218,2.89362,-2.9357,2684.26,2468.562,32.3,
1563,1,SBT2050,2,4,,4,33273,2.84029,-2.9362,2684.26,2513.417,32.6,
1563,1,SBT2050,2,4,,4,33328,2.77389,-2.9363,2684.26,2558.272,33.1,
1563,1,SBT2050,2,4,,4,33383,2.67962,-2.9363,2684.26,2603.127,33.4,
1563,1,SBT2050,2,4,,4,33438,2.52878,-2.9358,2684.26,2647.982,34.2,
1563,1,SBT2050,2,4,,4,33493,2.49987,-2.2861,2684.26,2687.77,34.9,
1563,1,SBT2050,2,4,,4,33548,2.49988,-1.838,2684.26,2719.123,35,
1563,1,SBT2050,2,4,,4,33603,2.49969,-1.4898,2684.26,2744.443,34.5,
1563,1,SBT2050,2,4,,4,33658,2.49984,-1.2212,2684.26,2765.067,34,
1563,1,SBT2050,2,4,,4,33713,2.49986,-1.015,2684.26,2782.082,33.3,
1563,1,SBT2050,2,4,,4,33768,2.49984,-0.8574,2684.26,2796.331,32.4,
1563,1,SBT2050,2,4,,4,33823,2.49992,-0.7366,2684.26,2808.466,31.8,
1563,1,SBT2050,2,4,,4,33878,2.4998,-0.6433,2684.26,2818.974,31.1,
1563,1,SBT2050,2,4,,4,33933,2.50004,-0.571,2684.26,2828.225,30.4,
1563,1,SBT2050,2,4,,4,33988,2.49994,-0.5137,2684.26,2836.496,29.9,
1563,1,SBT2050,2,4,,4,34043,2.49994,-0.46794,2684.26,2843.98,29.4,
1563,1,SBT2050,2,4,,4,34098,2.49985,-0.42985,2684.26,2850.827,29,
1563,1,SBT2050,2,4,,4,34153,2.49982,-0.39859,2684.26,2857.148,28.6,
1563,1,SBT2050,2,4,,4,34208,2.49992,-0.37209,2684.26,2863.032,28.3,
1563,1,SBT2050,2,4,,4,34263,2.49982,-0.34943,2684.26,2868.541,28.1,
1563,1,SBT2050,2,4,,4,34318,2.4999,-0.32861,2684.26,2873.719,27.8,
1563,1,SBT2050,2,4,,4,34373,2.49988,-0.31034,2684.26,2878.602,27.5,
1563,1,SBT2050,2,4,,4,34428,2.4999,-0.29477,2684.26,2883.222,27.4,
1563,1,SBT2050,2,4,,4,34483,2.49994,-0.27963,2684.26,2887.604,27.2,
1563,1,SBT2050,2,4,,4,34538,2.4999,-0.26614,2684.26,2891.77,27.1,
1563,1,SBT2050,2,4,,4,34593,2.49981,-0.25312,2684.26,2895.734,26.9,
1563,1,SBT2050,2,4,,4,34648,2.49985,-0.24079,2684.26,2899.507,26.8,
1563,1,SBT2050,2,4,,4,34703,2.49984,-0.2299,2684.26,2903.104,26.7,
1563,1,SBT2050,2,4,,4,34758,2.49997,-0.2196,2684.26,2906.539,26.6,
1563,1,SBT2050,2,4,,4,34813,2.499932,-0.21025,2684.26,2909.821,26.5,
1563,1,SBT2050,2,4,,4,34868,2.49998,-0.20143,2684.26,2912.966,26.5,
1563,1,SBT2050,2,4,,4,34923,2.49992,-0.19343,2684.26,2915.982,26.4,
1563,1,SBT2050,2,4,,4,34978,2.499932,-0.18594,2684.26,2918.878,26.3,
1563,1,SBT2050,2,4,,4,35033,2.49999,-0.1786,2684.26,2921.662,26.2,
1563,1,SBT2050,2,4,,4,35088,2.49988,-0.17192,2684.26,2924.338,26.2,
1563,1,SBT2050,2,4,,4,35143,2.49997,-0.16588,2684.26,2926.916,26.1,
1563,1,SBT2050,2,4,,4,35198,2.49988,-0.15999,2684.26,2929.404,26.1,
1563,1,SBT2050,2,4,,4,35253,2.49984,-0.15473,2684.26,2931.808,26,
1563,1,SBT2050,2,4,,4,35308,2.499932,-0.14942,2684.26,2934.132,26,
1563,1,SBT2050,2,4,,4,35363,2.49994,-0.14468,2684.26,2936.379,25.9,
1563,1,SBT2050,2,4,,4,35418,2.49979,-0.13996,2684.26,2938.554,25.9,
1563,1,SBT2050,2,4,,4,35473,2.49994,-0.13575,2684.26,2940.661,25.9,
1563,1,SBT2050,2,4,,4,35528,2.5,-0.13161,2684.26,2942.705,25.9,
1563,1,SBT2050,2,4,,4,35583,2.49997,-0.12791,2684.26,2944.688,25.8,
1563,1,SBT2050,2,4,,4,35638,2.500063,-0.12434,2684.26,2946.613,25.8,
1563,1,SBT2050,2,4,,4,35693,2.50003,-0.1205,2684.26,2948.482,25.8,
1563,1,SBT2050,2,4,,4,35748,2.4999,-0.11701,2684.26,2950.296,25.8,
1563,1,SBT2050,2,4,,4,35803,2.50003,-0.11379,2684.26,2952.058,25.7,
1563,1,SBT2050,2,4,,4,35858,2.50018,-0.11051,2684.26,2953.77,25.7,
1563,1,SBT2050,2,4,,4,35913,2.49997,-0.10722,2684.26,2955.435,25.8,
1563,1,SBT2050,2,4,,4,35968,2.499908,-0.10422,2684.26,2957.051,25.7,
1563,1,SBT2050,2,4,,4,36023,2.49985,-0.10146,2684.26,2958.623,25.7,
1563,1,SBT2050,2,4,,4,36078,2.4999,-0.09875,2684.26,2960.15,25.6,
1563,1,SBT2050,2,4,,4,36133,2.49998,-0.09566,2684.26,2961.633,25.6,
1563,1,SBT2050,2,4,,4,36188,2.49986,-0.09288,2684.26,2963.073,25.6,
1563,1,SBT2050,2,4,,4,36243,2.5,-0.09024,2684.26,2964.473,25.6,
1563,1,SBT2050,2,4,,4,36298,2.500063,-0.08773,2684.26,2965.832,25.6,
1563,1,SBT2050,2,4,,4,36353,2.49997,-0.08502,2684.26,2967.153,25.6,
1563,1,SBT2050,2,4,,4,36408,2.4999,-0.08282,2684.26,2968.436,25.6,
1563,1,SBT2050,2,4,,4,36463,2.500051,-0.08056,2684.26,2969.683,25.5,
1563,1,SBT2050,2,4,,4,36518,2.50003,-0.07821,2684.26,2970.895,25.6,
1563,1,SBT2050,2,4,,4,36573,2.500051,-0.07616,2684.26,2972.075,25.5,
1563,1,SBT2050,2,4,,4,36628,2.50002,-0.07409,2684.26,2973.222,25.5,
1563,1,SBT2050,2,4,,4,36683,2.49994,-0.07195,2684.26,2974.338,25.5,
1563,1,SBT2050,2,4,,4,36738,2.49987,-0.07015,2684.26,2975.424,25.5,
1563,1,SBT2050,2,4,,4,36793,2.49999,-0.06834,2684.26,2976.482,25.5,
1563,1,SBT2050,2,4,,4,36848,2.50009,-0.06642,2684.26,2977.512,25.5,
1563,1,SBT2050,2,4,,4,36903,2.49997,-0.06466,2684.26,2978.515,25.4,
1563,1,SBT2050,2,4,,4,36958,2.50017,-0.06317,2684.26,2979.491,25.4,
1563,1,SBT2050,2,4,,4,37013,2.49974,-0.06154,2684.26,2980.441,25.4,
1563,1,SBT2050,2,4,,4,37068,2.499932,-0.05988,2684.26,2981.367,25.4,
1563,1,SBT2050,2,4,,4,37123,2.500063,-0.05838,2684.26,2982.268,25.4,
1563,1,SBT2050,2,4,,4,37178,2.5,-0.05659,2684.26,2983.147,25.4,
1563,1,SBT2050,2,4,,4,37233,2.50003,-0.05538,2684.26,2984.003,25.4,
1563,1,SBT2050,2,4,,4,37288,2.49984,-0.05388,2684.26,2984.837,25.4,
1563,1,SBT2050,2,4,,4,37343,2.49997,-0.05255,2684.26,2985.649,25.4,
1563,1,SBT2050,2,4,,4,37398,2.49998,-0.05132,2684.26,2986.441,25.4,
1563,1,SBT2050,2,4,,4,37453,2.49994,-0.04989,2684.26,2987.213,25.4,
1563,1,SBT2050,2,4,,4,37508,2.50009,-0.04853,2684.26,2987.966,25.3,
1563,1,SBT2050,2,4,,4,37563,2.49999,-0.047466,2684.26,2988.7,25.3,
1563,1,SBT2050,2,4,,4,37618,2.49999,-0.04609,2684.26,2989.416,25.3,
1563,1,SBT2050,2,4,,4,37673,2.49998,-0.045153,2684.26,2990.114,25.4,
1563,1,SBT2050,2,4,,4,37728,2.50003,-0.044137,2684.26,2990.794,25.4,
1563,1,SBT2050,2,4,,4,37783,2.50011,-0.043026,2684.26,2991.457,25.3,
1563,1,SBT2050,2,4,,4,37838,2.499932,-0.041733,2684.26,2992.104,25.3,
1563,1,SBT2050,2,4,,4,37893,2.499932,-0.040709,2684.26,2992.733,25.3,
1563,1,SBT2050,2,4,,4,37948,2.500218,-0.039705,2684.26,2993.347,25.3,
1563,1,SBT2050,2,4,,4,38003,2.49987,-0.038667,2684.26,2993.945,25.3,
1563,1,SBT2050,2,4,,4,38058,2.500063,-0.037826,2684.26,2994.53,25.3,
1563,1,SBT2050,2,4,,4,38113,2.50002,-0.036913,2684.26,2995.101,25.3,
1563,1,SBT2050,2,4,,4,38168,2.50003,-0.036059,2684.26,2995.659,25.3,
1563,1,SBT2050,2,4,,4,38223,2.50003,-0.03532,2684.26,2996.204,25.3,
1563,1,SBT2050,2,4,,4,38278,2.50002,-0.034627,2684.26,2996.738,25.3,
1563,1,SBT2050,2,4,,4,38333,2.50004,-0.033857,2684.26,2997.259,25.3,
1563,1,SBT2050,2,4,,4,38388,2.4999,-0.033133,2684.26,2997.769,25.3,
1563,1,SBT2050,2,4,,4,38443,2.50009,-0.03229,2684.26,2998.268,25.3,
1563,1,SBT2050,2,4,,4,38498,2.50018,-0.031689,2684.26,2998.756,25.3,
1563,1,SBT2050,2,4,,4,38553,2.49994,-0.030847,2684.26,2999.234,25.3,
1563,1,SBT2050,2,4,,4,38608,2.5,-0.030254,2684.26,2999.701,25.3,
1563,1,SBT2050,2,4,,4,38663,2.49988,-0.02939,2684.26,3000.158,25.3,
1563,1,SBT2050,2,4,,4,38718,2.4999,-0.028871,2684.26,3000.604,25.3,
1563,1,SBT2050,2,4,,4,38773,2.499932,-0.02816,2684.26,3001.04,25.3,
1563,1,SBT2050,2,4,,4,38828,2.50002,-0.027494,2684.26,3001.466,25.3,
1563,1,SBT2050,2,4,,4,38883,2.50012,-0.026934,2684.26,3001.882,25.3,
1563,1,SBT2050,2,4,,4,38938,2.50011,-0.026308,2684.26,3002.288,25.3,
1563,1,SBT2050,2,4,,4,38993,2.49996,-0.025659,2684.26,3002.684,25.3,
1563,1,SBT2050,2,4,,4,39048,2.50003,-0.025052,2684.26,3003.072,25.2,
1563,1,SBT2050,2,4,,4,39103,2.500051,-0.02443,2684.26,3003.449,25.3,
1563,1,SBT2050,2,4,,4,39158,2.50012,-0.023857,2684.26,3003.818,25.3,
1563,1,SBT2050,2,4,,4,39213,2.49982,-0.023338,2684.26,3004.179,25.3,
1563,1,SBT2050,2,4,,4,39268,2.50013,-0.022729,2684.26,3004.53,25.2,
1563,1,SBT2050,2,4,,4,39323,2.50018,-0.022192,2684.26,3004.873,25.2,
1563,1,SBT2050,2,4,,4,39378,2.50003,-0.021717,2684.26,3005.208,25.2,
1563,1,SBT2050,2,4,,4,39433,2.49992,-0.0211,2684.26,3005.535,25.2,
1563,1,SBT2050,2,4,,4,39488,2.5,-0.020502,2684.26,3005.853,25.2,
1563,1,SBT2050,2,4,,4,39543,2.49997,-0.019903,2684.26,3006.164,25.3,
1563,1,SBT2050,2,4,,4,39598,2.500075,-0.01967,2684.26,3006.466,25.2,
1563,1,SBT2050,2,4,,4,39653,2.49997,-0.019139,2684.26,3006.761,25.2,
1563,1,SBT2050,2,4,,4,39708,2.50004,-0.0185,2684.26,3007.048,25.2,
1563,1,SBT2050,2,4,,4,39763,2.50009,-0.018192,2684.26,3007.329,25.2,
1563,1,SBT2050,2,4,,4,39818,2.5,-0.017655,2684.26,3007.602,25.2,
1563,1,SBT2050,2,4,,4,39873,2.50012,-0.017342,2684.26,3007.868,25.2,
1563,1,SBT2050,2,4,,4,39928,2.50002,-0.016741,2684.26,3008.127,25.2,
1563,1,SBT2050,2,4,,4,39983,2.500206,-0.016507,2684.26,3008.38,25.2,
1563,1,SBT2050,2,4,,4,40038,2.50002,-0.015964,2684.26,3008.627,25.2,
1563,1,SBT2050,2,4,,4,40093,2.5,-0.015412,2684.26,3008.867,25.2,
1563,1,SBT2050,2,4,,4,40148,2.5,-0.01522,2684.26,3009.102,25.2,
1563,1,SBT2050,2,4,,4,40203,2.50004,-0.014792,2684.26,3009.331,25.2,
1563,1,SBT2050,2,4,,4,40258,2.49999,-0.014454,2684.26,3009.554,25.2,
1563,1,SBT2050,2,4,,4,40313,2.49974,-0.014012,2684.26,3009.772,25.2,
1563,1,SBT2050,2,4,,4,40368,2.50003,-0.013856,2684.26,3009.985,25.2,
1563,1,SBT2050,2,4,,4,40423,2.49987,-0.013342,2684.26,3010.192,25.2,
1563,1,SBT2050,2,4,,4,40478,2.50004,-0.013322,2684.26,3010.394,25.2,
1563,1,SBT2050,2,4,,4,40533,2.5,-0.012898,2684.26,3010.592,25.1,
1563,1,SBT2050,2,4,,4,40588,2.49994,-0.01245,2684.26,3010.785,25.2,
1563,1,SBT2050,2,4,,4,40643,2.499932,-0.012208,2684.26,3010.973,25.2,
1563,1,SBT2050,2,4,,4,40698,2.500051,-0.012024,2684.26,3011.157,25.2,
1563,1,SBT2050,2,4,,4,40753,2.500051,-0.011536,2684.26,3011.336,25.2,
1563,1,SBT2050,2,4,,4,40808,2.49999,-0.011416,2684.26,3011.511,25.2,
1563,1,SBT2050,2,4,,4,40863,2.49987,-0.010958,2684.26,3011.681,25.2,
1563,1,SBT2050,2,4,,4,40918,2.49996,-0.010867,2684.26,3011.848,25.2,
1563,1,SBT2050,2,4,,4,40973,2.49999,-0.010612,2684.26,3012.011,25.2,
1563,1,SBT2050,2,4,,5,41027,2.502891,0,2684.26,3012.161,25.1,
1563,1,SBT2050,2,4,,5,41082,2.535895,0,2684.26,3012.161,25.1,
1563,1,SBT2050,2,4,,5,41137,2.56047,0,2684.26,3012.161,25.2,
1563,1,SBT2050,2,4,,5,41192,2.58175,0,2684.26,3012.161,25.2,
1563,1,SBT2050,2,4,,5,41247,2.600813,0,2684.26,3012.161,25.2,
1563,1,SBT2050,2,4,,5,41302,2.61744,0,2684.26,3012.161,25.2,
1563,1,SBT2050,2,4,,5,41357,2.632217,0,2684.26,3012.161,25.2,
1563,1,SBT2050,2,4,,5,41412,2.64543,0,2684.26,3012.161,25.2,
1563,1,SBT2050,2,4,,5,41467,2.65751,0,2684.26,3012.161,25.2,
1563,1,SBT2050,2,4,,5,41522,2.66819,0,2684.26,3012.161,25.1,
1563,1,SBT2050,2,4,,5,41577,2.67783,0,2684.26,3012.161,25.1,
1563,1,SBT2050,2,4,,5,41632,2.68645,0,2684.26,3012.161,25.2,
1563,1,SBT2050,2,4,,5,41687,2.69436,0,2684.26,3012.161,25.2,
1563,1,SBT2050,2,4,,5,41742,2.70154,0,2684.26,3012.161,25.2,
1563,1,SBT2050,2,4,,5,41797,2.70801,0,2684.26,3012.161,25.1,
1563,1,SBT2050,2,4,,5,41852,2.71429,0,2684.26,3012.161,25.1,
1563,1,SBT2050,2,4,,5,41907,2.71973,0,2684.26,3012.161,25.1,
1563,1,SBT2050,2,4,,5,41962,2.725079,0,2684.26,3012.161,25.1,
1563,1,SBT2050,2,4,,5,42017,2.72976,0,2684.26,3012.161,25.2,
1563,1,SBT2050,2,4,,5,42072,2.734198,0,2684.26,3012.161,25.1,
1563,1,SBT2050,2,4,,5,42127,2.73833,0,2684.26,3012.161,25.2,
1563,1,SBT2050,2,4,,5,42182,2.74207,0,2684.26,3012.161,25.1,
1563,1,SBT2050,2,4,,5,42237,2.74558,0,2684.26,3012.161,25.1,
1563,1,SBT2050,2,4,,5,42292,2.74901,0,2684.26,3012.161,25.2,
1563,1,SBT2050,2,4,,5,42347,2.75232,0,2684.26,3012.161,25.1,
1563,1,SBT2050,2,4,,5,42402,2.75511,0,2684.26,3012.161,25.1,
1563,1,SBT2050,2,4,,5,42457,2.75789,0,2684.26,3012.161,25.1,
1563,1,SBT2050,2,4,,5,42512,2.76038,0,2684.26,3012.161,25.1,
1563,1,SBT2050,2,4,,5,42567,2.76306,0,2684.26,3012.161,25.1,
1563,1,SBT2050,2,4,,5,42622,2.76524,0,2684.26,3012.161,25.1,
1563,1,SBT2050,2,4,,5,42677,2.76757,0,2684.26,3012.161,25.1,
1563,1,SBT2050,2,4,,5,42732,2.76984,0,2684.26,3012.161,25.1,
1563,1,SBT2050,2,4,,5,42787,2.771972,0,2684.26,3012.161,25.2,
1563,1,SBT2050,2,4,,5,42825.263,2.77299,-0.0001,2684.26,3012.161,,