File: 1C/Test1505.csv
Request Year:,2018,,,,,,,,,,,,
Test:,1505,,,,,,,,,,,,
Test Description:,,,,,,,,,,,,,
TestRegime Name:,Aging_Performance,,,,,,,,,,,,
TestRegime Suffix:,SHP_LC,,,,,,,,,,,,
TestRegime CellSize:,18650,,,,,,,,,,,,
TestRegime Version:,1,,,,,,,,,,,,
Number Of Cells:,1,,,,,,,,,,,,
LotID:,,,,,,,,,,,,,
Lot Description:,,,,,,,,,,,,,
Date Made:,1/21/2003 12:00 AM,,,,,,,,,,,,
Origin:,Other,,,,,,,,,,,,
Requestor:,Admin,,,,,,,,,,,,
Product ID:,Default product,,,,,,,,,,,,
Storage Temp:,R.T./AMB,,,,,,,,,,,,
Storage Delay:,0 days,,,,,,,,,,,,
Test Temp:,R.T./AMB,,,,,,,,,,,,
Start Time:,4/19/2018 10:26 PM,,,,,,,,,,,,
End Time:,4/20/2018 8:53 AM,,,,,,,,,,,,
Operator Instructions:,,,,,,,,,,,,,
Test,Cell,Rack,Shelf,Position,Cell ID,Step,Total Time (Seconds),Voltage (V),Current (A),Charge Capacity (mAh),Discharge Capacity (mAh),TC1 (Â°C),
1505,1,SBT2050,2,4,,0,1,3.36673,0,0,0,24.8,
1505,1,SBT2050,2,4,,0,50,3.36662,0,0,0,24.9,
1505,1,SBT2050,2,4,,0,99,3.36683,0,0,0,24.9,
1505,1,SBT2050,2,4,,0,148,3.36679,0,0,0,24.8,
1505,1,SBT2050,2,4,,0,197,3.36689,0,0,0,24.9,
1505,1,SBT2050,2,4,,0,246,3.36688,0,0,0,24.9,
1505,1,SBT2050,2,4,,0,295,3.36706,0,0,0,24.9,
1505,1,SBT2050,2,4,,1,344,2.499593,-2.0262,0,32.964,26.2,
1505,1,SBT2050,2,4,,1,393,2.49981,-1.5485,0,56.601,27.5,
1505,1,SBT2050,2,4,,1,442,2.4998,-1.3285,0,76.082,28.2,
1505,1,SBT2050,2,4,,1,491,2.499903,-1.164,0,92.99,28.6,
1505,1,SBT2050,2,4,,1,540,2.49983,-1.0242,0,107.855,28.8,
1505,1,SBT2050,2,4,,1,589,2.49987,-0.9075,0,120.972,28.8,
1505,1,SBT2050,2,4,,1,638,2.49996,-0.8114,0,132.649,28.8,
1505,1,SBT2050,2,4,,1,687,2.5,-0.7318,0,143.133,28.7,
1505,1,SBT2050,2,4,,1,736,2.499891,-0.6635,0,152.613,28.5,
1505,1,SBT2050,2,4,,1,785,2.499879,-0.6053,0,161.233,28.3,
1505,1,SBT2050,2,4,,1,834,2.499891,-0.5547,0,169.115,28.1,
1505,1,SBT2050,2,4,,1,883,2.49999,-0.5098,0,176.354,27.9,
1505,1,SBT2050,2,4,,1,932,2.49995,-0.47083,0,183.029,27.7,
1505,1,SBT2050,2,4,,1,981,2.499891,-0.43735,0,189.205,27.5,
1505,1,SBT2050,2,4,,1,1030,2.49999,-0.40813,0,194.953,27.2,
1505,1,SBT2050,2,4,,1,1079,2.50001,-0.38128,0,200.32,27.1,
1505,1,SBT2050,2,4,,1,1128,2.49982,-0.35734,0,205.346,26.9,
1505,1,SBT2050,2,4,,1,1177,2.50013,-0.33662,0,210.068,26.8,
1505,1,SBT2050,2,4,,1,1226,2.499879,-0.31762,0,214.517,26.8,
1505,1,SBT2050,2,4,,1,1275,2.5,-0.3001,0,218.718,26.7,
1505,1,SBT2050,2,4,,1,1324,2.49987,-0.28493,0,222.697,26.6,
1505,1,SBT2050,2,4,,1,1373,2.49993,-0.27052,0,226.475,26.5,
1505,1,SBT2050,2,4,,1,1422,2.499879,-0.25739,0,230.066,26.4,
1505,1,SBT2050,2,4,,1,1471,2.49991,-0.24511,0,233.486,26.3,
1505,1,SBT2050,2,4,,1,1520,2.49997,-0.23455,0,236.747,26.2,
1505,1,SBT2050,2,4,,1,1569,2.4998,-0.22412,0,239.866,26.2,
1505,1,SBT2050,2,4,,1,1618,2.499879,-0.21512,0,242.857,26.1,
1505,1,SBT2050,2,4,,1,1667,2.49983,-0.20683,0,245.729,26,
1505,1,SBT2050,2,4,,1,1716,2.49986,-0.19893,0,248.49,26,
1505,1,SBT2050,2,4,,1,1765,2.49995,-0.19147,0,251.146,25.9,
1505,1,SBT2050,2,4,,1,1814,2.49983,-0.18436,0,253.703,25.9,
1505,1,SBT2050,2,4,,1,1863,2.499903,-0.1775,0,256.166,25.9,
1505,1,SBT2050,2,4,,1,1912,2.50001,-0.17171,0,258.542,25.9,
1505,1,SBT2050,2,4,,1,1961,2.49996,-0.16577,0,260.838,25.8,
1505,1,SBT2050,2,4,,1,2010,2.50006,-0.16029,0,263.057,25.8,
1505,1,SBT2050,2,4,,1,2059,2.49996,-0.15493,0,265.203,25.8,
1505,1,SBT2050,2,4,,1,2108,2.49999,-0.14973,0,267.277,25.8,
1505,1,SBT2050,2,4,,1,2157,2.5,-0.14485,0,269.282,25.7,
1505,1,SBT2050,2,4,,1,2206,2.50001,-0.14015,0,271.222,25.7,
1505,1,SBT2050,2,4,,1,2255,2.49982,-0.13603,0,273.102,25.6,
1505,1,SBT2050,2,4,,1,2304,2.49995,-0.13177,0,274.926,25.6,
1505,1,SBT2050,2,4,,1,2353,2.49996,-0.12768,0,276.694,25.6,
1505,1,SBT2050,2,4,,1,2402,2.50012,-0.12381,0,278.406,25.6,
1505,1,SBT2050,2,4,,1,2451,2.49982,-0.11996,0,280.065,25.6,
1505,1,SBT2050,2,4,,1,2500,2.49995,-0.1164,0,281.674,25.6,
1505,1,SBT2050,2,4,,1,2549,2.49993,-0.11322,0,283.236,25.5,
1505,1,SBT2050,2,4,,1,2598,2.49994,-0.10987,0,284.754,25.5,
1505,1,SBT2050,2,4,,1,2647,2.49994,-0.1068,0,286.23,25.5,
1505,1,SBT2050,2,4,,1,2696,2.5,-0.10383,0,287.663,25.5,
1505,1,SBT2050,2,4,,1,2745,2.49997,-0.10082,0,289.054,25.5,
1505,1,SBT2050,2,4,,1,2794,2.499903,-0.09798,0,290.407,25.5,
1505,1,SBT2050,2,4,,1,2843,2.49993,-0.09529,0,291.722,25.5,
1505,1,SBT2050,2,4,,1,2892,2.499903,-0.09265,0,293.002,25.5,
1505,1,SBT2050,2,4,,1,2941,2.5,-0.09016,0,294.247,25.5,
1505,1,SBT2050,2,4,,1,2990,2.49995,-0.08775,0,295.459,25.4,
1505,1,SBT2050,2,4,,1,3039,2.499903,-0.08533,0,296.637,25.5,
1505,1,SBT2050,2,4,,1,3088,2.500034,-0.08314,0,297.783,25.4,
1505,1,SBT2050,2,4,,1,3137,2.5,-0.0808,0,298.899,25.4,
1505,1,SBT2050,2,4,,1,3186,2.49993,-0.07855,0,299.985,25.3,
1505,1,SBT2050,2,4,,1,3235,2.49997,-0.07669,0,301.043,25.3,
1505,1,SBT2050,2,4,,1,3284,2.49996,-0.07463,0,302.071,25.3,
1505,1,SBT2050,2,4,,1,3333,2.49983,-0.07258,0,303.073,25.2,
1505,1,SBT2050,2,4,,1,3382,2.50007,-0.07082,0,304.048,25.2,
1505,1,SBT2050,2,4,,1,3431,2.50011,-0.06893,0,304.997,25.2,
1505,1,SBT2050,2,4,,1,3480,2.49997,-0.06697,0,305.921,25.1,
1505,1,SBT2050,2,4,,1,3529,2.500022,-0.06511,0,306.82,25.1,
1505,1,SBT2050,2,4,,1,3578,2.49997,-0.06338,0,307.694,25.2,
1505,1,SBT2050,2,4,,1,3627,2.5,-0.06182,0,308.545,25.2,
1505,1,SBT2050,2,4,,1,3676,2.49997,-0.05985,0,309.373,25.2,
1505,1,SBT2050,2,4,,1,3725,2.49996,-0.05818,0,310.179,25.2,
1505,1,SBT2050,2,4,,1,3774,2.499891,-0.0567,0,310.963,25.2,
1505,1,SBT2050,2,4,,1,3823,2.49999,-0.05533,0,311.725,25.2,
1505,1,SBT2050,2,4,,1,3872,2.499879,-0.05377,0,312.466,25.2,
1505,1,SBT2050,2,4,,1,3921,2.49996,-0.05213,0,313.186,25.2,
1505,1,SBT2050,2,4,,1,3970,2.4998,-0.05065,0,313.887,25.2,
1505,1,SBT2050,2,4,,1,4019,2.49996,-0.04944,0,314.569,25.2,
1505,1,SBT2050,2,4,,1,4068,2.49999,-0.04797,0,315.231,25.2,
1505,1,SBT2050,2,4,,1,4117,2.50006,-0.046512,0,315.874,25.2,
1505,1,SBT2050,2,4,,1,4166,2.50008,-0.045393,0,316.5,25.2,
1505,1,SBT2050,2,4,,1,4215,2.49995,-0.044076,0,317.107,25.1,
1505,1,SBT2050,2,4,,1,4264,2.49993,-0.042675,0,317.698,25.2,
1505,1,SBT2050,2,4,,1,4313,2.50006,-0.041528,0,318.272,25.2,
1505,1,SBT2050,2,4,,1,4362,2.49997,-0.040368,0,318.83,25.2,
1505,1,SBT2050,2,4,,1,4411,2.500034,-0.039237,0,319.372,25.1,
1505,1,SBT2050,2,4,,1,4460,2.500022,-0.038048,0,319.898,25.1,
1505,1,SBT2050,2,4,,1,4509,2.49994,-0.036976,0,320.409,25.1,
1505,1,SBT2050,2,4,,1,4558,2.50007,-0.035888,0,320.906,25.1,
1505,1,SBT2050,2,4,,1,4607,2.49995,-0.03482,0,321.388,25.1,
1505,1,SBT2050,2,4,,1,4656,2.49997,-0.03395,0,321.857,25.1,
1505,1,SBT2050,2,4,,1,4705,2.50006,-0.033062,0,322.312,25.1,
1505,1,SBT2050,2,4,,1,4754,2.49995,-0.032081,0,322.755,25.1,
1505,1,SBT2050,2,4,,1,4803,2.50006,-0.031234,0,323.185,25.1,
1505,1,SBT2050,2,4,,1,4852,2.49997,-0.030429,0,323.603,25.1,
1505,1,SBT2050,2,4,,1,4901,2.5003,-0.029413,0,324.009,25.1,
1505,1,SBT2050,2,4,,1,4950,2.49997,-0.028577,0,324.404,25.1,
1505,1,SBT2050,2,4,,1,4999,2.49994,-0.027796,0,324.787,25.1,
1505,1,SBT2050,2,4,,1,5048,2.49996,-0.027042,0,325.16,25.1,
1505,1,SBT2050,2,4,,1,5097,2.49999,-0.026333,0,325.522,25.1,
1505,1,SBT2050,2,4,,1,5146,2.50001,-0.025525,0,325.875,25.2,
1505,1,SBT2050,2,4,,1,5195,2.50011,-0.02497,0,326.217,25.1,
1505,1,SBT2050,2,4,,1,5244,2.49986,-0.024034,0,326.55,25.1,
1505,1,SBT2050,2,4,,1,5293,2.50007,-0.023506,0,326.874,25.1,
1505,1,SBT2050,2,4,,1,5342,2.49996,-0.022757,0,327.188,25.2,
1505,1,SBT2050,2,4,,1,5391,2.49987,-0.022126,0,327.495,25.1,
1505,1,SBT2050,2,4,,1,5440,2.500034,-0.02168,0,327.793,25.1,
1505,1,SBT2050,2,4,,1,5489,2.49994,-0.021,0,328.082,25.1,
1505,1,SBT2050,2,4,,1,5538,2.50001,-0.020501,0,328.364,25.1,
1505,1,SBT2050,2,4,,1,5587,2.500034,-0.019858,0,328.638,25.1,
1505,1,SBT2050,2,4,,1,5636,2.49994,-0.019189,0,328.904,25,
1505,1,SBT2050,2,4,,1,5685,2.49991,-0.018646,0,329.163,25,
1505,1,SBT2050,2,4,,1,5734,2.5,-0.018223,0,329.415,24.9,
1505,1,SBT2050,2,4,,1,5783,2.49995,-0.017481,0,329.66,24.9,
1505,1,SBT2050,2,4,,1,5832,2.49996,-0.017179,0,329.898,24.9,
1505,1,SBT2050,2,4,,1,5881,2.50009,-0.016786,0,330.13,24.9,
1505,1,SBT2050,2,4,,1,5930,2.499903,-0.016214,0,330.355,25,
1505,1,SBT2050,2,4,,1,5979,2.50001,-0.015925,0,330.574,25,
1505,1,SBT2050,2,4,,1,6028,2.49999,-0.015509,0,330.787,25,
1505,1,SBT2050,2,4,,1,6077,2.49995,-0.015087,0,330.994,25,
1505,1,SBT2050,2,4,,1,6126,2.49996,-0.014612,0,331.195,25,
1505,1,SBT2050,2,4,,1,6175,2.50014,-0.014227,0,331.39,25,
1505,1,SBT2050,2,4,,1,6224,2.50006,-0.013751,0,331.581,25,
1505,1,SBT2050,2,4,,1,6273,2.500034,-0.013476,0,331.767,25,
1505,1,SBT2050,2,4,,1,6322,2.5,-0.013199,0,331.947,25,
1505,1,SBT2050,2,4,,1,6371,2.500034,-0.012757,0,332.123,25,
1505,1,SBT2050,2,4,,1,6420,2.49999,-0.012399,0,332.294,25,
1505,1,SBT2050,2,4,,1,6469,2.500034,-0.011928,0,332.461,25.1,
1505,1,SBT2050,2,4,,1,6518,2.49996,-0.011557,0,332.624,25,
1505,1,SBT2050,2,4,,1,6567,2.49999,-0.011509,0,332.782,25,
1505,1,SBT2050,2,4,,1,6616,2.49999,-0.011286,0,332.937,25,
1505,1,SBT2050,2,4,,1,6665,2.500046,-0.010842,0,333.087,25,
1505,1,SBT2050,2,4,,1,6714,2.500022,-0.010531,0,333.233,25,
1505,1,SBT2050,2,4,,1,6763,2.49995,-0.010386,0,333.376,25,
1505,1,SBT2050,2,4,,2,6811,3.36062,2.9356,25.196,333.425,25.2,
1505,1,SBT2050,2,4,,2,6860,3.55882,2.9361,65.158,333.425,25.6,
1505,1,SBT2050,2,4,,2,6909,3.64834,2.9361,105.119,333.425,26.1,
1505,1,SBT2050,2,4,,2,6958,3.67064,2.9361,145.081,333.425,26.7,
1505,1,SBT2050,2,4,,2,7007,3.68642,2.9358,185.042,333.425,27.3,
1505,1,SBT2050,2,4,,2,7056,3.70225,2.9359,225.004,333.425,27.7,
1505,1,SBT2050,2,4,,2,7105,3.71765,2.9356,264.965,333.425,28.1,
1505,1,SBT2050,2,4,,2,7154,3.73164,2.9363,304.926,333.425,28.4,
1505,1,SBT2050,2,4,,2,7203,3.74403,2.936,344.888,333.425,28.8,
1505,1,SBT2050,2,4,,2,7252,3.75457,2.9362,384.849,333.425,28.9,
1505,1,SBT2050,2,4,,2,7301,3.76327,2.9357,424.81,333.425,29.1,
1505,1,SBT2050,2,4,,2,7350,3.77117,2.9359,464.772,333.425,29.2,
1505,1,SBT2050,2,4,,2,7399,3.77877,2.9358,504.733,333.425,29.3,
1505,1,SBT2050,2,4,,2,7448,3.78667,2.9357,544.695,333.425,29.4,
1505,1,SBT2050,2,4,,2,7497,3.79491,2.936,584.656,333.425,29.4,
1505,1,SBT2050,2,4,,2,7546,3.80334,2.9359,624.618,333.425,29.4,
1505,1,SBT2050,2,4,,2,7595,3.81224,2.9362,664.579,333.425,29.5,
1505,1,SBT2050,2,4,,2,7644,3.8212,2.9358,704.541,333.425,29.5,
1505,1,SBT2050,2,4,,2,7693,3.83013,2.9364,744.502,333.425,29.5,
1505,1,SBT2050,2,4,,2,7742,3.83928,2.936,784.464,333.425,29.5,
1505,1,SBT2050,2,4,,2,7791,3.84842,2.9362,824.425,333.425,29.5,
1505,1,SBT2050,2,4,,2,7840,3.85831,2.9355,864.387,333.425,29.4,
1505,1,SBT2050,2,4,,2,7889,3.86845,2.9357,904.348,333.425,29.4,
1505,1,SBT2050,2,4,,2,7938,3.87882,2.9359,944.31,333.425,29.4,
1505,1,SBT2050,2,4,,2,7987,3.89014,2.9359,984.271,333.425,29.3,
1505,1,SBT2050,2,4,,2,8036,3.90141,2.9361,1024.233,333.425,29.3,
1505,1,SBT2050,2,4,,2,8085,3.91333,2.9363,1064.194,333.425,29.4,
1505,1,SBT2050,2,4,,2,8134,3.92542,2.9358,1104.156,333.425,29.4,
1505,1,SBT2050,2,4,,2,8183,3.93795,2.9359,1144.117,333.425,29.4,
1505,1,SBT2050,2,4,,2,8232,3.95138,2.9356,1184.079,333.425,29.5,
1505,1,SBT2050,2,4,,2,8281,3.96491,2.9361,1224.04,333.425,29.5,
1505,1,SBT2050,2,4,,2,8330,3.97845,2.9359,1264.001,333.425,29.6,
1505,1,SBT2050,2,4,,2,8379,3.992206,2.9357,1303.963,333.425,29.7,
1505,1,SBT2050,2,4,,2,8428,4.00658,2.9358,1343.924,333.425,29.7,
1505,1,SBT2050,2,4,,2,8477,4.02053,2.9361,1383.885,333.425,29.8,
1505,1,SBT2050,2,4,,2,8526,4.035466,2.936,1423.847,333.425,29.8,
1505,1,SBT2050,2,4,,2,8575,4.05038,2.936,1463.808,333.425,29.8,
1505,1,SBT2050,2,4,,2,8624,4.06497,2.9364,1503.77,333.425,29.9,
1505,1,SBT2050,2,4,,2,8673,4.08021,2.9356,1543.731,333.425,29.9,
1505,1,SBT2050,2,4,,2,8722,4.09558,2.9359,1583.692,333.425,30,
1505,1,SBT2050,2,4,,2,8771,4.11116,2.9355,1623.654,333.425,30,
1505,1,SBT2050,2,4,,2,8820,4.126648,2.9363,1663.615,333.425,30,
1505,1,SBT2050,2,4,,2,8869,4.14254,2.9356,1703.577,333.425,30,
1505,1,SBT2050,2,4,,2,8918,4.15004,2.8037,1742.994,333.425,30.1,
1505,1,SBT2050,2,4,,2,8967,4.15007,2.6251,1779.898,333.425,30.1,
1505,1,SBT2050,2,4,,2,9016,4.15008,2.4683,1814.568,333.425,29.9,
1505,1,SBT2050,2,4,,2,9065,4.15014,2.3193,1847.145,333.425,29.8,
1505,1,SBT2050,2,4,,2,9114,4.14993,2.1776,1877.746,333.425,29.6,
1505,1,SBT2050,2,4,,2,9163,4.15004,2.0481,1906.492,333.425,29.4,
1505,1,SBT2050,2,4,,2,9212,4.15004,1.9269,1933.522,333.425,29.1,
1505,1,SBT2050,2,4,,2,9261,4.15004,1.8134,1958.969,333.425,28.9,
1505,1,SBT2050,2,4,,2,9310,4.149952,1.7111,1982.945,333.425,28.7,
1505,1,SBT2050,2,4,,2,9359,4.149964,1.6153,2005.575,333.425,28.4,
1505,1,SBT2050,2,4,,2,9408,4.15015,1.5263,2026.949,333.425,28.2,
1505,1,SBT2050,2,4,,2,9457,4.149976,1.4469,2047.165,333.425,28,
1505,1,SBT2050,2,4,,2,9506,4.149952,1.3705,2066.317,333.425,27.8,
1505,1,SBT2050,2,4,,2,9555,4.14993,1.3013,2084.488,333.425,27.7,
1505,1,SBT2050,2,4,,2,9604,4.149988,1.2368,2101.754,333.425,27.5,
1505,1,SBT2050,2,4,,2,9653,4.15008,1.1769,2118.175,333.425,27.3,
1505,1,SBT2050,2,4,,2,9702,4.15007,1.1202,2133.806,333.425,27.2,
1505,1,SBT2050,2,4,,2,9751,4.14988,1.0686,2148.698,333.425,27.1,
1505,1,SBT2050,2,4,,2,9800,4.149964,1.02,2162.909,333.425,27,
1505,1,SBT2050,2,4,,2,9849,4.15008,0.9746,2176.484,333.425,26.9,
1505,1,SBT2050,2,4,,2,9898,4.15038,0.9322,2189.463,333.425,26.8,
1505,1,SBT2050,2,4,,2,9947,4.15011,0.892,2201.881,333.425,26.6,
1505,1,SBT2050,2,4,,2,9996,4.15019,0.8535,2213.756,333.425,26.5,
1505,1,SBT2050,2,4,,2,10045,4.149988,0.8172,2225.129,333.425,26.5,
1505,1,SBT2050,2,4,,2,10094,4.15031,0.7844,2236.027,333.425,26.4,
1505,1,SBT2050,2,4,,2,10143,4.14983,0.753,2246.496,333.425,26.3,
1505,1,SBT2050,2,4,,2,10192,4.14993,0.7231,2256.543,333.425,26.2,
1505,1,SBT2050,2,4,,2,10241,4.149976,0.6942,2266.188,333.425,26.1,
1505,1,SBT2050,2,4,,2,10290,4.15002,0.6672,2275.452,333.425,25.9,
1505,1,SBT2050,2,4,,2,10339,4.15036,0.6417,2284.362,333.425,25.9,
1505,1,SBT2050,2,4,,2,10388,4.15025,0.6185,2292.943,333.425,25.8,
1505,1,SBT2050,2,4,,2,10437,4.15014,0.5952,2301.205,333.425,25.8,
1505,1,SBT2050,2,4,,2,10486,4.15002,0.5745,2309.164,333.425,25.7,
1505,1,SBT2050,2,4,,2,10535,4.15014,0.5533,2316.84,333.425,25.7,
1505,1,SBT2050,2,4,,2,10584,4.150226,0.5341,2324.246,333.425,25.7,
1505,1,SBT2050,2,4,,2,10633,4.15002,0.5167,2331.39,333.425,25.7,
1505,1,SBT2050,2,4,,2,10682,4.15,0.4994,2338.295,333.425,25.7,
1505,1,SBT2050,2,4,,2,10731,4.15014,0.4819,2344.967,333.425,25.7,
1505,1,SBT2050,2,4,,2,10780,4.15008,0.46579,2351.415,333.425,25.6,
1505,1,SBT2050,2,4,,2,10829,4.15001,0.45038,2357.652,333.425,25.6,
1505,1,SBT2050,2,4,,2,10878,4.15008,0.43804,2363.692,333.425,25.6,
1505,1,SBT2050,2,4,,2,10927,4.15013,0.42369,2369.55,333.425,25.5,
1505,1,SBT2050,2,4,,2,10976,4.14984,0.40957,2375.223,333.425,25.5,
1505,1,SBT2050,2,4,,2,11025,4.15002,0.39744,2380.715,333.425,25.5,
1505,1,SBT2050,2,4,,2,11074,4.149976,0.38608,2386.045,333.425,25.5,
1505,1,SBT2050,2,4,,2,11123,4.14992,0.37417,2391.22,333.425,25.5,
1505,1,SBT2050,2,4,,2,11172,4.14993,0.36346,2396.243,333.425,25.5,
1505,1,SBT2050,2,4,,2,11221,4.15001,0.35285,2401.12,333.425,25.4,
1505,1,SBT2050,2,4,,2,11270,4.15001,0.34315,2405.859,333.425,25.4,
1505,1,SBT2050,2,4,,2,11319,4.14988,0.33449,2410.473,333.425,25.4,
1505,1,SBT2050,2,4,,2,11368,4.15019,0.32491,2414.959,333.425,25.4,
1505,1,SBT2050,2,4,,2,11417,4.15006,0.31691,2419.325,333.425,25.3,
1505,1,SBT2050,2,4,,2,11466,4.15012,0.30886,2423.578,333.425,25.3,
1505,1,SBT2050,2,4,,2,11515,4.15011,0.30117,2427.719,333.425,25.4,
1505,1,SBT2050,2,4,,2,11564,4.149976,0.29239,2431.758,333.425,25.3,
1505,1,SBT2050,2,4,,2,11613,4.15036,0.28488,2435.695,333.425,25.3,
1505,1,SBT2050,2,4,,2,11662,4.1501,0.27889,2439.532,333.425,25.3,
1505,1,SBT2050,2,4,,2,11711,4.15012,0.27187,2443.276,333.425,25.3,
1505,1,SBT2050,2,4,,2,11760,4.15025,0.26527,2446.932,333.425,25.3,
1505,1,SBT2050,2,4,,2,11809,4.150274,0.25963,2450.501,333.425,25.3,
1505,1,SBT2050,2,4,,2,11858,4.14988,0.25365,2453.996,333.425,25.3,
1505,1,SBT2050,2,4,,2,11907,4.15006,0.2477,2457.408,333.425,25.3,
1505,1,SBT2050,2,4,,2,11956,4.14994,0.24182,2460.741,333.425,25.2,
1505,1,SBT2050,2,4,,2,12005,4.15033,0.23685,2463.999,333.425,25.2,
1505,1,SBT2050,2,4,,2,12054,4.15011,0.23195,2467.193,333.425,25.2,
1505,1,SBT2050,2,4,,2,12103,4.14979,0.22725,2470.317,333.425,25.3,
1505,1,SBT2050,2,4,,2,12152,4.15005,0.22264,2473.376,333.425,25.3,
1505,1,SBT2050,2,4,,2,12201,4.15006,0.21767,2476.373,333.425,25.3,
1505,1,SBT2050,2,4,,2,12250,4.149964,0.21367,2479.305,333.425,25.3,
1505,1,SBT2050,2,4,,2,12299,4.149964,0.20897,2482.182,333.425,25.3,
1505,1,SBT2050,2,4,,2,12348,4.15019,0.20486,2485.009,333.425,25.3,
1505,1,SBT2050,2,4,,2,12397,4.15007,0.20163,2487.773,333.425,25.3,
1505,1,SBT2050,2,4,,2,12446,4.1501,0.19713,2490.487,333.425,25.3,
1505,1,SBT2050,2,4,,2,12495,4.15007,0.19422,2493.149,333.425,25.2,
1505,1,SBT2050,2,4,,2,12544,4.15002,0.1897,2495.762,333.425,25.2,
1505,1,SBT2050,2,4,,2,12593,4.14983,0.18666,2498.321,333.425,25.1,
1505,1,SBT2050,2,4,,2,12642,4.149976,0.18293,2500.84,333.425,25.1,
1505,1,SBT2050,2,4,,2,12691,4.1501,0.17941,2503.303,333.425,25.1,
1505,1,SBT2050,2,4,,2,12740,4.15013,0.17603,2505.724,333.425,25.1,
1505,1,SBT2050,2,4,,2,12789,4.15008,0.17286,2508.099,333.425,25,
1505,1,SBT2050,2,4,,2,12838,4.1503,0.16957,2510.429,333.425,25,
1505,1,SBT2050,2,4,,2,12887,4.15,0.16705,2512.719,333.425,25,
1505,1,SBT2050,2,4,,2,12936,4.15011,0.16355,2514.968,333.425,25,
1505,1,SBT2050,2,4,,2,12985,4.149952,0.1614,2517.182,333.425,25.1,
1505,1,SBT2050,2,4,,2,13034,4.14989,0.15861,2519.365,333.425,25.1,
1505,1,SBT2050,2,4,,2,13083,4.15017,0.15573,2521.507,333.425,25.1,
1505,1,SBT2050,2,4,,2,13132,4.150262,0.15314,2523.611,333.425,25.1,
1505,1,SBT2050,2,4,,2,13181,4.15004,0.15044,2525.677,333.425,25.1,
1505,1,SBT2050,2,4,,2,13230,4.15006,0.14827,2527.713,333.425,25.1,
1505,1,SBT2050,2,4,,2,13279,4.15005,0.14542,2529.711,333.425,25.1,
1505,1,SBT2050,2,4,,2,13328,4.15006,0.14286,2531.673,333.425,25.1,
1505,1,SBT2050,2,4,,2,13377,4.15006,0.14061,2533.606,333.425,25.1,
1505,1,SBT2050,2,4,,2,13426,4.14989,0.1381,2535.504,333.425,25.1,
1505,1,SBT2050,2,4,,2,13475,4.14988,0.13592,2537.368,333.425,25.1,
1505,1,SBT2050,2,4,,2,13524,4.15017,0.13402,2539.204,333.425,25.1,
1505,1,SBT2050,2,4,,2,13573,4.15007,0.13137,2541.014,333.425,25.1,
1505,1,SBT2050,2,4,,2,13622,4.15004,0.12965,2542.794,333.425,25.1,
1505,1,SBT2050,2,4,,2,13671,4.15007,0.12662,2544.536,333.425,25.1,
1505,1,SBT2050,2,4,,2,13720,4.14988,0.125,2546.25,333.425,25.1,
1505,1,SBT2050,2,4,,2,13769,4.1502,0.12298,2547.939,333.425,25.1,
1505,1,SBT2050,2,4,,2,13818,4.149988,0.12127,2549.597,333.425,25.1,
1505,1,SBT2050,2,4,,2,13867,4.15008,0.11868,2551.235,333.425,25.1,
1505,1,SBT2050,2,4,,2,13916,4.149976,0.1176,2552.844,333.425,25,
1505,1,SBT2050,2,4,,2,13965,4.14979,0.11663,2554.432,333.425,25.1,
1505,1,SBT2050,2,4,,2,14014,4.15008,0.11386,2555.995,333.425,25,
1505,1,SBT2050,2,4,,2,14063,4.14982,0.11171,2557.532,333.425,25.1,
1505,1,SBT2050,2,4,,2,14112,4.14993,0.11001,2559.041,333.425,25.1,
1505,1,SBT2050,2,4,,2,14161,4.15005,0.10839,2560.53,333.425,25.1,
1505,1,SBT2050,2,4,,2,14210,4.149952,0.10651,2561.995,333.425,25,
1505,1,SBT2050,2,4,,2,14259,4.14984,0.10523,2563.436,333.425,25,
1505,1,SBT2050,2,4,,2,14308,4.15012,0.10331,2564.855,333.425,25,
1505,1,SBT2050,2,4,,2,14357,4.14974,0.10212,2566.252,333.425,25.1,
1505,1,SBT2050,2,4,,2,14406,4.1499,0.10032,2567.628,333.425,25.1,
1505,1,SBT2050,2,4,,2,14455,4.15015,0.09912,2568.985,333.425,25.1,
1505,1,SBT2050,2,4,,2,14504,4.14989,0.09744,2570.324,333.425,25.1,
1505,1,SBT2050,2,4,,2,14553,4.1498,0.09617,2571.641,333.425,25.1,
1505,1,SBT2050,2,4,,2,14602,4.14982,0.09477,2572.939,333.425,25.1,
1505,1,SBT2050,2,4,,2,14651,4.15018,0.09304,2574.22,333.425,25.1,
1505,1,SBT2050,2,4,,2,14700,4.15021,0.09174,2575.482,333.425,25.2,
1505,1,SBT2050,2,4,,2,14749,4.14992,0.09066,2576.725,333.425,25.1,
1505,1,SBT2050,2,4,,2,14798,4.149988,0.09015,2577.952,333.425,25.1,
1505,1,SBT2050,2,4,,2,14847,4.149964,0.08813,2579.164,333.425,25.1,
1505,1,SBT2050,2,4,,2,14896,4.14977,0.08683,2580.354,333.425,25,
1505,1,SBT2050,2,4,,2,14945,4.14984,0.08546,2581.525,333.425,25,
1505,1,SBT2050,2,4,,2,14994,4.15004,0.08411,2582.678,333.425,24.9,
1505,1,SBT2050,2,4,,2,15043,4.15,0.08308,2583.816,333.425,24.9,
1505,1,SBT2050,2,4,,2,15092,4.149988,0.08186,2584.938,333.425,24.9,
1505,1,SBT2050,2,4,,2,15141,4.15007,0.0809,2586.044,333.425,24.9,
1505,1,SBT2050,2,4,,2,15190,4.14987,0.0796,2587.139,333.425,25,
1505,1,SBT2050,2,4,,2,15239,4.15007,0.07816,2588.216,333.425,24.9,
1505,1,SBT2050,2,4,,2,15288,4.15014,0.07735,2589.277,333.425,25,
1505,1,SBT2050,2,4,,2,15337,4.1499,0.07658,2590.324,333.425,25,
1505,1,SBT2050,2,4,,2,15386,4.15,0.0757,2591.361,333.425,25,
1505,1,SBT2050,2,4,,2,15435,4.149988,0.07459,2592.384,333.425,25.1,
1505,1,SBT2050,2,4,,2,15484,4.15007,0.07362,2593.392,333.425,25,
1505,1,SBT2050,2,4,,2,15533,4.14984,0.07299,2594.387,333.425,25,
1505,1,SBT2050,2,4,,2,15582,4.15008,0.07155,2595.371,333.425,25,
1505,1,SBT2050,2,4,,2,15631,4.14973,0.07093,2596.342,333.425,25,
1505,1,SBT2050,2,4,,2,15680,4.1499,0.06982,2597.298,333.425,25,
1505,1,SBT2050,2,4,,2,15729,4.14994,0.06906,2598.244,333.425,25,
1505,1,SBT2050,2,4,,2,15778,4.14979,0.06873,2599.177,333.425,25,
1505,1,SBT2050,2,4,,2,15827,4.15,0.06677,2600.097,333.425,25,
1505,1,SBT2050,2,4,,2,15876,4.15004,0.06591,2601.005,333.425,25,
1505,1,SBT2050,2,4,,2,15925,4.14987,0.06519,2601.899,333.425,25,
1505,1,SBT2050,2,4,,2,15974,4.149952,0.06454,2602.785,333.425,25,
1505,1,SBT2050,2,4,,2,16023,4.15002,0.0641,2603.661,333.425,25,
1505,1,SBT2050,2,4,,2,16072,4.15005,0.06291,2604.523,333.425,25,
1505,1,SBT2050,2,4,,2,16121,4.15012,0.06227,2605.375,333.425,25,
1505,1,SBT2050,2,4,,2,16170,4.15014,0.06104,2606.215,333.425,25,
1505,1,SBT2050,2,4,,2,16219,4.15013,0.06054,2607.046,333.425,25.1,
1505,1,SBT2050,2,4,,2,16268,4.149952,0.05996,2607.865,333.425,25,
1505,1,SBT2050,2,4,,2,16317,4.14973,0.05969,2608.673,333.425,25,
1505,1,SBT2050,2,4,,2,16366,4.14986,0.05813,2609.474,333.425,25.1,
1505,1,SBT2050,2,4,,2,16415,4.149952,0.05778,2610.264,333.425,25,
1505,1,SBT2050,2,4,,2,16464,4.15006,0.05711,2611.046,333.425,25,
1505,1,SBT2050,2,4,,2,16513,4.15005,0.05624,2611.819,333.425,25,
1505,1,SBT2050,2,4,,2,16562,4.15,0.05601,2612.585,333.425,25,
1505,1,SBT2050,2,4,,2,16611,4.14981,0.05514,2613.34,333.425,25,
1505,1,SBT2050,2,4,,2,16660,4.14983,0.0546,2614.086,333.425,25,
1505,1,SBT2050,2,4,,2,16709,4.15012,0.05389,2614.822,333.425,25.1,
1505,1,SBT2050,2,4,,2,16758,4.1499,0.05325,2615.551,333.425,25.1,
1505,1,SBT2050,2,4,,2,16807,4.15013,0.05301,2616.274,333.425,25.1,
1505,1,SBT2050,2,4,,2,16856,4.15014,0.05228,2616.989,333.425,25.1,
1505,1,SBT2050,2,4,,2,16905,4.149988,0.05141,2617.695,333.425,25.1,
1505,1,SBT2050,2,4,,2,16954,4.15021,0.05149,2618.393,333.425,25.1,
1505,1,SBT2050,2,4,,2,17003,4.149964,0.0501,2619.086,333.425,25.1,
1505,1,SBT2050,2,4,,2,17052,4.15012,0.04958,2619.769,333.425,25.1,
1505,1,SBT2050,2,4,,2,17101,4.15007,0.04928,2620.44,333.425,25.1,
1505,1,SBT2050,2,4,,2,17150,4.14979,0.04884,2621.104,333.425,25.1,
1505,1,SBT2050,2,4,,2,17199,4.15032,0.04778,2621.76,333.425,25.1,
1505,1,SBT2050,2,4,,2,17248,4.14987,0.04802,2622.411,333.425,25,
1505,1,SBT2050,2,4,,2,17297,4.15007,0.046423,2623.057,333.425,24.9,
1505,1,SBT2050,2,4,,2,17346,4.149952,0.046605,2623.689,333.425,24.9,
1505,1,SBT2050,2,4,,2,17395,4.14986,0.045942,2624.318,333.425,24.9,
1505,1,SBT2050,2,4,,2,17444,4.15002,0.045338,2624.937,333.425,24.9,
1505,1,SBT2050,2,4,,2,17493,4.14989,0.045337,2625.553,333.425,24.9,
1505,1,SBT2050,2,4,,2,17542,4.14986,0.044302,2626.16,333.425,24.9,
1505,1,SBT2050,2,4,,2,17591,4.15002,0.044219,2626.763,333.425,24.9,
1505,1,SBT2050,2,4,,2,17640,4.15002,0.043781,2627.361,333.425,24.9,
1505,1,SBT2050,2,4,,2,17689,4.14988,0.043374,2627.953,333.425,25,
1505,1,SBT2050,2,4,,2,17738,4.149952,0.04279,2628.538,333.425,25,
1505,1,SBT2050,2,4,,2,17787,4.14986,0.042243,2629.116,333.425,25,
1505,1,SBT2050,2,4,,2,17836,4.15,0.041695,2629.687,333.425,25,
1505,1,SBT2050,2,4,,2,17885,4.14987,0.041525,2630.252,333.425,25,
1505,1,SBT2050,2,4,,2,17934,4.15002,0.04067,2630.813,333.425,25,
1505,1,SBT2050,2,4,,2,17983,4.149976,0.040648,2631.367,333.425,25,
1505,1,SBT2050,2,4,,2,18032,4.149964,0.040084,2631.915,333.425,25,
1505,1,SBT2050,2,4,,2,18081,4.15011,0.039881,2632.461,333.425,25,
1505,1,SBT2050,2,4,,2,18130,4.14992,0.039646,2633.002,333.425,25,
1505,1,SBT2050,2,4,,2,18179,4.15019,0.039208,2633.538,333.425,25,
1505,1,SBT2050,2,4,,2,18228,4.15013,0.03911,2634.073,333.425,25,
1505,1,SBT2050,2,4,,2,18277,4.15011,0.038225,2634.6,333.425,25,
1505,1,SBT2050,2,4,,2,18326,4.1501,0.037861,2635.118,333.425,25,
1505,1,SBT2050,2,4,,2,18375,4.14986,0.037744,2635.627,333.425,25,
1505,1,SBT2050,2,4,,2,18424,4.1499,0.037192,2636.132,333.425,25,
1505,1,SBT2050,2,4,,2,18473,4.15001,0.036502,2636.633,333.425,25,
1505,1,SBT2050,2,4,,2,18522,4.15007,0.036321,2637.128,333.425,25,
1505,1,SBT2050,2,4,,2,18571,4.1502,0.035711,2637.618,333.425,25,
1505,1,SBT2050,2,4,,2,18620,4.15025,0.035558,2638.106,333.425,25,
1505,1,SBT2050,2,4,,2,18669,4.15014,0.035029,2638.586,333.425,25,
1505,1,SBT2050,2,4,,2,18718,4.15004,0.034853,2639.062,333.425,25,
1505,1,SBT2050,2,4,,2,18767,4.14994,0.034302,2639.535,333.425,25,
1505,1,SBT2050,2,4,,2,18816,4.14976,0.034322,2640.004,333.425,25,
1505,1,SBT2050,2,4,,2,18865,4.14994,0.033996,2640.467,333.425,25,
1505,1,SBT2050,2,4,,2,18914,4.15013,0.034204,2640.927,333.425,25,
1505,1,SBT2050,2,4,,2,18963,4.14982,0.033526,2641.383,333.425,25,
1505,1,SBT2050,2,4,,2,19012,4.15001,0.032488,2641.832,333.425,25,
1505,1,SBT2050,2,4,,2,19061,4.1499,0.032485,2642.277,333.425,25,
1505,1,SBT2050,2,4,,2,19110,4.149678,0.032124,2642.716,333.425,25,
1505,1,SBT2050,2,4,,2,19159,4.15017,0.031957,2643.151,333.425,25,
1505,1,SBT2050,2,4,,2,19208,4.14986,0.031807,2643.584,333.425,25.1,
1505,1,SBT2050,2,4,,2,19257,4.149666,0.031414,2644.014,333.425,25.1,
1505,1,SBT2050,2,4,,2,19306,4.14988,0.030944,2644.435,333.425,25.1,
1505,1,SBT2050,2,4,,2,19355,4.15002,0.030515,2644.854,333.425,25.1,
1505,1,SBT2050,2,4,,2,19404,4.15005,0.030271,2645.271,333.425,25.1,
1505,1,SBT2050,2,4,,2,19453,4.149976,0.030292,2645.683,333.425,25.1,
1505,1,SBT2050,2,4,,2,19502,4.1503,0.029714,2646.093,333.425,25.1,
1505,1,SBT2050,2,4,,2,19551,4.1499,0.03028,2646.5,333.425,25.1,
1505,1,SBT2050,2,4,,2,19600,4.15006,0.028969,2646.909,333.425,25,
1505,1,SBT2050,2,4,,2,19649,4.15001,0.028754,2647.303,333.425,25,
1505,1,SBT2050,2,4,,2,19698,4.1499,0.028904,2647.695,333.425,24.9,
1505,1,SBT2050,2,4,,2,19747,4.149988,0.028625,2648.084,333.425,24.9,
1505,1,SBT2050,2,4,,2,19796,4.15015,0.027959,2648.477,333.425,24.9,
1505,1,SBT2050,2,4,,2,19845,4.149988,0.028123,2648.858,333.425,24.9,
1505,1,SBT2050,2,4,,2,19894,4.14993,0.02815,2649.237,333.425,24.9,
1505,1,SBT2050,2,4,,2,19943,4.14989,0.02753,2649.613,333.425,24.9,
1505,1,SBT2050,2,4,,2,19992,4.15015,0.027492,2649.987,333.425,24.9,
1505,1,SBT2050,2,4,,2,20041,4.15002,0.027446,2650.363,333.425,24.9,
1505,1,SBT2050,2,4,,2,20090,4.15,0.026878,2650.734,333.425,25,
1505,1,SBT2050,2,4,,2,20139,4.149952,0.026741,2651.1,333.425,25,
1505,1,SBT2050,2,4,,2,20188,4.14976,0.026729,2651.464,333.425,25,
1505,1,SBT2050,2,4,,2,20237,4.15012,0.026133,2651.822,333.425,25,
1505,1,SBT2050,2,4,,2,20286,4.15018,0.025367,2652.177,333.425,25,
1505,1,SBT2050,2,4,,2,20335,4.15005,0.026239,2652.529,333.425,25,
1505,1,SBT2050,2,4,,2,20384,4.14986,0.025534,2652.881,333.425,25,
1505,1,SBT2050,2,4,,2,20433,4.149988,0.024841,2653.226,333.425,25,
1505,1,SBT2050,2,4,,2,20482,4.15025,0.024763,2653.564,333.425,25,
1505,1,SBT2050,2,4,,2,20531,4.14988,0.02463,2653.901,333.425,25,
1505,1,SBT2050,2,4,,2,20580,4.149964,0.024525,2654.235,333.425,25,
1505,1,SBT2050,2,4,,2,20629,4.14988,0.024566,2654.569,333.425,25,
1505,1,SBT2050,2,4,,2,20678,4.14993,0.024228,2654.897,333.425,25,
1505,1,SBT2050,2,4,,2,20727,4.14971,0.023934,2655.223,333.425,25,
1505,1,SBT2050,2,4,,2,20776,4.15005,0.023732,2655.548,333.425,25,
1505,1,SBT2050,2,4,,2,20825,4.15,0.023489,2655.868,333.425,25,
1505,1,SBT2050,2,4,,2,20874,4.149964,0.023343,2656.188,333.425,25,
1505,1,SBT2050,2,4,,2,20923,4.15015,0.023092,2656.505,333.425,25,
1505,1,SBT2050,2,4,,2,20972,4.14993,0.023154,2656.818,333.425,25,
1505,1,SBT2050,2,4,,2,21021,4.15001,0.023025,2657.129,333.425,25,
1505,1,SBT2050,2,4,,2,21070,4.14971,0.022932,2657.439,333.425,25,
1505,1,SBT2050,2,4,,2,21119,4.15001,0.022201,2657.745,333.425,24.9,
1505,1,SBT2050,2,4,,2,21168,4.14963,0.022857,2658.049,333.425,25,
1505,1,SBT2050,2,4,,2,21217,4.15006,0.022018,2658.354,333.425,25,
1505,1,SBT2050,2,4,,2,21266,4.14984,0.022016,2658.654,333.425,25,
1505,1,SBT2050,2,4,,2,21315,4.15001,0.022217,2658.953,333.425,25,
1505,1,SBT2050,2,4,,2,21364,4.149964,0.021648,2659.248,333.425,25,
1505,1,SBT2050,2,4,,2,21413,4.14987,0.02136,2659.543,333.425,25,
1505,1,SBT2050,2,4,,2,21462,4.15021,0.021153,2659.835,333.425,25,
1505,1,SBT2050,2,4,,2,21511,4.15012,0.021583,2660.124,333.425,25,
1505,1,SBT2050,2,4,,2,21560,4.1499,0.021209,2660.408,333.425,25,
1505,1,SBT2050,2,4,,2,21609,4.14994,0.02075,2660.692,333.425,25,
1505,1,SBT2050,2,4,,2,21658,4.14969,0.02054,2660.973,333.425,25,
1505,1,SBT2050,2,4,,2,21707,4.15021,0.020311,2661.251,333.425,25,
1505,1,SBT2050,2,4,,2,21756,4.14982,0.020387,2661.527,333.425,25,
1505,1,SBT2050,2,4,,2,21805,4.15004,0.0199,2661.8,333.425,25.1,
1505,1,SBT2050,2,4,,2,21854,4.15019,0.019923,2662.072,333.425,25.1,
1505,1,SBT2050,2,4,,2,21903,4.14979,0.020258,2662.345,333.425,25.1,
1505,1,SBT2050,2,4,,2,21952,4.15019,0.019615,2662.613,333.425,25,
1505,1,SBT2050,2,4,,2,22001,4.15002,0.019564,2662.88,333.425,25,
1505,1,SBT2050,2,4,,2,22050,4.15012,0.019016,2663.144,333.425,25,
1505,1,SBT2050,2,4,,2,22099,4.15018,0.018921,2663.404,333.425,25,
1505,1,SBT2050,2,4,,2,22148,4.14988,0.018766,2663.661,333.425,24.9,
1505,1,SBT2050,2,4,,2,22197,4.14994,0.018388,2663.914,333.425,24.9,
1505,1,SBT2050,2,4,,2,22246,4.14993,0.018506,2664.169,333.425,24.9,
1505,1,SBT2050,2,4,,2,22295,4.149952,0.018431,2664.423,333.425,24.9,
1505,1,SBT2050,2,4,,2,22344,4.15017,0.018259,2664.675,333.425,24.9,
1505,1,SBT2050,2,4,,2,22393,4.1501,0.018246,2664.923,333.425,24.9,
1505,1,SBT2050,2,4,,2,22442,4.15,0.018027,2665.172,333.425,24.9,
1505,1,SBT2050,2,4,,2,22491,4.149964,0.017745,2665.416,333.425,24.9,
1505,1,SBT2050,2,4,,2,22540,4.14989,0.017693,2665.66,333.425,25,
1505,1,SBT2050,2,4,,2,22589,4.14982,0.017736,2665.904,333.425,25,
1505,1,SBT2050,2,4,,2,22638,4.15004,0.017349,2666.142,333.425,25,
1505,1,SBT2050,2,4,,2,22687,4.1499,0.017543,2666.381,333.425,25,
1505,1,SBT2050,2,4,,2,22736,4.15002,0.017352,2666.618,333.425,25,
1505,1,SBT2050,2,4,,2,22785,4.15013,0.01734,2666.856,333.425,25,
1505,1,SBT2050,2,4,,2,22834,4.149952,0.017073,2667.091,333.425,25,
1505,1,SBT2050,2,4,,2,22883,4.14987,0.016826,2667.328,333.425,25,
1505,1,SBT2050,2,4,,2,22932,4.15001,0.01661,2667.557,333.425,25,
1505,1,SBT2050,2,4,,2,22981,4.15,0.016697,2667.785,333.425,25,
1505,1,SBT2050,2,4,,2,23030,4.15019,0.016792,2668.013,333.425,25,
1505,1,SBT2050,2,4,,2,23079,4.15,0.0164,2668.237,333.425,25,
1505,1,SBT2050,2,4,,2,23128,4.14987,0.016571,2668.458,333.425,25,
1505,1,SBT2050,2,4,,2,23177,4.14982,0.016603,2668.682,333.425,25,
1505,1,SBT2050,2,4,,2,23226,4.14993,0.015873,2668.904,333.425,25,
1505,1,SBT2050,2,4,,2,23275,4.14989,0.016342,2669.126,333.425,25,
1505,1,SBT2050,2,4,,2,23324,4.149964,0.01586,2669.343,333.425,25,
1505,1,SBT2050,2,4,,2,23373,4.15002,0.016043,2669.559,333.425,25,
1505,1,SBT2050,2,4,,2,23422,4.15001,0.016133,2669.777,333.425,25,
1505,1,SBT2050,2,4,,2,23471,4.1501,0.015379,2669.994,333.425,25,
1505,1,SBT2050,2,4,,2,23520,4.15007,0.015215,2670.203,333.425,25,
1505,1,SBT2050,2,4,,2,23569,4.1501,0.015405,2670.409,333.425,25,
1505,1,SBT2050,2,4,,2,23618,4.14986,0.015223,2670.618,333.425,25,
1505,1,SBT2050,2,4,,2,23667,4.15007,0.015028,2670.822,333.425,24.9,
1505,1,SBT2050,2,4,,2,23716,4.15033,0.014871,2671.027,333.425,25,
1505,1,SBT2050,2,4,,2,23765,4.15015,0.014933,2671.23,333.425,25,
1505,1,SBT2050,2,4,,2,23814,4.14986,0.014654,2671.433,333.425,25,
1505,1,SBT2050,2,4,,2,23863,4.15008,0.01461,2671.633,333.425,25,
1505,1,SBT2050,2,4,,2,23912,4.15014,0.014237,2671.831,333.425,25,
1505,1,SBT2050,2,4,,2,23961,4.15018,0.01444,2672.03,333.425,25,
1505,1,SBT2050,2,4,,2,24010,4.15002,0.01469,2672.229,333.425,25,
1505,1,SBT2050,2,4,,2,24059,4.15008,0.014627,2672.426,333.425,25,
1505,1,SBT2050,2,4,,2,24108,4.14987,0.014396,2672.624,333.425,25,
1505,1,SBT2050,2,4,,2,24157,4.14988,0.014693,2672.818,333.425,25.1,
1505,1,SBT2050,2,4,,2,24206,4.14989,0.014134,2673.012,333.425,25.1,
1505,1,SBT2050,2,4,,2,24255,4.15017,0.013647,2673.203,333.425,25.1,
1505,1,SBT2050,2,4,,2,24304,4.15005,0.01377,2673.391,333.425,25,
1505,1,SBT2050,2,4,,2,24353,4.15004,0.013933,2673.58,333.425,25,
1505,1,SBT2050,2,4,,2,24402,4.15001,0.014131,2673.767,333.425,25,
1505,1,SBT2050,2,4,,2,24451,4.14976,0.013627,2673.955,333.425,24.9,
1505,1,SBT2050,2,4,,2,24500,4.149988,0.013152,2674.139,333.425,24.9,
1505,1,SBT2050,2,4,,2,24549,4.14977,0.01338,2674.321,333.425,24.9,
1505,1,SBT2050,2,4,,2,24598,4.15013,0.01312,2674.502,333.425,24.9,
1505,1,SBT2050,2,4,,2,24647,4.15004,0.013565,2674.682,333.425,24.9,
1505,1,SBT2050,2,4,,2,24696,4.149952,0.013501,2674.865,333.425,24.9,
1505,1,SBT2050,2,4,,2,24745,4.14987,0.013052,2675.045,333.425,24.9,
1505,1,SBT2050,2,4,,2,24794,4.15021,0.013082,2675.222,333.425,24.9,
1505,1,SBT2050,2,4,,2,24843,4.14955,0.013404,2675.403,333.425,25,
1505,1,SBT2050,2,4,,2,24892,4.15001,0.013073,2675.58,333.425,25,
1505,1,SBT2050,2,4,,2,24941,4.15001,0.012749,2675.753,333.425,25,
1505,1,SBT2050,2,4,,2,24990,4.15006,0.012562,2675.928,333.425,25,
1505,1,SBT2050,2,4,,2,25039,4.15021,0.012341,2676.098,333.425,25,
1505,1,SBT2050,2,4,,2,25088,4.15007,0.012947,2676.271,333.425,24.9,
1505,1,SBT2050,2,4,,2,25137,4.149964,0.012403,2676.444,333.425,25,
1505,1,SBT2050,2,4,,2,25186,4.149964,0.012118,2676.611,333.425,25,
1505,1,SBT2050,2,4,,2,25235,4.1502,0.012244,2676.777,333.425,25,
1505,1,SBT2050,2,4,,2,25284,4.14975,0.012315,2676.942,333.425,25,
1505,1,SBT2050,2,4,,2,25333,4.15001,0.011962,2677.107,333.425,25,
1505,1,SBT2050,2,4,,2,25382,4.149988,0.011824,2677.27,333.425,25,
1505,1,SBT2050,2,4,,2,25431,4.15021,0.011637,2677.434,333.425,25,
1505,1,SBT2050,2,4,,2,25480,4.149964,0.011867,2677.596,333.425,25,
1505,1,SBT2050,2,4,,2,25529,4.15002,0.011481,2677.756,333.425,25,
1505,1,SBT2050,2,4,,2,25578,4.15014,0.011871,2677.916,333.425,25,
1505,1,SBT2050,2,4,,2,25627,4.15007,0.011463,2678.075,333.425,25,
1505,1,SBT2050,2,4,,2,25676,4.15002,0.011598,2678.234,333.425,25,
1505,1,SBT2050,2,4,,2,25725,4.14992,0.011576,2678.39,333.425,25,
1505,1,SBT2050,2,4,,2,25774,4.15,0.011312,2678.545,333.425,25,
1505,1,SBT2050,2,4,,2,25823,4.149988,0.011384,2678.699,333.425,25,
1505,1,SBT2050,2,4,,2,25872,4.15004,0.011376,2678.854,333.425,25,
1505,1,SBT2050,2,4,,2,25921,4.15,0.011188,2679.009,333.425,25,
1505,1,SBT2050,2,4,,2,25970,4.14983,0.011346,2679.161,333.425,25,
1505,1,SBT2050,2,4,,2,26019,4.15011,0.011423,2679.315,333.425,25,
1505,1,SBT2050,2,4,,2,26068,4.150262,0.010659,2679.469,333.425,25,
1505,1,SBT2050,2,4,,2,26117,4.14973,0.011215,2679.618,333.425,25,
1505,1,SBT2050,2,4,,2,26166,4.14984,0.010754,2679.768,333.425,25,
1505,1,SBT2050,2,4,,2,26215,4.149952,0.010812,2679.917,333.425,25.1,
1505,1,SBT2050,2,4,,2,26264,4.1499,0.010891,2680.067,333.425,25,
1505,1,SBT2050,2,4,,2,26313,4.15014,0.010923,2680.216,333.425,25.1,
1505,1,SBT2050,2,4,,2,26362,4.15014,0.010575,2680.364,333.425,25.1,
1505,1,SBT2050,2,4,,2,26411,4.149952,0.011309,2680.508,333.425,25.1,
1505,1,SBT2050,2,4,,2,26460,4.15007,0.010337,2680.657,333.425,25.1,
1505,1,SBT2050,2,4,,2,26509,4.15002,0.010891,2680.801,333.425,25.1,
1505,1,SBT2050,2,4,,2,26558,4.14981,0.010675,2680.949,333.425,25.1,
1505,1,SBT2050,2,4,,2,26607,4.15001,0.010463,2681.095,333.425,25.1,
1505,1,SBT2050,2,4,,2,26656,4.1499,0.010575,2681.239,333.425,25.1,
1505,1,SBT2050,2,4,,3,26704,4.14801,0,2681.333,333.425,25.1,
1505,1,SBT2050,2,4,,3,26753,4.14706,0,2681.333,333.425,25,
1505,1,SBT2050,2,4,,3,26802,4.146822,0,2681.333,333.425,25,
1505,1,SBT2050,2,4,,3,26851,4.14653,0,2681.333,333.425,24.9,
1505,1,SBT2050,2,4,,3,26900,4.14638,0,2681.333,333.425,24.9,
1505,1,SBT2050,2,4,,3,26949,4.14592,0,2681.333,333.425,24.9,
1505,1,SBT2050,2,4,,3,26998,4.14546,0,2681.333,333.425,24.9,
1505,1,SBT2050,2,4,,3,27047,4.14557,0,2681.333,333.425,24.9,
1505,1,SBT2050,2,4,,3,27096,4.14508,0,2681.333,333.425,25,
1505,1,SBT2050,2,4,,3,27145,4.145124,0,2681.333,333.425,24.9,
1505,1,SBT2050,2,4,,3,27194,4.144684,0,2681.333,333.425,25,
1505,1,SBT2050,2,4,,3,27243,4.144748,0,2681.333,333.425,25,
1505,1,SBT2050,2,4,,3,27292,4.144622,0,2681.333,333.425,25,
1505,1,SBT2050,2,4,,3,27341,4.14409,0,2681.333,333.425,25,
1505,1,SBT2050,2,4,,3,27390,4.14431,0,2681.333,333.425,25,
1505,1,SBT2050,2,4,,3,27439,4.144222,0,2681.333,333.425,25,
1505,1,SBT2050,2,4,,3,27488,4.14424,0,2681.333,333.425,25,
1505,1,SBT2050,2,4,,3,27537,4.14375,0,2681.333,333.425,25,
1505,1,SBT2050,2,4,,3,27586,4.14369,0,2681.333,333.425,25,
1505,1,SBT2050,2,4,,3,27635,4.14352,0,2681.333,333.425,25,
1505,1,SBT2050,2,4,,3,27684,4.1441,0,2681.333,333.425,25,
1505,1,SBT2050,2,4,,3,27733,4.14384,0,2681.333,333.425,25,
1505,1,SBT2050,2,4,,3,27782,4.14367,0,2681.333,333.425,25,
1505,1,SBT2050,2,4,,3,27831,4.14371,0,2681.333,333.425,25,
1505,1,SBT2050,2,4,,3,27880,4.14353,0,2681.333,333.425,25,
1505,1,SBT2050,2,4,,3,27929,4.14306,0,2681.333,333.425,25,
1505,1,SBT2050,2,4,,3,27978,4.143446,0,2681.333,333.425,25,
1505,1,SBT2050,2,4,,3,28027,4.14312,0,2681.333,333.425,25,
1505,1,SBT2050,2,4,,3,28076,4.142974,0,2681.333,333.425,25,
1505,1,SBT2050,2,4,,3,28125,4.14278,0,2681.333,333.425,25,
1505,1,SBT2050,2,4,,3,28174,4.142826,0,2681.333,333.425,25,
1505,1,SBT2050,2,4,,3,28223,4.1428,0,2681.333,333.425,25.1,
1505,1,SBT2050,2,4,,3,28272,4.14272,0,2681.333,333.425,25,
1505,1,SBT2050,2,4,,3,28321,4.14248,0,2681.333,333.425,25.1,
1505,1,SBT2050,2,4,,3,28370,4.14276,0,2681.333,333.425,25.1,
1505,1,SBT2050,2,4,,3,28419,4.14259,0,2681.333,333.425,25.1,
1505,1,SBT2050,2,4,,3,28468,4.14253,0,2681.333,333.425,25.1,
1505,1,SBT2050,2,4,,4,28516,3.78814,-2.936,2681.333,355.887,25.4,
1505,1,SBT2050,2,4,,4,28565,3.74303,-2.9363,2681.333,395.849,26.1,
1505,1,SBT2050,2,4,,4,28614,3.72338,-2.9356,2681.333,435.81,26.7,
1505,1,SBT2050,2,4,,4,28663,3.71162,-2.936,2681.333,475.772,27.2,
1505,1,SBT2050,2,4,,4,28712,3.70217,-2.9355,2681.333,515.733,27.6,
1505,1,SBT2050,2,4,,4,28761,3.69355,-2.9359,2681.333,555.695,27.9,
1505,1,SBT2050,2,4,,4,28810,3.68476,-2.9359,2681.333,595.657,28.1,
1505,1,SBT2050,2,4,,4,28859,3.67533,-2.9351,2681.333,635.618,28.4,
1505,1,SBT2050,2,4,,4,28908,3.66562,-2.9362,2681.333,675.58,28.6,
1505,1,SBT2050,2,4,,4,28957,3.65567,-2.9358,2681.333,715.542,28.7,
1505,1,SBT2050,2,4,,4,29006,3.64456,-2.9359,2681.333,755.503,28.7,
1505,1,SBT2050,2,4,,4,29055,3.63285,-2.9359,2681.333,795.465,28.8,
1505,1,SBT2050,2,4,,4,29104,3.62104,-2.9358,2681.333,835.427,28.9,
1505,1,SBT2050,2,4,,4,29153,3.60833,-2.9364,2681.333,875.388,28.9,
1505,1,SBT2050,2,4,,4,29202,3.59572,-2.936,2681.333,915.35,28.9,
1505,1,SBT2050,2,4,,4,29251,3.58283,-2.9356,2681.333,955.311,29,
1505,1,SBT2050,2,4,,4,29300,3.56928,-2.9364,2681.333,995.273,29,
1505,1,SBT2050,2,4,,4,29349,3.55623,-2.9364,2681.333,1035.235,28.9,
1505,1,SBT2050,2,4,,4,29398,3.54257,-2.9357,2681.333,1075.197,29,
1505,1,SBT2050,2,4,,4,29447,3.52867,-2.9357,2681.333,1115.158,28.9,
1505,1,SBT2050,2,4,,4,29496,3.51515,-2.936,2681.333,1155.12,29,
1505,1,SBT2050,2,4,,4,29545,3.50124,-2.9356,2681.333,1195.082,29,
1505,1,SBT2050,2,4,,4,29594,3.487592,-2.9356,2681.333,1235.044,29,
1505,1,SBT2050,2,4,,4,29643,3.47345,-2.9363,2681.333,1275.005,29,
1505,1,SBT2050,2,4,,4,29692,3.4595,-2.9355,2681.333,1314.967,29,
1505,1,SBT2050,2,4,,4,29741,3.4453,-2.9356,2681.333,1354.928,29.1,
1505,1,SBT2050,2,4,,4,29790,3.43118,-2.9359,2681.333,1394.89,29.1,
1505,1,SBT2050,2,4,,4,29839,3.41704,-2.9361,2681.333,1434.852,29.1,
1505,1,SBT2050,2,4,,4,29888,3.40313,-2.936,2681.333,1474.813,29.1,
1505,1,SBT2050,2,4,,4,29937,3.38877,-2.9363,2681.333,1514.775,29.1,
1505,1,SBT2050,2,4,,4,29986,3.37434,-2.9356,2681.333,1554.736,29.1,
1505,1,SBT2050,2,4,,4,30035,3.36014,-2.936,2681.333,1594.698,29.2,
1505,1,SBT2050,2,4,,4,30084,3.34564,-2.9361,2681.333,1634.659,29.2,
1505,1,SBT2050,2,4,,4,30133,3.33097,-2.9359,2681.333,1674.621,29.2,
1505,1,SBT2050,2,4,,4,30182,3.31609,-2.9358,2681.333,1714.583,29.3,
1505,1,SBT2050,2,4,,4,30231,3.30099,-2.9356,2681.333,1754.544,29.3,
1505,1,SBT2050,2,4,,4,30280,3.28511,-2.9361,2681.333,1794.506,29.3,
1505,1,SBT2050,2,4,,4,30329,3.269502,-2.936,2681.333,1834.468,29.4,
1505,1,SBT2050,2,4,,4,30378,3.25319,-2.9359,2681.333,1874.429,29.5,
1505,1,SBT2050,2,4,,4,30427,3.23639,-2.9359,2681.333,1914.391,29.6,
1505,1,SBT2050,2,4,,4,30476,3.21902,-2.9357,2681.333,1954.352,29.7,
1505,1,SBT2050,2,4,,4,30525,3.2012,-2.936,2681.333,1994.314,29.7,
1505,1,SBT2050,2,4,,4,30574,3.18237,-2.936,2681.333,2034.276,29.9,
1505,1,SBT2050,2,4,,4,30623,3.162442,-2.9359,2681.333,2074.237,30,
1505,1,SBT2050,2,4,,4,30672,3.14187,-2.936,2681.333,2114.199,30.1,
1505,1,SBT2050,2,4,,4,30721,3.120348,-2.9354,2681.333,2154.16,30.3,
1505,1,SBT2050,2,4,,4,30770,3.09723,-2.9362,2681.333,2194.121,30.4,
1505,1,SBT2050,2,4,,4,30819,3.0727,-2.9361,2681.333,2234.083,30.5,
1505,1,SBT2050,2,4,,4,30868,3.04611,-2.9359,2681.333,2274.045,30.7,
1505,1,SBT2050,2,4,,4,30917,3.01754,-2.9362,2681.333,2314.006,31,
1505,1,SBT2050,2,4,,4,30966,2.98713,-2.9359,2681.333,2353.968,31.2,
1505,1,SBT2050,2,4,,4,31015,2.95351,-2.9361,2681.333,2393.929,31.4,
1505,1,SBT2050,2,4,,4,31064,2.9152,-2.9362,2681.333,2433.891,31.7,
1505,1,SBT2050,2,4,,4,31113,2.87096,-2.9356,2681.333,2473.853,31.9,
1505,1,SBT2050,2,4,,4,31162,2.819056,-2.9354,2681.333,2513.814,32.3,
1505,1,SBT2050,2,4,,4,31211,2.75634,-2.9362,2681.333,2553.776,32.7,
1505,1,SBT2050,2,4,,4,31260,2.678178,-2.9362,2681.333,2593.737,33.1,
1505,1,SBT2050,2,4,,4,31309,2.5692,-2.9361,2681.333,2633.699,33.8,
1505,1,SBT2050,2,4,,4,31358,2.49976,-2.5133,2681.333,2671.817,34.5,
1505,1,SBT2050,2,4,,4,31407,2.49995,-2.0557,2681.333,2702.746,34.7,
1505,1,SBT2050,2,4,,4,31456,2.49976,-1.7021,2681.333,2728.213,34.5,
1505,1,SBT2050,2,4,,4,31505,2.4999,-1.4245,2681.333,2749.42,34,
1505,1,SBT2050,2,4,,4,31554,2.49981,-1.2057,2681.333,2767.261,33.5,
1505,1,SBT2050,2,4,,4,31603,2.4999,-1.035,2681.333,2782.463,32.8,
1505,1,SBT2050,2,4,,4,31652,2.49988,-0.899,2681.333,2795.584,32.2,
1505,1,SBT2050,2,4,,4,31701,2.49997,-0.7899,2681.333,2807.045,31.5,
1505,1,SBT2050,2,4,,4,31750,2.49988,-0.7004,2681.333,2817.166,30.8,
1505,1,SBT2050,2,4,,4,31799,2.499926,-0.6302,2681.333,2826.209,30.2,
1505,1,SBT2050,2,4,,4,31848,2.49995,-0.5729,2681.333,2834.381,29.7,
1505,1,SBT2050,2,4,,4,31897,2.499783,-0.5257,2681.333,2841.846,29.3,
1505,1,SBT2050,2,4,,4,31946,2.49985,-0.4869,2681.333,2848.728,28.9,
1505,1,SBT2050,2,4,,4,31995,2.49987,-0.45269,2681.333,2855.108,28.6,
1505,1,SBT2050,2,4,,4,32044,2.50002,-0.42421,2681.333,2861.068,28.3,
1505,1,SBT2050,2,4,,4,32093,2.499914,-0.39983,2681.333,2866.67,28,
1505,1,SBT2050,2,4,,4,32142,2.499938,-0.37902,2681.333,2871.966,27.7,
1505,1,SBT2050,2,4,,4,32191,2.5,-0.36053,2681.333,2876.995,27.6,
1505,1,SBT2050,2,4,,4,32240,2.49995,-0.34433,2681.333,2881.79,27.4,
1505,1,SBT2050,2,4,,4,32289,2.5,-0.33011,2681.333,2886.378,27.2,
1505,1,SBT2050,2,4,,4,32338,2.5,-0.31668,2681.333,2890.778,27.1,
1505,1,SBT2050,2,4,,4,32387,2.49997,-0.30472,2681.333,2895.004,27,
1505,1,SBT2050,2,4,,4,32436,2.50001,-0.29402,2681.333,2899.076,26.8,
1505,1,SBT2050,2,4,,4,32485,2.49985,-0.28406,2681.333,2903.008,26.7,
1505,1,SBT2050,2,4,,4,32534,2.49985,-0.27464,2681.333,2906.811,26.6,
1505,1,SBT2050,2,4,,4,32583,2.5001,-0.26586,2681.333,2910.489,26.6,
1505,1,SBT2050,2,4,,4,32632,2.49997,-0.25707,2681.333,2914.048,26.5,
1505,1,SBT2050,2,4,,4,32681,2.50005,-0.24899,2681.333,2917.49,26.4,
1505,1,SBT2050,2,4,,4,32730,2.49984,-0.24048,2681.333,2920.821,26.4,
1505,1,SBT2050,2,4,,4,32779,2.49987,-0.23308,2681.333,2924.045,26.3,
1505,1,SBT2050,2,4,,4,32828,2.50001,-0.2253,2681.333,2927.167,26.3,
1505,1,SBT2050,2,4,,4,32877,2.500081,-0.21848,2681.333,2930.188,26.2,
1505,1,SBT2050,2,4,,4,32926,2.50001,-0.21109,2681.333,2933.111,26.2,
1505,1,SBT2050,2,4,,4,32975,2.50003,-0.20395,2681.333,2935.934,26.1,
1505,1,SBT2050,2,4,,4,33024,2.49988,-0.19693,2681.333,2938.66,26,
1505,1,SBT2050,2,4,,4,33073,2.49969,-0.19016,2681.333,2941.292,26,
1505,1,SBT2050,2,4,,4,33122,2.4999,-0.18379,2681.333,2943.836,26,
1505,1,SBT2050,2,4,,4,33171,2.4999,-0.17765,2681.333,2946.295,26,
1505,1,SBT2050,2,4,,4,33220,2.49983,-0.1713,2681.333,2948.67,26,
1505,1,SBT2050,2,4,,4,33269,2.49999,-0.16574,2681.333,2950.964,25.9,
1505,1,SBT2050,2,4,,4,33318,2.49988,-0.15979,2681.333,2953.177,25.8,
1505,1,SBT2050,2,4,,4,33367,2.499771,-0.15424,2681.333,2955.315,25.8,
1505,1,SBT2050,2,4,,4,33416,2.49983,-0.14924,2681.333,2957.38,25.8,
1505,1,SBT2050,2,4,,4,33465,2.50001,-0.14428,2681.333,2959.375,25.8,
1505,1,SBT2050,2,4,,4,33514,2.50006,-0.1392,2681.333,2961.302,25.8,
1505,1,SBT2050,2,4,,4,33563,2.49997,-0.13441,2681.333,2963.164,25.8,
1505,1,SBT2050,2,4,,4,33612,2.50002,-0.12978,2681.333,2964.962,25.7,
1505,1,SBT2050,2,4,,4,33661,2.49997,-0.12549,2681.333,2966.699,25.6,
1505,1,SBT2050,2,4,,4,33710,2.499783,-0.12112,2681.333,2968.378,25.6,
1505,1,SBT2050,2,4,,4,33759,2.49995,-0.11726,2681.333,2970.001,25.6,
1505,1,SBT2050,2,4,,4,33808,2.499926,-0.11339,2681.333,2971.57,25.6,
1505,1,SBT2050,2,4,,4,33857,2.49988,-0.10965,2681.333,2973.088,25.5,
1505,1,SBT2050,2,4,,4,33906,2.49981,-0.10584,2681.333,2974.556,25.6,
1505,1,SBT2050,2,4,,4,33955,2.499926,-0.1024,2681.333,2975.975,25.6,
1505,1,SBT2050,2,4,,4,34004,2.50002,-0.09912,2681.333,2977.346,25.5,
1505,1,SBT2050,2,4,,4,34053,2.49985,-0.0958,2681.333,2978.671,25.5,
1505,1,SBT2050,2,4,,4,34102,2.49995,-0.0926,2681.333,2979.952,25.5,
1505,1,SBT2050,2,4,,4,34151,2.49989,-0.08949,2681.333,2981.191,25.5,
1505,1,SBT2050,2,4,,4,34200,2.50001,-0.08669,2681.333,2982.389,25.5,
1505,1,SBT2050,2,4,,4,34249,2.49995,-0.08385,2681.333,2983.549,25.4,
1505,1,SBT2050,2,4,,4,34298,2.5,-0.08116,2681.333,2984.671,25.4,
1505,1,SBT2050,2,4,,4,34347,2.50001,-0.07864,2681.333,2985.757,25.4,
1505,1,SBT2050,2,4,,4,34396,2.5,-0.07614,2681.333,2986.809,25.4,
1505,1,SBT2050,2,4,,4,34445,2.5,-0.0735,2681.333,2987.827,25.3,
1505,1,SBT2050,2,4,,4,34494,2.499926,-0.0713,2681.333,2988.814,25.3,
1505,1,SBT2050,2,4,,4,34543,2.5,-0.06912,2681.333,2989.77,25.4,
1505,1,SBT2050,2,4,,4,34592,2.50012,-0.06714,2681.333,2990.696,25.4,
1505,1,SBT2050,2,4,,4,34641,2.50006,-0.06488,2681.333,2991.594,25.3,
1505,1,SBT2050,2,4,,4,34690,2.49981,-0.06262,2681.333,2992.464,25.3,
1505,1,SBT2050,2,4,,4,34739,2.49997,-0.0611,2681.333,2993.307,25.3,
1505,1,SBT2050,2,4,,4,34788,2.49985,-0.05924,2681.333,2994.125,25.3,
1505,1,SBT2050,2,4,,4,34837,2.499926,-0.05745,2681.333,2994.918,25.3,
1505,1,SBT2050,2,4,,4,34886,2.5001,-0.05565,2681.333,2995.687,25.3,
1505,1,SBT2050,2,4,,4,34935,2.49995,-0.05391,2681.333,2996.433,25.3,
1505,1,SBT2050,2,4,,4,34984,2.49996,-0.05239,2681.333,2997.157,25.2,
1505,1,SBT2050,2,4,,4,35033,2.50001,-0.05081,2681.333,2997.859,25.2,
1505,1,SBT2050,2,4,,4,35082,2.50006,-0.04934,2681.333,2998.54,25.2,
1505,1,SBT2050,2,4,,4,35131,2.49996,-0.04784,2681.333,2999.202,25.2,
1505,1,SBT2050,2,4,,4,35180,2.5,-0.046585,2681.333,2999.844,25.2,
1505,1,SBT2050,2,4,,4,35229,2.49995,-0.045017,2681.333,3000.467,25.2,
1505,1,SBT2050,2,4,,4,35278,2.50005,-0.043726,2681.333,3001.072,25.2,
1505,1,SBT2050,2,4,,4,35327,2.49997,-0.042426,2681.333,3001.659,25.2,
1505,1,SBT2050,2,4,,4,35376,2.499926,-0.041213,2681.333,3002.23,25.2,
1505,1,SBT2050,2,4,,4,35425,2.50006,-0.040154,2681.333,3002.783,25.2,
1505,1,SBT2050,2,4,,4,35474,2.500069,-0.038939,2681.333,3003.321,25.2,
1505,1,SBT2050,2,4,,4,35523,2.49999,-0.037673,2681.333,3003.843,25.1,
1505,1,SBT2050,2,4,,4,35572,2.49987,-0.036538,2681.333,3004.349,25.1,
1505,1,SBT2050,2,4,,4,35621,2.50001,-0.035554,2681.333,3004.841,25.2,
1505,1,SBT2050,2,4,,4,35670,2.49997,-0.03458,2681.333,3005.319,25.2,
1505,1,SBT2050,2,4,,4,35719,2.500069,-0.033629,2681.333,3005.782,25.2,
1505,1,SBT2050,2,4,,4,35768,2.50002,-0.032563,2681.333,3006.232,25.1,
1505,1,SBT2050,2,4,,4,35817,2.49981,-0.031449,2681.333,3006.668,25.2,
1505,1,SBT2050,2,4,,4,35866,2.50002,-0.03072,2681.333,3007.092,25.1,
1505,1,SBT2050,2,4,,4,35915,2.50005,-0.029634,2681.333,3007.502,25.1,
1505,1,SBT2050,2,4,,4,35964,2.499914,-0.028763,2681.333,3007.9,25.1,
1505,1,SBT2050,2,4,,4,36013,2.50009,-0.027877,2681.333,3008.286,25.1,
1505,1,SBT2050,2,4,,4,36062,2.49988,-0.026845,2681.333,3008.659,25.1,
1505,1,SBT2050,2,4,,4,36111,2.49996,-0.02612,2681.333,3009.021,25.2,
1505,1,SBT2050,2,4,,4,36160,2.50005,-0.025384,2681.333,3009.371,25.1,
1505,1,SBT2050,2,4,,4,36209,2.499926,-0.0245,2681.333,3009.71,25.1,
1505,1,SBT2050,2,4,,4,36258,2.50002,-0.023641,2681.333,3010.037,25.1,
1505,1,SBT2050,2,4,,4,36307,2.499938,-0.02279,2681.333,3010.354,25.1,
1505,1,SBT2050,2,4,,4,36356,2.49997,-0.022235,2681.333,3010.661,25.1,
1505,1,SBT2050,2,4,,4,36405,2.50009,-0.02153,2681.333,3010.958,25.1,
1505,1,SBT2050,2,4,,4,36454,2.50014,-0.020793,2681.333,3011.245,25.1,
1505,1,SBT2050,2,4,,4,36503,2.49999,-0.019977,2681.333,3011.523,25.1,
1505,1,SBT2050,2,4,,4,36552,2.49984,-0.019471,2681.333,3011.792,25.1,
1505,1,SBT2050,2,4,,4,36601,2.50005,-0.018983,2681.333,3012.053,25.1,
1505,1,SBT2050,2,4,,4,36650,2.49989,-0.018188,2681.333,3012.306,25.1,
1505,1,SBT2050,2,4,,4,36699,2.50005,-0.017988,2681.333,3012.55,25.1,
1505,1,SBT2050,2,4,,4,36748,2.50005,-0.017125,2681.333,3012.787,25.1,
1505,1,SBT2050,2,4,,4,36797,2.499938,-0.016591,2681.333,3013.017,25.1,
1505,1,SBT2050,2,4,,4,36846,2.5,-0.016207,2681.333,3013.239,25.1,
1505,1,SBT2050,2,4,,4,36895,2.499914,-0.01551,2681.333,3013.454,25.1,
1505,1,SBT2050,2,4,,4,36944,2.50005,-0.01505,2681.333,3013.662,25.1,
1505,1,SBT2050,2,4,,4,36993,2.50001,-0.014697,2681.333,3013.863,25.1,
1505,1,SBT2050,2,4,,4,37042,2.499926,-0.014052,2681.333,3014.058,25.1,
1505,1,SBT2050,2,4,,4,37091,2.49997,-0.013688,2681.333,3014.247,25.1,
1505,1,SBT2050,2,4,,4,37140,2.49997,-0.013131,2681.333,3014.43,25.1,
1505,1,SBT2050,2,4,,4,37189,2.5001,-0.012875,2681.333,3014.607,25.1,
1505,1,SBT2050,2,4,,4,37238,2.50002,-0.012475,2681.333,3014.778,25.1,
1505,1,SBT2050,2,4,,4,37287,2.50009,-0.011926,2681.333,3014.945,25.1,
1505,1,SBT2050,2,4,,4,37336,2.5,-0.011639,2681.333,3015.106,25.1,
1505,1,SBT2050,2,4,,4,37385,2.49997,-0.011375,2681.333,3015.263,25.1,
1505,1,SBT2050,2,4,,4,37434,2.499938,-0.011078,2681.333,3015.415,25.1,
1505,1,SBT2050,2,4,,4,37483,2.49985,-0.010571,2681.333,3015.563,25,
1505,1,SBT2050,2,4,,4,37532,2.50003,-0.010586,2681.333,3015.707,25.1,
1505,1,SBT2050,2,4,,5,37580,2.520856,0,2681.333,3015.766,25.1,
1505,1,SBT2050,2,4,,5,37596.18,2.52961,0,2681.333,3015.766,,