File: 1C/Test1561.csv
Request Year:,2018,,,,,,,,,,,,
Test:,1561,,,,,,,,,,,,
Test Description:,,,,,,,,,,,,,
TestRegime Name:,Aging_Performance,,,,,,,,,,,,
TestRegime Suffix:,SHP_LC,,,,,,,,,,,,
TestRegime CellSize:,18650,,,,,,,,,,,,
TestRegime Version:,1,,,,,,,,,,,,
Number Of Cells:,1,,,,,,,,,,,,
LotID:,,,,,,,,,,,,,
Lot Description:,,,,,,,,,,,,,
Date Made:,1/21/2003 12:00 AM,,,,,,,,,,,,
Origin:,Other,,,,,,,,,,,,
Requestor:,Admin,,,,,,,,,,,,
Product ID:,Default product,,,,,,,,,,,,
Storage Temp:,R.T./AMB,,,,,,,,,,,,
Storage Delay:,0 days,,,,,,,,,,,,
Test Temp:,R.T./AMB,,,,,,,,,,,,
Start Time:,4/26/2018 8:27 PM,,,,,,,,,,,,
End Time:,4/27/2018 7:41 AM,,,,,,,,,,,,
Operator Instructions:,,,,,,,,,,,,,
Test,Cell,Rack,Shelf,Position,Cell ID,Step,Total Time (Seconds),Voltage (V),Current (A),Charge Capacity (mAh),Discharge Capacity (mAh),TC1 (Â°C),
1561,1,SBT2050,2,4,,0,1,3.36273,0,0,0,24.7,
1561,1,SBT2050,2,4,,0,54,3.36281,0,0,0,24.8,
1561,1,SBT2050,2,4,,0,107,3.36264,0,0,0,24.9,
1561,1,SBT2050,2,4,,0,160,3.36293,0,0,0,25,
1561,1,SBT2050,2,4,,0,213,3.3628,0,0,0,25.1,
1561,1,SBT2050,2,4,,0,266,3.3629,0,0,0,25.1,
1561,1,SBT2050,2,4,,1,319,2.680365,-2.9361,0,15.494,25.4,
1561,1,SBT2050,2,4,,1,372,2.49959,-1.7766,0,49.231,27.2,
1561,1,SBT2050,2,4,,1,425,2.49989,-1.4376,0,72.673,28.2,
1561,1,SBT2050,2,4,,1,478,2.49973,-1.1794,0,91.873,28.8,
1561,1,SBT2050,2,4,,1,531,2.49988,-0.9838,0,107.714,29,
1561,1,SBT2050,2,4,,1,584,2.49976,-0.8404,0,121.095,29,
1561,1,SBT2050,2,4,,1,637,2.499792,-0.7277,0,132.602,28.9,
1561,1,SBT2050,2,4,,1,690,2.49967,-0.6385,0,142.636,28.7,
1561,1,SBT2050,2,4,,1,743,2.499923,-0.5666,0,151.49,28.6,
1561,1,SBT2050,2,4,,1,796,2.49986,-0.5069,0,159.38,28.3,
1561,1,SBT2050,2,4,,1,849,2.499935,-0.45839,0,166.477,28.1,
1561,1,SBT2050,2,4,,1,902,2.499804,-0.41724,0,172.911,27.9,
1561,1,SBT2050,2,4,,1,955,2.50003,-0.38228,0,178.787,27.8,
1561,1,SBT2050,2,4,,1,1008,2.49968,-0.35247,0,184.19,27.6,
1561,1,SBT2050,2,4,,1,1061,2.49997,-0.3274,0,189.19,27.4,
1561,1,SBT2050,2,4,,1,1114,2.499923,-0.30501,0,193.841,27.2,
1561,1,SBT2050,2,4,,1,1167,2.49986,-0.28547,0,198.185,27.1,
1561,1,SBT2050,2,4,,1,1220,2.499923,-0.26755,0,202.255,26.9,
1561,1,SBT2050,2,4,,1,1273,2.49971,-0.2522,0,206.081,26.8,
1561,1,SBT2050,2,4,,1,1326,2.49996,-0.23845,0,209.691,26.7,
1561,1,SBT2050,2,4,,1,1379,2.49998,-0.22613,0,213.109,26.6,
1561,1,SBT2050,2,4,,1,1432,2.49996,-0.2152,0,216.356,26.5,
1561,1,SBT2050,2,4,,1,1485,2.500078,-0.20544,0,219.449,26.5,
1561,1,SBT2050,2,4,,1,1538,2.4999,-0.19633,0,222.403,26.4,
1561,1,SBT2050,2,4,,1,1591,2.50002,-0.18774,0,225.227,26.3,
1561,1,SBT2050,2,4,,1,1644,2.49996,-0.17978,0,227.933,26.3,
1561,1,SBT2050,2,4,,1,1697,2.49988,-0.17315,0,230.53,26.3,
1561,1,SBT2050,2,4,,1,1750,2.50017,-0.16686,0,233.029,26.3,
1561,1,SBT2050,2,4,,1,1803,2.50003,-0.1605,0,235.436,26.2,
1561,1,SBT2050,2,4,,1,1856,2.49986,-0.15445,0,237.754,26.2,
1561,1,SBT2050,2,4,,1,1909,2.49985,-0.14877,0,239.987,26.1,
1561,1,SBT2050,2,4,,1,1962,2.49991,-0.14396,0,242.142,26.1,
1561,1,SBT2050,2,4,,1,2015,2.499923,-0.13911,0,244.225,26.1,
1561,1,SBT2050,2,4,,1,2068,2.49996,-0.13435,0,246.24,26.1,
1561,1,SBT2050,2,4,,1,2121,2.499792,-0.13006,0,248.188,26,
1561,1,SBT2050,2,4,,1,2174,2.499935,-0.12568,0,250.073,26,
1561,1,SBT2050,2,4,,1,2227,2.50002,-0.12198,0,251.895,26,
1561,1,SBT2050,2,4,,1,2280,2.49999,-0.11807,0,253.66,26,
1561,1,SBT2050,2,4,,1,2333,2.499923,-0.11434,0,255.371,26,
1561,1,SBT2050,2,4,,1,2386,2.4999,-0.11113,0,257.032,25.9,
1561,1,SBT2050,2,4,,1,2439,2.49991,-0.10763,0,258.644,25.9,
1561,1,SBT2050,2,4,,1,2492,2.49996,-0.10454,0,260.207,25.9,
1561,1,SBT2050,2,4,,1,2545,2.500078,-0.1014,0,261.723,25.8,
1561,1,SBT2050,2,4,,1,2598,2.4999,-0.09844,0,263.195,25.8,
1561,1,SBT2050,2,4,,1,2651,2.49989,-0.09577,0,264.625,25.8,
1561,1,SBT2050,2,4,,1,2704,2.49999,-0.09303,0,266.016,25.8,
1561,1,SBT2050,2,4,,1,2757,2.50007,-0.09045,0,267.368,25.8,
1561,1,SBT2050,2,4,,1,2810,2.50005,-0.08785,0,268.68,25.7,
1561,1,SBT2050,2,4,,1,2863,2.499947,-0.08541,0,269.955,25.7,
1561,1,SBT2050,2,4,,1,2916,2.50013,-0.08309,0,271.194,25.7,
1561,1,SBT2050,2,4,,1,2969,2.49988,-0.0806,0,272.399,25.7,
1561,1,SBT2050,2,4,,1,3022,2.49999,-0.07866,0,273.571,25.7,
1561,1,SBT2050,2,4,,1,3075,2.4999,-0.07602,0,274.71,25.7,
1561,1,SBT2050,2,4,,1,3128,2.49999,-0.07392,0,275.815,25.6,
1561,1,SBT2050,2,4,,1,3181,2.49973,-0.07164,0,276.889,25.6,
1561,1,SBT2050,2,4,,1,3234,2.49971,-0.06976,0,277.931,25.6,
1561,1,SBT2050,2,4,,1,3287,2.49977,-0.06767,0,278.946,25.6,
1561,1,SBT2050,2,4,,1,3340,2.49985,-0.06604,0,279.931,25.6,
1561,1,SBT2050,2,4,,1,3393,2.50009,-0.06406,0,280.888,25.5,
1561,1,SBT2050,2,4,,1,3446,2.499947,-0.06226,0,281.817,25.5,
1561,1,SBT2050,2,4,,1,3499,2.49986,-0.06044,0,282.72,25.5,
1561,1,SBT2050,2,4,,1,3552,2.499947,-0.05876,0,283.598,25.5,
1561,1,SBT2050,2,4,,1,3605,2.50002,-0.05733,0,284.452,25.5,
1561,1,SBT2050,2,4,,1,3658,2.49996,-0.05527,0,285.28,25.4,
1561,1,SBT2050,2,4,,1,3711,2.4999,-0.05383,0,286.085,25.5,
1561,1,SBT2050,2,4,,1,3764,2.49997,-0.05238,0,286.868,25.5,
1561,1,SBT2050,2,4,,1,3817,2.49989,-0.05089,0,287.629,25.5,
1561,1,SBT2050,2,4,,1,3870,2.49999,-0.0495,0,288.369,25.4,
1561,1,SBT2050,2,4,,1,3923,2.49991,-0.04818,0,289.088,25.4,
1561,1,SBT2050,2,4,,1,3976,2.50001,-0.046686,0,289.788,25.4,
1561,1,SBT2050,2,4,,1,4029,2.49978,-0.045624,0,290.469,25.5,
1561,1,SBT2050,2,4,,1,4082,2.50004,-0.044493,0,291.131,25.4,
1561,1,SBT2050,2,4,,1,4135,2.50005,-0.04318,0,291.777,25.4,
1561,1,SBT2050,2,4,,1,4188,2.49997,-0.042133,0,292.405,25.4,
1561,1,SBT2050,2,4,,1,4241,2.49996,-0.040868,0,293.018,25.4,
1561,1,SBT2050,2,4,,1,4294,2.50004,-0.040165,0,293.615,25.4,
1561,1,SBT2050,2,4,,1,4347,2.50001,-0.039004,0,294.197,25.4,
1561,1,SBT2050,2,4,,1,4400,2.4999,-0.038175,0,294.764,25.4,
1561,1,SBT2050,2,4,,1,4453,2.50011,-0.037102,0,295.317,25.4,
1561,1,SBT2050,2,4,,1,4506,2.49973,-0.03607,0,295.856,25.4,
1561,1,SBT2050,2,4,,1,4559,2.50013,-0.035067,0,296.38,25.4,
1561,1,SBT2050,2,4,,1,4612,2.49986,-0.034244,0,296.891,25.4,
1561,1,SBT2050,2,4,,1,4665,2.50007,-0.033488,0,297.389,25.4,
1561,1,SBT2050,2,4,,1,4718,2.49997,-0.032449,0,297.873,25.4,
1561,1,SBT2050,2,4,,1,4771,2.49982,-0.031429,0,298.344,25.4,
1561,1,SBT2050,2,4,,1,4824,2.49996,-0.030604,0,298.802,25.4,
1561,1,SBT2050,2,4,,1,4877,2.49985,-0.029882,0,299.248,25.4,
1561,1,SBT2050,2,4,,1,4930,2.49991,-0.029084,0,299.683,25.4,
1561,1,SBT2050,2,4,,1,4983,2.50014,-0.028294,0,300.107,25.3,
1561,1,SBT2050,2,4,,1,5036,2.49973,-0.027844,0,300.521,25.4,
1561,1,SBT2050,2,4,,1,5089,2.50005,-0.026964,0,300.925,25.4,
1561,1,SBT2050,2,4,,1,5142,2.49999,-0.026538,0,301.32,25.3,
1561,1,SBT2050,2,4,,1,5195,2.49999,-0.025886,0,301.705,25.4,
1561,1,SBT2050,2,4,,1,5248,2.49982,-0.025259,0,302.081,25.4,
1561,1,SBT2050,2,4,,1,5301,2.499923,-0.024666,0,302.449,25.4,
1561,1,SBT2050,2,4,,1,5354,2.499935,-0.024184,0,302.81,25.3,
1561,1,SBT2050,2,4,,1,5407,2.4999,-0.023547,0,303.162,25.3,
1561,1,SBT2050,2,4,,1,5460,2.49991,-0.02299,0,303.506,25.3,
1561,1,SBT2050,2,4,,1,5513,2.50007,-0.022452,0,303.842,25.3,
1561,1,SBT2050,2,4,,1,5566,2.499792,-0.02188,0,304.171,25.3,
1561,1,SBT2050,2,4,,1,5619,2.50007,-0.021932,0,304.492,25.3,
1561,1,SBT2050,2,4,,1,5672,2.4999,-0.021219,0,304.808,25.3,
1561,1,SBT2050,2,4,,1,5725,2.499935,-0.020627,0,305.116,25.3,
1561,1,SBT2050,2,4,,1,5778,2.50007,-0.020424,0,305.417,25.2,
1561,1,SBT2050,2,4,,1,5831,2.50007,-0.01988,0,305.711,25.3,
1561,1,SBT2050,2,4,,1,5884,2.50017,-0.019478,0,305.999,25.3,
1561,1,SBT2050,2,4,,1,5937,2.49998,-0.018902,0,306.281,25.3,
1561,1,SBT2050,2,4,,1,5990,2.49986,-0.018606,0,306.557,25.3,
1561,1,SBT2050,2,4,,1,6043,2.50014,-0.018281,0,306.827,25.3,
1561,1,SBT2050,2,4,,1,6096,2.49991,-0.017705,0,307.091,25.3,
1561,1,SBT2050,2,4,,1,6149,2.50005,-0.017403,0,307.35,25.3,
1561,1,SBT2050,2,4,,1,6202,2.4999,-0.016924,0,307.603,25.3,
1561,1,SBT2050,2,4,,1,6255,2.499947,-0.016451,0,307.85,25.3,
1561,1,SBT2050,2,4,,1,6308,2.49989,-0.016213,0,308.092,25.2,
1561,1,SBT2050,2,4,,1,6361,2.50002,-0.015993,0,308.329,25.3,
1561,1,SBT2050,2,4,,1,6414,2.50002,-0.015351,0,308.56,25.3,
1561,1,SBT2050,2,4,,1,6467,2.50015,-0.015368,0,308.787,25.3,
1561,1,SBT2050,2,4,,1,6520,2.50011,-0.014943,0,309.009,25.3,
1561,1,SBT2050,2,4,,1,6573,2.50001,-0.014556,0,309.226,25.3,
1561,1,SBT2050,2,4,,1,6626,2.5001,-0.014274,0,309.439,25.3,
1561,1,SBT2050,2,4,,1,6679,2.499923,-0.013973,0,309.647,25.3,
1561,1,SBT2050,2,4,,1,6732,2.49996,-0.013798,0,309.85,25.2,
1561,1,SBT2050,2,4,,1,6785,2.50033,-0.013549,0,310.05,25.2,
1561,1,SBT2050,2,4,,1,6838,2.49998,-0.01305,0,310.245,25.3,
1561,1,SBT2050,2,4,,1,6891,2.49988,-0.012788,0,310.436,25.3,
1561,1,SBT2050,2,4,,1,6944,2.50002,-0.012571,0,310.623,25.3,
1561,1,SBT2050,2,4,,1,6997,2.49998,-0.012303,0,310.807,25.3,
1561,1,SBT2050,2,4,,1,7050,2.50004,-0.012122,0,310.986,25.3,
1561,1,SBT2050,2,4,,1,7103,2.49988,-0.011867,0,311.162,25.2,
1561,1,SBT2050,2,4,,1,7156,2.50001,-0.011525,0,311.335,25.2,
1561,1,SBT2050,2,4,,1,7209,2.49999,-0.011381,0,311.504,25.3,
1561,1,SBT2050,2,4,,1,7262,2.50003,-0.011088,0,311.669,25.2,
1561,1,SBT2050,2,4,,1,7315,2.50003,-0.011032,0,311.831,25.3,
1561,1,SBT2050,2,4,,1,7368,2.5002,-0.010739,0,311.99,25.2,
1561,1,SBT2050,2,4,,1,7421,2.50002,-0.010501,0,312.146,25.3,
1561,1,SBT2050,2,4,,1,7474,2.499947,-0.010369,0,312.299,25.3,
1561,1,SBT2050,2,4,,2,7526,3.42963,2.9359,38.426,312.313,25.5,
1561,1,SBT2050,2,4,,2,7579,3.58524,2.9357,81.649,312.313,25.9,
1561,1,SBT2050,2,4,,2,7632,3.64752,2.9361,124.873,312.313,26.5,
1561,1,SBT2050,2,4,,2,7685,3.66336,2.9356,168.097,312.313,27.1,
1561,1,SBT2050,2,4,,2,7738,3.6794,2.9355,211.321,312.313,27.7,
1561,1,SBT2050,2,4,,2,7791,3.69531,2.9361,254.545,312.313,28.1,
1561,1,SBT2050,2,4,,2,7844,3.71003,2.9359,297.769,312.313,28.4,
1561,1,SBT2050,2,4,,2,7897,3.72435,2.9357,340.992,312.313,28.8,
1561,1,SBT2050,2,4,,2,7950,3.737,2.9361,384.216,312.313,29,
1561,1,SBT2050,2,4,,2,8003,3.748076,2.936,427.44,312.313,29.2,
1561,1,SBT2050,2,4,,2,8056,3.75651,2.9361,470.664,312.313,29.3,
1561,1,SBT2050,2,4,,2,8109,3.76445,2.9356,513.888,312.313,29.5,
1561,1,SBT2050,2,4,,2,8162,3.77222,2.9363,557.112,312.313,29.5,
1561,1,SBT2050,2,4,,2,8215,3.78043,2.936,600.335,312.313,29.5,
1561,1,SBT2050,2,4,,2,8268,3.789676,2.9361,643.559,312.313,29.5,
1561,1,SBT2050,2,4,,2,8321,3.79957,2.936,686.783,312.313,29.6,
1561,1,SBT2050,2,4,,2,8374,3.80889,2.9359,730.007,312.313,29.6,
1561,1,SBT2050,2,4,,2,8427,3.818298,2.9357,773.231,312.313,29.6,
1561,1,SBT2050,2,4,,2,8480,3.82823,2.9355,816.454,312.313,29.6,
1561,1,SBT2050,2,4,,2,8533,3.83756,2.9363,859.678,312.313,29.6,
1561,1,SBT2050,2,4,,2,8586,3.84781,2.9358,902.902,312.313,29.6,
1561,1,SBT2050,2,4,,2,8639,3.85827,2.9359,946.126,312.313,29.6,
1561,1,SBT2050,2,4,,2,8692,3.86892,2.9358,989.35,312.313,29.6,
1561,1,SBT2050,2,4,,2,8745,3.88009,2.9358,1032.574,312.313,29.6,
1561,1,SBT2050,2,4,,2,8798,3.89212,2.9362,1075.798,312.313,29.6,
1561,1,SBT2050,2,4,,2,8851,3.9043,2.9361,1119.022,312.313,29.7,
1561,1,SBT2050,2,4,,2,8904,3.917194,2.9362,1162.246,312.313,29.7,
1561,1,SBT2050,2,4,,2,8957,3.93062,2.9364,1205.469,312.313,29.7,
1561,1,SBT2050,2,4,,2,9010,3.94437,2.9357,1248.693,312.313,29.8,
1561,1,SBT2050,2,4,,2,9063,3.95824,2.9363,1291.917,312.313,29.8,
1561,1,SBT2050,2,4,,2,9116,3.97322,2.9361,1335.141,312.313,29.9,
1561,1,SBT2050,2,4,,2,9169,3.98845,2.9361,1378.364,312.313,29.9,
1561,1,SBT2050,2,4,,2,9222,4.00379,2.936,1421.588,312.313,29.9,
1561,1,SBT2050,2,4,,2,9275,4.01966,2.9362,1464.811,312.313,30,
1561,1,SBT2050,2,4,,2,9328,4.03585,2.9359,1508.035,312.313,30,
1561,1,SBT2050,2,4,,2,9381,4.05202,2.9361,1551.259,312.313,30,
1561,1,SBT2050,2,4,,2,9434,4.06959,2.9364,1594.482,312.313,30.2,
1561,1,SBT2050,2,4,,2,9487,4.08668,2.9359,1637.706,312.313,30.2,
1561,1,SBT2050,2,4,,2,9540,4.10421,2.9362,1680.93,312.313,30.3,
1561,1,SBT2050,2,4,,2,9593,4.12171,2.9361,1724.154,312.313,30.3,
1561,1,SBT2050,2,4,,2,9646,4.14035,2.9359,1767.378,312.313,30.3,
1561,1,SBT2050,2,4,,2,9699,4.15003,2.8004,1810.087,312.313,30.3,
1561,1,SBT2050,2,4,,2,9752,4.15011,2.598,1849.781,312.313,30.3,
1561,1,SBT2050,2,4,,2,9805,4.15001,2.4216,1886.728,312.313,30.2,
1561,1,SBT2050,2,4,,2,9858,4.14993,2.2575,1921.154,312.313,29.9,
1561,1,SBT2050,2,4,,2,9911,4.14993,2.1055,1953.255,312.313,29.8,
1561,1,SBT2050,2,4,,2,9964,4.1501,1.962,1983.179,312.313,29.5,
1561,1,SBT2050,2,4,,2,10017,4.14998,1.8331,2011.094,312.313,29.3,
1561,1,SBT2050,2,4,,2,10070,4.15019,1.7133,2037.174,312.313,29,
1561,1,SBT2050,2,4,,2,10123,4.149756,1.6022,2061.55,312.313,28.8,
1561,1,SBT2050,2,4,,2,10176,4.14986,1.4987,2084.361,312.313,28.5,
1561,1,SBT2050,2,4,,2,10229,4.14982,1.4069,2105.739,312.313,28.3,
1561,1,SBT2050,2,4,,2,10282,4.1502,1.3196,2125.79,312.313,28,
1561,1,SBT2050,2,4,,2,10335,4.14996,1.2401,2144.624,312.313,27.8,
1561,1,SBT2050,2,4,,2,10388,4.150078,1.1697,2162.355,312.313,27.6,
1561,1,SBT2050,2,4,,2,10441,4.150054,1.1024,2179.078,312.313,27.4,
1561,1,SBT2050,2,4,,2,10494,4.14986,1.0418,2194.849,312.313,27.3,
1561,1,SBT2050,2,4,,2,10547,4.15003,0.9822,2209.735,312.313,27.1,
1561,1,SBT2050,2,4,,2,10600,4.14995,0.9311,2223.812,312.313,27,
1561,1,SBT2050,2,4,,2,10653,4.1501,0.881,2237.147,312.313,26.9,
1561,1,SBT2050,2,4,,2,10706,4.15021,0.8362,2249.788,312.313,26.7,
1561,1,SBT2050,2,4,,2,10759,4.15014,0.7943,2261.795,312.313,26.6,
1561,1,SBT2050,2,4,,2,10812,4.150042,0.7567,2273.216,312.313,26.5,
1561,1,SBT2050,2,4,,2,10865,4.150042,0.7207,2284.085,312.313,26.4,
1561,1,SBT2050,2,4,,2,10918,4.15026,0.6862,2294.441,312.313,26.3,
1561,1,SBT2050,2,4,,2,10971,4.15016,0.6555,2304.323,312.313,26.2,
1561,1,SBT2050,2,4,,2,11024,4.14991,0.6275,2313.765,312.313,26.2,
1561,1,SBT2050,2,4,,2,11077,4.150066,0.6001,2322.801,312.313,26.1,
1561,1,SBT2050,2,4,,2,11130,4.14996,0.5752,2331.452,312.313,26.1,
1561,1,SBT2050,2,4,,2,11183,4.15026,0.5516,2339.742,312.313,26,
1561,1,SBT2050,2,4,,2,11236,4.14996,0.5302,2347.694,312.313,25.9,
1561,1,SBT2050,2,4,,2,11289,4.14997,0.5085,2355.325,312.313,25.9,
1561,1,SBT2050,2,4,,2,11342,4.15009,0.4896,2362.663,312.313,25.9,
1561,1,SBT2050,2,4,,2,11395,4.150078,0.46988,2369.723,312.313,25.9,
1561,1,SBT2050,2,4,,2,11448,4.15011,0.45322,2376.526,312.313,25.8,
1561,1,SBT2050,2,4,,2,11501,4.15013,0.43712,2383.078,312.313,25.8,
1561,1,SBT2050,2,4,,2,11554,4.15014,0.42316,2389.401,312.313,25.7,
1561,1,SBT2050,2,4,,2,11607,4.14998,0.40669,2395.503,312.313,25.7,
1561,1,SBT2050,2,4,,2,11660,4.14997,0.3932,2401.395,312.313,25.7,
1561,1,SBT2050,2,4,,2,11713,4.15011,0.38069,2407.086,312.313,25.6,
1561,1,SBT2050,2,4,,2,11766,4.15001,0.36859,2412.599,312.313,25.6,
1561,1,SBT2050,2,4,,2,11819,4.15002,0.35698,2417.943,312.313,25.6,
1561,1,SBT2050,2,4,,2,11872,4.14983,0.34622,2423.103,312.313,25.6,
1561,1,SBT2050,2,4,,2,11925,4.1499,0.33509,2428.11,312.313,25.6,
1561,1,SBT2050,2,4,,2,11978,4.150042,0.32419,2432.964,312.313,25.6,
1561,1,SBT2050,2,4,,2,12031,4.149792,0.31512,2437.676,312.313,25.6,
1561,1,SBT2050,2,4,,2,12084,4.15013,0.30604,2442.242,312.313,25.5,
1561,1,SBT2050,2,4,,2,12137,4.14993,0.29798,2446.684,312.313,25.5,
1561,1,SBT2050,2,4,,2,12190,4.1501,0.28878,2450.994,312.313,25.5,
1561,1,SBT2050,2,4,,2,12243,4.15016,0.28048,2455.189,312.313,25.5,
1561,1,SBT2050,2,4,,2,12296,4.15003,0.27305,2459.268,312.313,25.5,
1561,1,SBT2050,2,4,,2,12349,4.15014,0.26543,2463.234,312.313,25.5,
1561,1,SBT2050,2,4,,2,12402,4.14993,0.25929,2467.096,312.313,25.4,
1561,1,SBT2050,2,4,,2,12455,4.15016,0.25191,2470.854,312.313,25.4,
1561,1,SBT2050,2,4,,2,12508,4.15026,0.24564,2474.522,312.313,25.4,
1561,1,SBT2050,2,4,,2,12561,4.14999,0.24003,2478.098,312.313,25.4,
1561,1,SBT2050,2,4,,2,12614,4.15009,0.23358,2481.586,312.313,25.4,
1561,1,SBT2050,2,4,,2,12667,4.14974,0.22739,2484.981,312.313,25.4,
1561,1,SBT2050,2,4,,2,12720,4.14995,0.22215,2488.292,312.313,25.4,
1561,1,SBT2050,2,4,,2,12773,4.14986,0.21688,2491.527,312.313,25.4,
1561,1,SBT2050,2,4,,2,12826,4.14989,0.21235,2494.687,312.313,25.4,
1561,1,SBT2050,2,4,,2,12879,4.14997,0.20735,2497.776,312.313,25.4,
1561,1,SBT2050,2,4,,2,12932,4.15015,0.20241,2500.789,312.313,25.4,
1561,1,SBT2050,2,4,,2,12985,4.15011,0.19757,2503.738,312.313,25.4,
1561,1,SBT2050,2,4,,2,13038,4.150054,0.19451,2506.618,312.313,25.4,
1561,1,SBT2050,2,4,,2,13091,4.150066,0.1889,2509.437,312.313,25.4,
1561,1,SBT2050,2,4,,2,13144,4.1501,0.18511,2512.19,312.313,25.4,
1561,1,SBT2050,2,4,,2,13197,4.14996,0.18117,2514.889,312.313,25.4,
1561,1,SBT2050,2,4,,2,13250,4.14996,0.17754,2517.532,312.313,25.3,
1561,1,SBT2050,2,4,,2,13303,4.149804,0.17357,2520.115,312.313,25.3,
1561,1,SBT2050,2,4,,2,13356,4.14995,0.17013,2522.639,312.313,25.3,
1561,1,SBT2050,2,4,,2,13409,4.14993,0.16631,2525.111,312.313,25.3,
1561,1,SBT2050,2,4,,2,13462,4.14989,0.16302,2527.538,312.313,25.3,
1561,1,SBT2050,2,4,,2,13515,4.15023,0.1595,2529.912,312.313,25.4,
1561,1,SBT2050,2,4,,2,13568,4.14991,0.15647,2532.236,312.313,25.3,
1561,1,SBT2050,2,4,,2,13621,4.14995,0.153,2534.516,312.313,25.3,
1561,1,SBT2050,2,4,,2,13674,4.150066,0.15018,2536.748,312.313,25.3,
1561,1,SBT2050,2,4,,2,13727,4.15014,0.14718,2538.935,312.313,25.3,
1561,1,SBT2050,2,4,,2,13780,4.150078,0.14465,2541.08,312.313,25.3,
1561,1,SBT2050,2,4,,2,13833,4.150042,0.14205,2543.189,312.313,25.3,
1561,1,SBT2050,2,4,,2,13886,4.15013,0.1392,2545.257,312.313,25.3,
1561,1,SBT2050,2,4,,2,13939,4.149756,0.13626,2547.285,312.313,25.2,
1561,1,SBT2050,2,4,,2,13992,4.14999,0.1334,2549.269,312.313,25.3,
1561,1,SBT2050,2,4,,2,14045,4.15016,0.1312,2551.217,312.313,25.2,
1561,1,SBT2050,2,4,,2,14098,4.15011,0.12921,2553.131,312.313,25.3,
1561,1,SBT2050,2,4,,2,14151,4.15001,0.12571,2555.007,312.313,25.2,
1561,1,SBT2050,2,4,,2,14204,4.150066,0.12359,2556.845,312.313,25.2,
1561,1,SBT2050,2,4,,2,14257,4.14997,0.12131,2558.651,312.313,25.2,
1561,1,SBT2050,2,4,,2,14310,4.14986,0.12048,2560.43,312.313,25.2,
1561,1,SBT2050,2,4,,2,14363,4.14998,0.11721,2562.174,312.313,25.2,
1561,1,SBT2050,2,4,,2,14416,4.15002,0.11537,2563.887,312.313,25.2,
1561,1,SBT2050,2,4,,2,14469,4.150078,0.11342,2565.57,312.313,25.2,
1561,1,SBT2050,2,4,,2,14522,4.15032,0.11114,2567.224,312.313,25.2,
1561,1,SBT2050,2,4,,2,14575,4.15011,0.10913,2568.847,312.313,25.2,
1561,1,SBT2050,2,4,,2,14628,4.14993,0.10723,2570.445,312.313,25.2,
1561,1,SBT2050,2,4,,2,14681,4.14997,0.10587,2572.016,312.313,25.2,
1561,1,SBT2050,2,4,,2,14734,4.150042,0.1042,2573.557,312.313,25.2,
1561,1,SBT2050,2,4,,2,14787,4.15002,0.10191,2575.072,312.313,25.2,
1561,1,SBT2050,2,4,,2,14840,4.14993,0.10056,2576.56,312.313,25.2,
1561,1,SBT2050,2,4,,2,14893,4.14999,0.09916,2578.028,312.313,25.2,
1561,1,SBT2050,2,4,,2,14946,4.14996,0.09757,2579.474,312.313,25.2,
1561,1,SBT2050,2,4,,2,14999,4.14995,0.09588,2580.9,312.313,25.3,
1561,1,SBT2050,2,4,,2,15052,4.15016,0.09433,2582.298,312.313,25.2,
1561,1,SBT2050,2,4,,2,15105,4.15021,0.09227,2583.671,312.313,25.2,
1561,1,SBT2050,2,4,,2,15158,4.15002,0.09104,2585.022,312.313,25.2,
1561,1,SBT2050,2,4,,2,15211,4.14999,0.08943,2586.349,312.313,25.2,
1561,1,SBT2050,2,4,,2,15264,4.14996,0.08833,2587.659,312.313,25.2,
1561,1,SBT2050,2,4,,2,15317,4.15042,0.08605,2588.941,312.313,25.2,
1561,1,SBT2050,2,4,,2,15370,4.14989,0.08491,2590.202,312.313,25.2,
1561,1,SBT2050,2,4,,2,15423,4.14997,0.08391,2591.446,312.313,25.2,
1561,1,SBT2050,2,4,,2,15476,4.14988,0.08297,2592.673,312.313,25.2,
1561,1,SBT2050,2,4,,2,15529,4.15017,0.08096,2593.884,312.313,25.2,
1561,1,SBT2050,2,4,,2,15582,4.15003,0.07999,2595.07,312.313,25.2,
1561,1,SBT2050,2,4,,2,15635,4.14989,0.07903,2596.242,312.313,25.2,
1561,1,SBT2050,2,4,,2,15688,4.14989,0.07793,2597.398,312.313,25.2,
1561,1,SBT2050,2,4,,2,15741,4.14988,0.07667,2598.535,312.313,25.2,
1561,1,SBT2050,2,4,,2,15794,4.14997,0.07586,2599.655,312.313,25.2,
1561,1,SBT2050,2,4,,2,15847,4.14988,0.07476,2600.763,312.313,25.2,
1561,1,SBT2050,2,4,,2,15900,4.15002,0.07367,2601.854,312.313,25.2,
1561,1,SBT2050,2,4,,2,15953,4.14989,0.07232,2602.929,312.313,25.1,
1561,1,SBT2050,2,4,,2,16006,4.15011,0.07098,2603.985,312.313,25.2,
1561,1,SBT2050,2,4,,2,16059,4.15001,0.07035,2605.026,312.313,25.2,
1561,1,SBT2050,2,4,,2,16112,4.15021,0.06886,2606.054,312.313,25.2,
1561,1,SBT2050,2,4,,2,16165,4.15026,0.06793,2607.06,312.313,25.1,
1561,1,SBT2050,2,4,,2,16218,4.15021,0.06715,2608.057,312.313,25.2,
1561,1,SBT2050,2,4,,2,16271,4.14971,0.06672,2609.04,312.313,25.2,
1561,1,SBT2050,2,4,,2,16324,4.15019,0.06558,2610.012,312.313,25.2,
1561,1,SBT2050,2,4,,2,16377,4.150066,0.06458,2610.971,312.313,25.2,
1561,1,SBT2050,2,4,,2,16430,4.14986,0.06372,2611.914,312.313,25.2,
1561,1,SBT2050,2,4,,2,16483,4.15001,0.0627,2612.847,312.313,25.1,
1561,1,SBT2050,2,4,,2,16536,4.149792,0.06196,2613.765,312.313,25.1,
1561,1,SBT2050,2,4,,2,16589,4.15001,0.06119,2614.673,312.313,25.2,
1561,1,SBT2050,2,4,,2,16642,4.150054,0.06032,2615.568,312.313,25.1,
1561,1,SBT2050,2,4,,2,16695,4.15009,0.05954,2616.452,312.313,25.1,
1561,1,SBT2050,2,4,,2,16748,4.15049,0.05925,2617.324,312.313,25.2,
1561,1,SBT2050,2,4,,2,16801,4.15009,0.05799,2618.189,312.313,25.2,
1561,1,SBT2050,2,4,,2,16854,4.15019,0.05702,2619.039,312.313,25.1,
1561,1,SBT2050,2,4,,2,16907,4.150042,0.05669,2619.878,312.313,25.1,
1561,1,SBT2050,2,4,,2,16960,4.15013,0.05565,2620.707,312.313,25.1,
1561,1,SBT2050,2,4,,2,17013,4.14989,0.05476,2621.525,312.313,25.1,
1561,1,SBT2050,2,4,,2,17066,4.15026,0.05434,2622.332,312.313,25.1,
1561,1,SBT2050,2,4,,2,17119,4.1501,0.05367,2623.127,312.313,25.2,
1561,1,SBT2050,2,4,,2,17172,4.15003,0.05279,2623.913,312.313,25.1,
1561,1,SBT2050,2,4,,2,17225,4.14998,0.05235,2624.691,312.313,25.1,
1561,1,SBT2050,2,4,,2,17278,4.14997,0.0518,2625.456,312.313,25.1,
1561,1,SBT2050,2,4,,2,17331,4.15009,0.05106,2626.214,312.313,25.1,
1561,1,SBT2050,2,4,,2,17384,4.15017,0.05076,2626.963,312.313,25.2,
1561,1,SBT2050,2,4,,2,17437,4.14998,0.04997,2627.703,312.313,25.2,
1561,1,SBT2050,2,4,,2,17490,4.150066,0.04924,2628.436,312.313,25.1,
1561,1,SBT2050,2,4,,2,17543,4.15028,0.04842,2629.158,312.313,25.1,
1561,1,SBT2050,2,4,,2,17596,4.14988,0.04823,2629.872,312.313,25.1,
1561,1,SBT2050,2,4,,2,17649,4.15015,0.047465,2630.578,312.313,25.2,
1561,1,SBT2050,2,4,,2,17702,4.150054,0.04728,2631.275,312.313,25.2,
1561,1,SBT2050,2,4,,2,17755,4.150042,0.046351,2631.964,312.313,25.2,
1561,1,SBT2050,2,4,,2,17808,4.14992,0.04583,2632.644,312.313,25.2,
1561,1,SBT2050,2,4,,2,17861,4.150066,0.045641,2633.319,312.313,25.1,
1561,1,SBT2050,2,4,,2,17914,4.14993,0.044916,2633.984,312.313,25.2,
1561,1,SBT2050,2,4,,2,17967,4.150042,0.044377,2634.642,312.313,25.2,
1561,1,SBT2050,2,4,,2,18020,4.14986,0.043968,2635.291,312.313,25.2,
1561,1,SBT2050,2,4,,2,18073,4.149804,0.043581,2635.934,312.313,25.1,
1561,1,SBT2050,2,4,,2,18126,4.14992,0.043514,2636.574,312.313,25.2,
1561,1,SBT2050,2,4,,2,18179,4.1502,0.04226,2637.206,312.313,25.2,
1561,1,SBT2050,2,4,,2,18232,4.15017,0.042169,2637.828,312.313,25.2,
1561,1,SBT2050,2,4,,2,18285,4.15022,0.041543,2638.446,312.313,25.2,
1561,1,SBT2050,2,4,,2,18338,4.14992,0.041054,2639.057,312.313,25.2,
1561,1,SBT2050,2,4,,2,18391,4.15002,0.040634,2639.659,312.313,25.2,
1561,1,SBT2050,2,4,,2,18444,4.150078,0.040218,2640.257,312.313,25.2,
1561,1,SBT2050,2,4,,2,18497,4.15011,0.039785,2640.85,312.313,25.2,
1561,1,SBT2050,2,4,,2,18550,4.15021,0.039258,2641.434,312.313,25.2,
1561,1,SBT2050,2,4,,2,18603,4.14988,0.039007,2642.012,312.313,25.2,
1561,1,SBT2050,2,4,,2,18656,4.14978,0.038529,2642.58,312.313,25.2,
1561,1,SBT2050,2,4,,2,18709,4.15011,0.037945,2643.142,312.313,25.1,
1561,1,SBT2050,2,4,,2,18762,4.14999,0.03784,2643.699,312.313,25.1,
1561,1,SBT2050,2,4,,2,18815,4.15019,0.037745,2644.253,312.313,25.2,
1561,1,SBT2050,2,4,,2,18868,4.14996,0.036466,2644.805,312.313,25.2,
1561,1,SBT2050,2,4,,2,18921,4.14966,0.036372,2645.345,312.313,25.2,
1561,1,SBT2050,2,4,,2,18974,4.15015,0.036208,2645.878,312.313,25.1,
1561,1,SBT2050,2,4,,2,19027,4.14992,0.035733,2646.406,312.313,25.1,
1561,1,SBT2050,2,4,,2,19080,4.14978,0.035359,2646.928,312.313,25.1,
1561,1,SBT2050,2,4,,2,19133,4.14992,0.035244,2647.447,312.313,25.1,
1561,1,SBT2050,2,4,,2,19186,4.15011,0.034708,2647.961,312.313,25.1,
1561,1,SBT2050,2,4,,2,19239,4.15009,0.034191,2648.467,312.313,25.2,
1561,1,SBT2050,2,4,,2,19292,4.149804,0.034174,2648.97,312.313,25.2,
1561,1,SBT2050,2,4,,2,19345,4.1497,0.03343,2649.467,312.313,25.2,
1561,1,SBT2050,2,4,,2,19398,4.15001,0.033161,2649.96,312.313,25.1,
1561,1,SBT2050,2,4,,2,19451,4.14997,0.033046,2650.447,312.313,25.1,
1561,1,SBT2050,2,4,,2,19504,4.14974,0.03265,2650.93,312.313,25.1,
1561,1,SBT2050,2,4,,2,19557,4.150066,0.033194,2651.414,312.313,25.1,
1561,1,SBT2050,2,4,,2,19610,4.14986,0.032926,2651.893,312.313,25.2,
1561,1,SBT2050,2,4,,2,19663,4.14993,0.031937,2652.366,312.313,25.2,
1561,1,SBT2050,2,4,,2,19716,4.14989,0.031212,2652.836,312.313,25.2,
1561,1,SBT2050,2,4,,2,19769,4.149804,0.031026,2653.295,312.313,25.1,
1561,1,SBT2050,2,4,,2,19822,4.1502,0.030748,2653.75,312.313,25.1,
1561,1,SBT2050,2,4,,2,19875,4.14986,0.030912,2654.2,312.313,25.1,
1561,1,SBT2050,2,4,,2,19928,4.14992,0.030287,2654.649,312.313,25.2,
1561,1,SBT2050,2,4,,2,19981,4.1501,0.029806,2655.09,312.313,25.2,
1561,1,SBT2050,2,4,,2,20034,4.15001,0.029351,2655.528,312.313,25.2,
1561,1,SBT2050,2,4,,2,20087,4.150078,0.029236,2655.961,312.313,25.2,
1561,1,SBT2050,2,4,,2,20140,4.150078,0.028778,2656.388,312.313,25.1,
1561,1,SBT2050,2,4,,2,20193,4.14972,0.029239,2656.811,312.313,25.1,
1561,1,SBT2050,2,4,,2,20246,4.15017,0.028355,2657.236,312.313,25.2,
1561,1,SBT2050,2,4,,2,20299,4.15019,0.028438,2657.657,312.313,25.1,
1561,1,SBT2050,2,4,,2,20352,4.150054,0.028615,2658.079,312.313,25.1,
1561,1,SBT2050,2,4,,2,20405,4.14996,0.027924,2658.494,312.313,25.1,
1561,1,SBT2050,2,4,,2,20458,4.15028,0.026983,2658.903,312.313,25.1,
1561,1,SBT2050,2,4,,2,20511,4.14995,0.02724,2659.305,312.313,25.1,
1561,1,SBT2050,2,4,,2,20564,4.15021,0.026967,2659.703,312.313,25.2,
1561,1,SBT2050,2,4,,2,20617,4.15013,0.027373,2660.101,312.313,25.1,
1561,1,SBT2050,2,4,,2,20670,4.15001,0.026574,2660.496,312.313,25.1,
1561,1,SBT2050,2,4,,2,20723,4.15001,0.026231,2660.888,312.313,25.1,
1561,1,SBT2050,2,4,,2,20776,4.14988,0.0259,2661.272,312.313,25.1,
1561,1,SBT2050,2,4,,2,20829,4.14998,0.02543,2661.653,312.313,25.2,
1561,1,SBT2050,2,4,,2,20882,4.14989,0.025329,2662.029,312.313,25.1,
1561,1,SBT2050,2,4,,2,20935,4.15001,0.025078,2662.402,312.313,25.1,
1561,1,SBT2050,2,4,,2,20988,4.15015,0.025489,2662.773,312.313,25.1,
1561,1,SBT2050,2,4,,2,21041,4.15026,0.024868,2663.142,312.313,25.1,
1561,1,SBT2050,2,4,,2,21094,4.14999,0.024498,2663.508,312.313,25.2,
1561,1,SBT2050,2,4,,2,21147,4.14991,0.024657,2663.872,312.313,25.2,
1561,1,SBT2050,2,4,,2,21200,4.1499,0.024532,2664.232,312.313,25.1,
1561,1,SBT2050,2,4,,2,21253,4.15011,0.02422,2664.592,312.313,25.1,
1561,1,SBT2050,2,4,,2,21306,4.14988,0.023951,2664.946,312.313,25.1,
1561,1,SBT2050,2,4,,2,21359,4.15023,0.024114,2665.299,312.313,25.1,
1561,1,SBT2050,2,4,,2,21412,4.15003,0.023759,2665.65,312.313,25.1,
1561,1,SBT2050,2,4,,2,21465,4.1499,0.023116,2666.001,312.313,25.2,
1561,1,SBT2050,2,4,,2,21518,4.15009,0.022972,2666.344,312.313,25.2,
1561,1,SBT2050,2,4,,2,21571,4.15019,0.023129,2666.685,312.313,25.1,
1561,1,SBT2050,2,4,,2,21624,4.14991,0.022506,2667.02,312.313,25.1,
1561,1,SBT2050,2,4,,2,21677,4.150042,0.022458,2667.35,312.313,25.1,
1561,1,SBT2050,2,4,,2,21730,4.1502,0.022221,2667.68,312.313,25.1,
1561,1,SBT2050,2,4,,2,21783,4.15013,0.022172,2668.007,312.313,25.1,
1561,1,SBT2050,2,4,,2,21836,4.14996,0.022072,2668.332,312.313,25.1,
1561,1,SBT2050,2,4,,2,21889,4.14992,0.021632,2668.654,312.313,25.1,
1561,1,SBT2050,2,4,,2,21942,4.14997,0.021764,2668.971,312.313,25.2,
1561,1,SBT2050,2,4,,2,21995,4.14985,0.021306,2669.287,312.313,25.1,
1561,1,SBT2050,2,4,,2,22048,4.14991,0.020979,2669.599,312.313,25.1,
1561,1,SBT2050,2,4,,2,22101,4.14959,0.02145,2669.91,312.313,25.1,
1561,1,SBT2050,2,4,,2,22154,4.14991,0.021051,2670.219,312.313,25.1,
1561,1,SBT2050,2,4,,2,22207,4.14982,0.02086,2670.526,312.313,25.2,
1561,1,SBT2050,2,4,,2,22260,4.14989,0.02054,2670.828,312.313,25.1,
1561,1,SBT2050,2,4,,2,22313,4.14991,0.020164,2671.128,312.313,25.1,
1561,1,SBT2050,2,4,,2,22366,4.15024,0.020255,2671.425,312.313,25.1,
1561,1,SBT2050,2,4,,2,22419,4.14973,0.020575,2671.725,312.313,25.1,
1561,1,SBT2050,2,4,,2,22472,4.14986,0.019905,2672.022,312.313,25.1,
1561,1,SBT2050,2,4,,2,22525,4.14997,0.019893,2672.311,312.313,25.1,
1561,1,SBT2050,2,4,,2,22578,4.150054,0.019683,2672.601,312.313,25.1,
1561,1,SBT2050,2,4,,2,22631,4.15002,0.019037,2672.885,312.313,25.1,
1561,1,SBT2050,2,4,,2,22684,4.150054,0.019248,2673.168,312.313,25.1,
1561,1,SBT2050,2,4,,2,22737,4.150066,0.019154,2673.45,312.313,25.1,
1561,1,SBT2050,2,4,,2,22790,4.14992,0.018911,2673.729,312.313,25.1,
1561,1,SBT2050,2,4,,2,22843,4.14998,0.018814,2674.006,312.313,25.1,
1561,1,SBT2050,2,4,,2,22896,4.15019,0.018494,2674.28,312.313,25.1,
1561,1,SBT2050,2,4,,2,22949,4.14971,0.018694,2674.552,312.313,25.1,
1561,1,SBT2050,2,4,,2,23002,4.15003,0.018323,2674.824,312.313,25.1,
1561,1,SBT2050,2,4,,2,23055,4.14998,0.018232,2675.092,312.313,25.1,
1561,1,SBT2050,2,4,,2,23108,4.15001,0.01813,2675.359,312.313,25.1,
1561,1,SBT2050,2,4,,2,23161,4.14992,0.017863,2675.625,312.313,25.1,
1561,1,SBT2050,2,4,,2,23214,4.15016,0.01761,2675.885,312.313,25.1,
1561,1,SBT2050,2,4,,2,23267,4.1502,0.017267,2676.143,312.313,25.1,
1561,1,SBT2050,2,4,,2,23320,4.14988,0.017922,2676.402,312.313,25.1,
1561,1,SBT2050,2,4,,2,23373,4.150078,0.01705,2676.654,312.313,25.1,
1561,1,SBT2050,2,4,,2,23426,4.14989,0.017204,2676.908,312.313,25.1,
1561,1,SBT2050,2,4,,2,23479,4.14989,0.017097,2677.16,312.313,25.1,
1561,1,SBT2050,2,4,,2,23532,4.1501,0.017197,2677.412,312.313,25.1,
1561,1,SBT2050,2,4,,2,23585,4.14991,0.01677,2677.66,312.313,25.1,
1561,1,SBT2050,2,4,,2,23638,4.150078,0.01672,2677.906,312.313,25.1,
1561,1,SBT2050,2,4,,2,23691,4.14995,0.016999,2678.154,312.313,25.1,
1561,1,SBT2050,2,4,,2,23744,4.14961,0.016706,2678.399,312.313,25.1,
1561,1,SBT2050,2,4,,2,23797,4.14992,0.016541,2678.643,312.313,25.1,
1561,1,SBT2050,2,4,,2,23850,4.149792,0.016278,2678.879,312.313,25.1,
1561,1,SBT2050,2,4,,2,23903,4.15009,0.016115,2679.116,312.313,25.1,
1561,1,SBT2050,2,4,,2,23956,4.15016,0.015843,2679.35,312.313,25.1,
1561,1,SBT2050,2,4,,2,24009,4.1499,0.016034,2679.586,312.313,25.1,
1561,1,SBT2050,2,4,,2,24062,4.150054,0.01582,2679.818,312.313,25.1,
1561,1,SBT2050,2,4,,2,24115,4.14991,0.015788,2680.049,312.313,25.1,
1561,1,SBT2050,2,4,,2,24168,4.14978,0.015588,2680.28,312.313,25.1,
1561,1,SBT2050,2,4,,2,24221,4.14978,0.015672,2680.509,312.313,25.1,
1561,1,SBT2050,2,4,,2,24274,4.1496,0.015376,2680.736,312.313,25.1,
1561,1,SBT2050,2,4,,2,24327,4.15011,0.015173,2680.959,312.313,25.1,
1561,1,SBT2050,2,4,,2,24380,4.14986,0.015123,2681.181,312.313,25.1,
1561,1,SBT2050,2,4,,2,24433,4.14991,0.014904,2681.401,312.313,25.1,
1561,1,SBT2050,2,4,,2,24486,4.15009,0.01464,2681.619,312.313,25.1,
1561,1,SBT2050,2,4,,2,24539,4.14983,0.015223,2681.835,312.313,25.1,
1561,1,SBT2050,2,4,,2,24592,4.14997,0.014511,2682.05,312.313,25.1,
1561,1,SBT2050,2,4,,2,24645,4.14995,0.014766,2682.264,312.313,25.1,
1561,1,SBT2050,2,4,,2,24698,4.150042,0.014831,2682.483,312.313,25.1,
1561,1,SBT2050,2,4,,2,24751,4.149756,0.01441,2682.698,312.313,25.1,
1561,1,SBT2050,2,4,,2,24804,4.149804,0.014361,2682.911,312.313,25.2,
1561,1,SBT2050,2,4,,2,24857,4.14971,0.014291,2683.118,312.313,25.1,
1561,1,SBT2050,2,4,,2,24910,4.1501,0.014314,2683.331,312.313,25.1,
1561,1,SBT2050,2,4,,2,24963,4.14993,0.013574,2683.536,312.313,25.1,
1561,1,SBT2050,2,4,,2,25016,4.15001,0.01427,2683.738,312.313,25.1,
1561,1,SBT2050,2,4,,2,25069,4.14993,0.013839,2683.945,312.313,25.1,
1561,1,SBT2050,2,4,,2,25122,4.15027,0.013404,2684.145,312.313,25.1,
1561,1,SBT2050,2,4,,2,25175,4.15002,0.013319,2684.344,312.313,25.1,
1561,1,SBT2050,2,4,,2,25228,4.14992,0.013563,2684.542,312.313,25.1,
1561,1,SBT2050,2,4,,2,25281,4.14991,0.013196,2684.741,312.313,25.1,
1561,1,SBT2050,2,4,,2,25334,4.150042,0.013469,2684.936,312.313,25.1,
1561,1,SBT2050,2,4,,2,25387,4.14978,0.01365,2685.133,312.313,25.1,
1561,1,SBT2050,2,4,,2,25440,4.14992,0.013107,2685.326,312.313,25.1,
1561,1,SBT2050,2,4,,2,25493,4.14989,0.013134,2685.518,312.313,25.1,
1561,1,SBT2050,2,4,,2,25546,4.15026,0.012838,2685.709,312.313,25.2,
1561,1,SBT2050,2,4,,2,25599,4.150042,0.012808,2685.9,312.313,25.2,
1561,1,SBT2050,2,4,,2,25652,4.15003,0.012355,2686.083,312.313,25.1,
1561,1,SBT2050,2,4,,2,25705,4.14999,0.012807,2686.269,312.313,25.1,
1561,1,SBT2050,2,4,,2,25758,4.14995,0.01259,2686.454,312.313,25.1,
1561,1,SBT2050,2,4,,2,25811,4.14988,0.012506,2686.639,312.313,25.1,
1561,1,SBT2050,2,4,,2,25864,4.150042,0.012737,2686.825,312.313,25.1,
1561,1,SBT2050,2,4,,2,25917,4.150078,0.012292,2687.011,312.313,25.1,
1561,1,SBT2050,2,4,,2,25970,4.14971,0.012512,2687.194,312.313,25.1,
1561,1,SBT2050,2,4,,2,26023,4.150066,0.012358,2687.376,312.313,25.1,
1561,1,SBT2050,2,4,,2,26076,4.150078,0.012289,2687.556,312.313,25.1,
1561,1,SBT2050,2,4,,2,26129,4.150042,0.012165,2687.737,312.313,25.1,
1561,1,SBT2050,2,4,,2,26182,4.14996,0.011385,2687.911,312.313,25.1,
1561,1,SBT2050,2,4,,2,26235,4.15022,0.011241,2688.084,312.313,25.1,
1561,1,SBT2050,2,4,,2,26288,4.14997,0.011631,2688.256,312.313,25.1,
1561,1,SBT2050,2,4,,2,26341,4.15013,0.011675,2688.429,312.313,25.1,
1561,1,SBT2050,2,4,,2,26394,4.14986,0.011608,2688.598,312.313,25.1,
1561,1,SBT2050,2,4,,2,26447,4.14986,0.01157,2688.769,312.313,25.1,
1561,1,SBT2050,2,4,,2,26500,4.15023,0.011971,2688.94,312.313,25.1,
1561,1,SBT2050,2,4,,2,26553,4.14988,0.01139,2689.111,312.313,25.1,
1561,1,SBT2050,2,4,,2,26606,4.15023,0.011834,2689.28,312.313,25.1,
1561,1,SBT2050,2,4,,2,26659,4.14985,0.011438,2689.448,312.313,25.1,
1561,1,SBT2050,2,4,,2,26712,4.150078,0.011153,2689.612,312.313,25.1,
1561,1,SBT2050,2,4,,2,26765,4.15014,0.010968,2689.782,312.313,25.1,
1561,1,SBT2050,2,4,,2,26818,4.150042,0.011422,2689.948,312.313,25.1,
1561,1,SBT2050,2,4,,2,26871,4.14999,0.010973,2690.108,312.313,25.1,
1561,1,SBT2050,2,4,,2,26924,4.150042,0.011032,2690.268,312.313,25.1,
1561,1,SBT2050,2,4,,2,26977,4.14984,0.010773,2690.428,312.313,25.1,
1561,1,SBT2050,2,4,,2,27030,4.15019,0.010723,2690.587,312.313,25.1,
1561,1,SBT2050,2,4,,2,27083,4.14992,0.010692,2690.746,312.313,25.1,
1561,1,SBT2050,2,4,,2,27136,4.150078,0.010562,2690.902,312.313,25.1,
1561,1,SBT2050,2,4,,2,27189,4.150078,0.010983,2691.061,312.313,25.1,
1561,1,SBT2050,2,4,,2,27242,4.150066,0.010477,2691.219,312.313,25.1,
1561,1,SBT2050,2,4,,3,27294,4.14776,0,2691.257,312.313,25.1,
1561,1,SBT2050,2,4,,3,27347,4.14666,0,2691.257,312.313,25.1,
1561,1,SBT2050,2,4,,3,27400,4.14669,0,2691.257,312.313,25,
1561,1,SBT2050,2,4,,3,27453,4.14604,0,2691.257,312.313,25.1,
1561,1,SBT2050,2,4,,3,27506,4.14603,0,2691.257,312.313,25.1,
1561,1,SBT2050,2,4,,3,27559,4.14566,0,2691.257,312.313,25.1,
1561,1,SBT2050,2,4,,3,27612,4.145484,0,2691.257,312.313,25.1,
1561,1,SBT2050,2,4,,3,27665,4.14519,0,2691.257,312.313,25.1,
1561,1,SBT2050,2,4,,3,27718,4.14477,0,2691.257,312.313,25,
1561,1,SBT2050,2,4,,3,27771,4.14471,0,2691.257,312.313,25.1,
1561,1,SBT2050,2,4,,3,27824,4.14462,0,2691.257,312.313,25.1,
1561,1,SBT2050,2,4,,3,27877,4.144658,0,2691.257,312.313,25.1,
1561,1,SBT2050,2,4,,3,27930,4.14415,0,2691.257,312.313,25.1,
1561,1,SBT2050,2,4,,3,27983,4.14435,0,2691.257,312.313,25.1,
1561,1,SBT2050,2,4,,3,28036,4.14384,0,2691.257,312.313,25.1,
1561,1,SBT2050,2,4,,3,28089,4.14412,0,2691.257,312.313,25.1,
1561,1,SBT2050,2,4,,3,28142,4.14377,0,2691.257,312.313,25.1,
1561,1,SBT2050,2,4,,3,28195,4.14366,0,2691.257,312.313,25.1,
1561,1,SBT2050,2,4,,3,28248,4.14368,0,2691.257,312.313,25.1,
1561,1,SBT2050,2,4,,3,28301,4.14363,0,2691.257,312.313,25.1,
1561,1,SBT2050,2,4,,3,28354,4.14302,0,2691.257,312.313,25.1,
1561,1,SBT2050,2,4,,3,28407,4.14314,0,2691.257,312.313,25.1,
1561,1,SBT2050,2,4,,3,28460,4.14325,0,2691.257,312.313,25.1,
1561,1,SBT2050,2,4,,3,28513,4.14284,0,2691.257,312.313,25.1,
1561,1,SBT2050,2,4,,3,28566,4.1433,0,2691.257,312.313,25.1,
1561,1,SBT2050,2,4,,3,28619,4.14264,0,2691.257,312.313,25.1,
1561,1,SBT2050,2,4,,3,28672,4.142494,0,2691.257,312.313,25.1,
1561,1,SBT2050,2,4,,3,28725,4.14252,0,2691.257,312.313,25.1,
1561,1,SBT2050,2,4,,3,28778,4.1427,0,2691.257,312.313,25.1,
1561,1,SBT2050,2,4,,3,28831,4.14245,0,2691.257,312.313,25.1,
1561,1,SBT2050,2,4,,3,28884,4.142496,0,2691.257,312.313,25.1,
1561,1,SBT2050,2,4,,3,28937,4.14236,0,2691.257,312.313,25.1,
1561,1,SBT2050,2,4,,3,28990,4.14221,0,2691.257,312.313,25.1,
1561,1,SBT2050,2,4,,3,29043,4.14232,0,2691.257,312.313,25.1,
1561,1,SBT2050,2,4,,4,29095,3.77326,-2.936,2691.257,344.806,25.5,
1561,1,SBT2050,2,4,,4,29148,3.738066,-2.9359,2691.257,388.03,26.3,
1561,1,SBT2050,2,4,,4,29201,3.72169,-2.9357,2691.257,431.254,26.9,
1561,1,SBT2050,2,4,,4,29254,3.71044,-2.9363,2691.257,474.477,27.5,
1561,1,SBT2050,2,4,,4,29307,3.700994,-2.9364,2691.257,517.701,27.9,
1561,1,SBT2050,2,4,,4,29360,3.691846,-2.936,2691.257,560.925,28.3,
1561,1,SBT2050,2,4,,4,29413,3.68207,-2.9362,2691.257,604.149,28.5,
1561,1,SBT2050,2,4,,4,29466,3.67209,-2.9355,2691.257,647.373,28.7,
1561,1,SBT2050,2,4,,4,29519,3.66145,-2.9361,2691.257,690.597,28.8,
1561,1,SBT2050,2,4,,4,29572,3.64989,-2.9363,2691.257,733.821,28.9,
1561,1,SBT2050,2,4,,4,29625,3.63814,-2.9357,2691.257,777.044,29,
1561,1,SBT2050,2,4,,4,29678,3.6257,-2.9363,2691.257,820.268,29.1,
1561,1,SBT2050,2,4,,4,29731,3.6126,-2.9359,2691.257,863.492,29.1,
1561,1,SBT2050,2,4,,4,29784,3.59959,-2.9363,2691.257,906.716,29.1,
1561,1,SBT2050,2,4,,4,29837,3.58615,-2.9357,2691.257,949.94,29.1,
1561,1,SBT2050,2,4,,4,29890,3.57234,-2.9357,2691.257,993.164,29.1,
1561,1,SBT2050,2,4,,4,29943,3.558342,-2.9358,2691.257,1036.388,29.1,
1561,1,SBT2050,2,4,,4,29996,3.54418,-2.936,2691.257,1079.611,29.2,
1561,1,SBT2050,2,4,,4,30049,3.52987,-2.936,2691.257,1122.835,29.2,
1561,1,SBT2050,2,4,,4,30102,3.51542,-2.9359,2691.257,1166.059,29.2,
1561,1,SBT2050,2,4,,4,30155,3.50109,-2.9357,2691.257,1209.283,29.2,
1561,1,SBT2050,2,4,,4,30208,3.486566,-2.9366,2691.257,1252.507,29.2,
1561,1,SBT2050,2,4,,4,30261,3.47211,-2.9357,2691.257,1295.731,29.2,
1561,1,SBT2050,2,4,,4,30314,3.45739,-2.936,2691.257,1338.955,29.2,
1561,1,SBT2050,2,4,,4,30367,3.44293,-2.936,2691.257,1382.178,29.2,
1561,1,SBT2050,2,4,,4,30420,3.42836,-2.9359,2691.257,1425.402,29.3,
1561,1,SBT2050,2,4,,4,30473,3.41348,-2.9363,2691.257,1468.626,29.3,
1561,1,SBT2050,2,4,,4,30526,3.398834,-2.9357,2691.257,1511.85,29.2,
1561,1,SBT2050,2,4,,4,30579,3.38429,-2.9359,2691.257,1555.074,29.3,
1561,1,SBT2050,2,4,,4,30632,3.36958,-2.9356,2691.257,1598.297,29.3,
1561,1,SBT2050,2,4,,4,30685,3.35462,-2.9359,2691.257,1641.521,29.3,
1561,1,SBT2050,2,4,,4,30738,3.33957,-2.9358,2691.257,1684.745,29.4,
1561,1,SBT2050,2,4,,4,30791,3.32427,-2.936,2691.257,1727.969,29.4,
1561,1,SBT2050,2,4,,4,30844,3.3084,-2.9355,2691.257,1771.193,29.5,
1561,1,SBT2050,2,4,,4,30897,3.29275,-2.9362,2691.257,1814.417,29.5,
1561,1,SBT2050,2,4,,4,30950,3.276371,-2.9357,2691.257,1857.641,29.6,
1561,1,SBT2050,2,4,,4,31003,3.259522,-2.936,2691.257,1900.865,29.6,
1561,1,SBT2050,2,4,,4,31056,3.24205,-2.9358,2691.257,1944.088,29.7,
1561,1,SBT2050,2,4,,4,31109,3.22369,-2.936,2691.257,1987.312,29.8,
1561,1,SBT2050,2,4,,4,31162,3.20499,-2.9362,2691.257,2030.536,29.9,
1561,1,SBT2050,2,4,,4,31215,3.18512,-2.9359,2691.257,2073.76,30,
1561,1,SBT2050,2,4,,4,31268,3.16467,-2.9359,2691.257,2116.984,30.3,
1561,1,SBT2050,2,4,,4,31321,3.14245,-2.9359,2691.257,2160.207,30.3,
1561,1,SBT2050,2,4,,4,31374,3.11962,-2.936,2691.257,2203.431,30.5,
1561,1,SBT2050,2,4,,4,31427,3.0949,-2.9357,2691.257,2246.655,30.6,
1561,1,SBT2050,2,4,,4,31480,3.06837,-2.9359,2691.257,2289.879,30.9,
1561,1,SBT2050,2,4,,4,31533,3.03949,-2.9365,2691.257,2333.103,31.1,
1561,1,SBT2050,2,4,,4,31586,3.008466,-2.9359,2691.257,2376.327,31.3,
1561,1,SBT2050,2,4,,4,31639,2.97391,-2.9357,2691.257,2419.551,31.6,
1561,1,SBT2050,2,4,,4,31692,2.93485,-2.9358,2691.257,2462.774,31.8,
1561,1,SBT2050,2,4,,4,31745,2.889355,-2.9359,2691.257,2505.998,32.2,
1561,1,SBT2050,2,4,,4,31798,2.833557,-2.9358,2691.257,2549.222,32.5,
1561,1,SBT2050,2,4,,4,31851,2.75997,-2.9359,2691.257,2592.446,32.8,
1561,1,SBT2050,2,4,,4,31904,2.651979,-2.9357,2691.257,2635.67,33.4,
1561,1,SBT2050,2,4,,4,31957,2.49961,-2.7613,2691.257,2678.712,34.1,
1561,1,SBT2050,2,4,,4,32010,2.49975,-2.1349,2691.257,2714.247,34.7,
1561,1,SBT2050,2,4,,4,32063,2.49981,-1.7132,2691.257,2742.442,34.6,
1561,1,SBT2050,2,4,,4,32116,2.49974,-1.389,2691.257,2765.177,34.2,
1561,1,SBT2050,2,4,,4,32169,2.4998,-1.141,2691.257,2783.721,33.7,
1561,1,SBT2050,2,4,,4,32222,2.49992,-0.9514,2691.257,2799.065,32.9,
1561,1,SBT2050,2,4,,4,32275,2.49997,-0.8074,2691.257,2811.962,32.2,
1561,1,SBT2050,2,4,,4,32328,2.49978,-0.6956,2691.257,2822.987,31.5,
1561,1,SBT2050,2,4,,4,32381,2.49978,-0.6096,2691.257,2832.568,30.9,
1561,1,SBT2050,2,4,,4,32434,2.49993,-0.5415,2691.257,2841.02,30.3,
1561,1,SBT2050,2,4,,4,32487,2.49986,-0.4855,2691.257,2848.567,29.8,
1561,1,SBT2050,2,4,,4,32540,2.49992,-0.43952,2691.257,2855.37,29.3,
1561,1,SBT2050,2,4,,4,32593,2.49992,-0.40143,2691.257,2861.553,28.9,
1561,1,SBT2050,2,4,,4,32646,2.4999,-0.36902,2691.257,2867.22,28.6,
1561,1,SBT2050,2,4,,4,32699,2.49979,-0.34132,2691.257,2872.446,28.2,
1561,1,SBT2050,2,4,,4,32752,2.49975,-0.31734,2691.257,2877.29,27.9,
1561,1,SBT2050,2,4,,4,32805,2.50007,-0.29635,2691.257,2881.804,27.7,
1561,1,SBT2050,2,4,,4,32858,2.50006,-0.27776,2691.257,2886.027,27.5,
1561,1,SBT2050,2,4,,4,32911,2.49997,-0.26164,2691.257,2889.993,27.3,
1561,1,SBT2050,2,4,,4,32964,2.500015,-0.2473,2691.257,2893.735,27.1,
1561,1,SBT2050,2,4,,4,33017,2.499872,-0.23441,2691.257,2897.28,27,
1561,1,SBT2050,2,4,,4,33070,2.4999,-0.22358,2691.257,2900.649,26.9,
1561,1,SBT2050,2,4,,4,33123,2.49997,-0.21278,2691.257,2903.86,26.7,
1561,1,SBT2050,2,4,,4,33176,2.50005,-0.20358,2691.257,2906.926,26.6,
1561,1,SBT2050,2,4,,4,33229,2.49997,-0.19519,2691.257,2909.862,26.5,
1561,1,SBT2050,2,4,,4,33282,2.499872,-0.18747,2691.257,2912.68,26.4,
1561,1,SBT2050,2,4,,4,33335,2.500027,-0.18044,2691.257,2915.387,26.4,
1561,1,SBT2050,2,4,,4,33388,2.49985,-0.17368,2691.257,2917.994,26.3,
1561,1,SBT2050,2,4,,4,33441,2.49997,-0.16766,2691.257,2920.506,26.2,
1561,1,SBT2050,2,4,,4,33494,2.49996,-0.1618,2691.257,2922.93,26.2,
1561,1,SBT2050,2,4,,4,33547,2.49993,-0.1564,2691.257,2925.271,26.1,
1561,1,SBT2050,2,4,,4,33600,2.49994,-0.15123,2691.257,2927.534,26.1,
1561,1,SBT2050,2,4,,4,33653,2.500015,-0.14617,2691.257,2929.723,26,
1561,1,SBT2050,2,4,,4,33706,2.49994,-0.14152,2691.257,2931.839,26,
1561,1,SBT2050,2,4,,4,33759,2.49994,-0.13647,2691.257,2933.885,26,
1561,1,SBT2050,2,4,,4,33812,2.499872,-0.13245,2691.257,2935.867,25.9,
1561,1,SBT2050,2,4,,4,33865,2.50005,-0.12836,2691.257,2937.785,25.9,
1561,1,SBT2050,2,4,,4,33918,2.49992,-0.1241,2691.257,2939.641,25.9,
1561,1,SBT2050,2,4,,4,33971,2.49994,-0.11999,2691.257,2941.437,25.8,
1561,1,SBT2050,2,4,,4,34024,2.50009,-0.11619,2691.257,2943.176,25.8,
1561,1,SBT2050,2,4,,4,34077,2.49982,-0.11249,2691.257,2944.857,25.8,
1561,1,SBT2050,2,4,,4,34130,2.50007,-0.1089,2691.257,2946.487,25.8,
1561,1,SBT2050,2,4,,4,34183,2.500003,-0.10555,2691.257,2948.064,25.8,
1561,1,SBT2050,2,4,,4,34236,2.49991,-0.10206,2691.257,2949.591,25.7,
1561,1,SBT2050,2,4,,4,34289,2.49969,-0.09877,2691.257,2951.069,25.7,
1561,1,SBT2050,2,4,,4,34342,2.49984,-0.09591,2691.257,2952.502,25.7,
1561,1,SBT2050,2,4,,4,34395,2.50004,-0.09291,2691.257,2953.891,25.7,
1561,1,SBT2050,2,4,,4,34448,2.49998,-0.08997,2691.257,2955.237,25.7,
1561,1,SBT2050,2,4,,4,34501,2.49993,-0.08736,2691.257,2956.542,25.6,
1561,1,SBT2050,2,4,,4,34554,2.49996,-0.08459,2691.257,2957.809,25.6,
1561,1,SBT2050,2,4,,4,34607,2.50007,-0.08216,2691.257,2959.037,25.6,
1561,1,SBT2050,2,4,,4,34660,2.50005,-0.08015,2691.257,2960.23,25.6,
1561,1,SBT2050,2,4,,4,34713,2.49997,-0.07745,2691.257,2961.388,25.6,
1561,1,SBT2050,2,4,,4,34766,2.49986,-0.07523,2691.257,2962.511,25.6,
1561,1,SBT2050,2,4,,4,34819,2.49993,-0.07295,2691.257,2963.601,25.6,
1561,1,SBT2050,2,4,,4,34872,2.49996,-0.07069,2691.257,2964.658,25.5,
1561,1,SBT2050,2,4,,4,34925,2.50007,-0.06897,2691.257,2965.685,25.5,
1561,1,SBT2050,2,4,,4,34978,2.50006,-0.06688,2691.257,2966.681,25.5,
1561,1,SBT2050,2,4,,4,35031,2.49992,-0.06482,2691.257,2967.648,25.5,
1561,1,SBT2050,2,4,,4,35084,2.49994,-0.06296,2691.257,2968.586,25.5,
1561,1,SBT2050,2,4,,4,35137,2.49994,-0.06096,2691.257,2969.497,25.5,
1561,1,SBT2050,2,4,,4,35190,2.49998,-0.05918,2691.257,2970.382,25.5,
1561,1,SBT2050,2,4,,4,35243,2.49999,-0.05746,2691.257,2971.241,25.5,
1561,1,SBT2050,2,4,,4,35296,2.49999,-0.05579,2691.257,2972.075,25.4,
1561,1,SBT2050,2,4,,4,35349,2.49985,-0.05423,2691.257,2972.884,25.4,
1561,1,SBT2050,2,4,,4,35402,2.50007,-0.05265,2691.257,2973.67,25.5,
1561,1,SBT2050,2,4,,4,35455,2.50009,-0.05123,2691.257,2974.435,25.4,
1561,1,SBT2050,2,4,,4,35508,2.49993,-0.04989,2691.257,2975.178,25.4,
1561,1,SBT2050,2,4,,4,35561,2.49992,-0.04851,2691.257,2975.9,25.4,
1561,1,SBT2050,2,4,,4,35614,2.49997,-0.046892,2691.257,2976.601,25.4,
1561,1,SBT2050,2,4,,4,35667,2.49991,-0.045681,2691.257,2977.283,25.4,
1561,1,SBT2050,2,4,,4,35720,2.49981,-0.044223,2691.257,2977.947,25.4,
1561,1,SBT2050,2,4,,4,35773,2.500003,-0.043237,2691.257,2978.592,25.4,
1561,1,SBT2050,2,4,,4,35826,2.49999,-0.042092,2691.257,2979.22,25.4,
1561,1,SBT2050,2,4,,4,35879,2.49996,-0.040926,2691.257,2979.831,25.4,
1561,1,SBT2050,2,4,,4,35932,2.49998,-0.03989,2691.257,2980.426,25.4,
1561,1,SBT2050,2,4,,4,35985,2.499872,-0.038891,2691.257,2981.005,25.4,
1561,1,SBT2050,2,4,,4,36038,2.49996,-0.037752,2691.257,2981.57,25.3,
1561,1,SBT2050,2,4,,4,36091,2.5001,-0.036769,2691.257,2982.119,25.3,
1561,1,SBT2050,2,4,,4,36144,2.49992,-0.03572,2691.257,2982.654,25.4,
1561,1,SBT2050,2,4,,4,36197,2.499884,-0.034711,2691.257,2983.175,25.3,
1561,1,SBT2050,2,4,,4,36250,2.49993,-0.033791,2691.257,2983.68,25.3,
1561,1,SBT2050,2,4,,4,36303,2.49993,-0.032661,2691.257,2984.172,25.3,
1561,1,SBT2050,2,4,,4,36356,2.49997,-0.03191,2691.257,2984.649,25.3,
1561,1,SBT2050,2,4,,4,36409,2.49991,-0.031084,2691.257,2985.114,25.3,
1561,1,SBT2050,2,4,,4,36462,2.500027,-0.030243,2691.257,2985.565,25.3,
1561,1,SBT2050,2,4,,4,36515,2.50007,-0.029512,2691.257,2986.003,25.3,
1561,1,SBT2050,2,4,,4,36568,2.50012,-0.028613,2691.257,2986.43,25.3,
1561,1,SBT2050,2,4,,4,36621,2.4999,-0.027858,2691.257,2986.845,25.3,
1561,1,SBT2050,2,4,,4,36674,2.49979,-0.026801,2691.257,2987.249,25.3,
1561,1,SBT2050,2,4,,4,36727,2.50012,-0.02637,2691.257,2987.641,25.3,
1561,1,SBT2050,2,4,,4,36780,2.499884,-0.025463,2691.257,2988.024,25.3,
1561,1,SBT2050,2,4,,4,36833,2.50006,-0.025022,2691.257,2988.396,25.3,
1561,1,SBT2050,2,4,,4,36886,2.50005,-0.024396,2691.257,2988.758,25.2,
1561,1,SBT2050,2,4,,4,36939,2.49993,-0.023531,2691.257,2989.11,25.3,
1561,1,SBT2050,2,4,,4,36992,2.49998,-0.022885,2691.257,2989.453,25.3,
1561,1,SBT2050,2,4,,4,37045,2.49992,-0.022295,2691.257,2989.787,25.3,
1561,1,SBT2050,2,4,,4,37098,2.49999,-0.021736,2691.257,2990.112,25.3,
1561,1,SBT2050,2,4,,4,37151,2.50006,-0.021205,2691.257,2990.427,25.2,
1561,1,SBT2050,2,4,,4,37204,2.49997,-0.02065,2691.257,2990.734,25.2,
1561,1,SBT2050,2,4,,4,37257,2.4999,-0.019988,2691.257,2991.033,25.2,
1561,1,SBT2050,2,4,,4,37310,2.49992,-0.019527,2691.257,2991.324,25.2,
1561,1,SBT2050,2,4,,4,37363,2.49999,-0.019104,2691.257,2991.607,25.2,
1561,1,SBT2050,2,4,,4,37416,2.50009,-0.018664,2691.257,2991.884,25.2,
1561,1,SBT2050,2,4,,4,37469,2.49986,-0.018108,2691.257,2992.153,25.2,
1561,1,SBT2050,2,4,,4,37522,2.49979,-0.017442,2691.257,2992.415,25.2,
1561,1,SBT2050,2,4,,4,37575,2.49985,-0.017068,2691.257,2992.67,25.2,
1561,1,SBT2050,2,4,,4,37628,2.50007,-0.016717,2691.257,2992.918,25.2,
1561,1,SBT2050,2,4,,4,37681,2.49985,-0.016026,2691.257,2993.16,25.2,
1561,1,SBT2050,2,4,,4,37734,2.49997,-0.015847,2691.257,2993.395,25.2,
1561,1,SBT2050,2,4,,4,37787,2.50004,-0.015472,2691.257,2993.624,25.2,
1561,1,SBT2050,2,4,,4,37840,2.50015,-0.014967,2691.257,2993.846,25.2,
1561,1,SBT2050,2,4,,4,37893,2.500015,-0.014658,2691.257,2994.062,25.2,
1561,1,SBT2050,2,4,,4,37946,2.50006,-0.0142,2691.257,2994.274,25.2,
1561,1,SBT2050,2,4,,4,37999,2.49998,-0.013751,2691.257,2994.479,25.2,
1561,1,SBT2050,2,4,,4,38052,2.50004,-0.01349,2691.257,2994.68,25.2,
1561,1,SBT2050,2,4,,4,38105,2.50009,-0.013143,2691.257,2994.876,25.2,
1561,1,SBT2050,2,4,,4,38158,2.500027,-0.012839,2691.257,2995.067,25.2,
1561,1,SBT2050,2,4,,4,38211,2.500003,-0.012425,2691.257,2995.254,25.2,
1561,1,SBT2050,2,4,,4,38264,2.49999,-0.012143,2691.257,2995.435,25.2,
1561,1,SBT2050,2,4,,4,38317,2.49998,-0.011749,2691.257,2995.612,25.2,
1561,1,SBT2050,2,4,,4,38370,2.50006,-0.011494,2691.257,2995.784,25.2,
1561,1,SBT2050,2,4,,4,38423,2.49998,-0.011268,2691.257,2995.952,25.2,
1561,1,SBT2050,2,4,,4,38476,2.4998,-0.010895,2691.257,2996.116,25.2,
1561,1,SBT2050,2,4,,4,38529,2.49994,-0.010604,2691.257,2996.276,25.2,
1561,1,SBT2050,2,4,,4,38582,2.500003,-0.010329,2691.257,2996.432,25.2,
1561,1,SBT2050,2,4,,4,38635,2.50005,-0.010332,2691.257,2996.584,25.2,
1561,1,SBT2050,2,4,,5,38687,2.52849,0,2691.257,2996.61,25.2,
1561,1,SBT2050,2,4,,5,38740,2.55356,0,2691.257,2996.61,25.2,
1561,1,SBT2050,2,4,,5,38793,2.57501,0,2691.257,2996.61,25.1,
1561,1,SBT2050,2,4,,5,38846,2.593785,0,2691.257,2996.61,25.2,
1561,1,SBT2050,2,4,,5,38899,2.610581,0,2691.257,2996.61,25.1,
1561,1,SBT2050,2,4,,5,38952,2.62582,0,2691.257,2996.61,25.1,
1561,1,SBT2050,2,4,,5,39005,2.63931,0,2691.257,2996.61,25.2,
1561,1,SBT2050,2,4,,5,39058,2.6516,0,2691.257,2996.61,25.1,
1561,1,SBT2050,2,4,,5,39111,2.66296,0,2691.257,2996.61,25.2,
1561,1,SBT2050,2,4,,5,39164,2.67279,0,2691.257,2996.61,25.2,
1561,1,SBT2050,2,4,,5,39217,2.68218,0,2691.257,2996.61,25.2,
1561,1,SBT2050,2,4,,5,39270,2.69047,0,2691.257,2996.61,25.2,
1561,1,SBT2050,2,4,,5,39323,2.69822,0,2691.257,2996.61,25.1,
1561,1,SBT2050,2,4,,5,39376,2.7052,0,2691.257,2996.61,25.2,
1561,1,SBT2050,2,4,,5,39429,2.71186,0,2691.257,2996.61,25.2,
1561,1,SBT2050,2,4,,5,39482,2.71781,0,2691.257,2996.61,25.2,
1561,1,SBT2050,2,4,,5,39535,2.7233,0,2691.257,2996.61,25.2,
1561,1,SBT2050,2,4,,5,39588,2.72875,0,2691.257,2996.61,25.1,
1561,1,SBT2050,2,4,,5,39641,2.73351,0,2691.257,2996.61,25.1,
1561,1,SBT2050,2,4,,5,39694,2.73785,0,2691.257,2996.61,25.1,
1561,1,SBT2050,2,4,,5,39747,2.741934,0,2691.257,2996.61,25.1,
1561,1,SBT2050,2,4,,5,39800,2.74579,0,2691.257,2996.61,25.2,
1561,1,SBT2050,2,4,,5,39853,2.74932,0,2691.257,2996.61,25.2,
1561,1,SBT2050,2,4,,5,39906,2.75277,0,2691.257,2996.61,25.2,
1561,1,SBT2050,2,4,,5,39959,2.75585,0,2691.257,2996.61,25.2,
1561,1,SBT2050,2,4,,5,40012,2.759,0,2691.257,2996.61,25.2,
1561,1,SBT2050,2,4,,5,40065,2.76171,0,2691.257,2996.61,25.2,
1561,1,SBT2050,2,4,,5,40118,2.76466,0,2691.257,2996.61,25.2,
1561,1,SBT2050,2,4,,5,40171,2.76698,0,2691.257,2996.61,25.2,
1561,1,SBT2050,2,4,,5,40224,2.76927,0,2691.257,2996.61,25.1,
1561,1,SBT2050,2,4,,5,40277,2.772039,0,2691.257,2996.61,25.1,
1561,1,SBT2050,2,4,,5,40330,2.77377,0,2691.257,2996.61,25.2,
1561,1,SBT2050,2,4,,5,40383,2.7761,0,2691.257,2996.61,25.2,
1561,1,SBT2050,2,4,,5,40436,2.77797,0,2691.257,2996.61,25.1,
1561,1,SBT2050,2,4,,5,40444.167,2.77832,-9.9E-05,2691.257,2996.61,,