File: 1C/Test1439.csv
Request Year:,2018,,,,,,,,,,,,
Test:,1439,,,,,,,,,,,,
Test Description:,,,,,,,,,,,,,
TestRegime Name:,Aging_Performance,,,,,,,,,,,,
TestRegime Suffix:,SHP_LC,,,,,,,,,,,,
TestRegime CellSize:,18650,,,,,,,,,,,,
TestRegime Version:,1,,,,,,,,,,,,
Number Of Cells:,1,,,,,,,,,,,,
LotID:,,,,,,,,,,,,,
Lot Description:,,,,,,,,,,,,,
Date Made:,1/21/2003 12:00 AM,,,,,,,,,,,,
Origin:,Other,,,,,,,,,,,,
Requestor:,Admin,,,,,,,,,,,,
Product ID:,Default product,,,,,,,,,,,,
Storage Temp:,R.T./AMB,,,,,,,,,,,,
Storage Delay:,0 days,,,,,,,,,,,,
Test Temp:,R.T./AMB,,,,,,,,,,,,
Start Time:,3/31/2018 1:14 PM,,,,,,,,,,,,
End Time:,3/31/2018 8:05 PM,,,,,,,,,,,,
Operator Instructions:,,,,,,,,,,,,,
Test,Cell,Rack,Shelf,Position,Cell ID,Step,Total Time (Seconds),Voltage (V),Current (A),Charge Capacity (mAh),Discharge Capacity (mAh),TC1 (Â°C),
1439,1,SBT2050,2,4,,0,1,3.338543,0,0,0,24.4,
1439,1,SBT2050,2,4,,0,33,3.33844,0,0,0,24.4,
1439,1,SBT2050,2,4,,0,65,3.33857,0,0,0,24.5,
1439,1,SBT2050,2,4,,0,97,3.33863,0,0,0,24.6,
1439,1,SBT2050,2,4,,0,129,3.33838,0,0,0,24.6,
1439,1,SBT2050,2,4,,0,161,3.3384,0,0,0,24.7,
1439,1,SBT2050,2,4,,0,193,3.33849,0,0,0,24.8,
1439,1,SBT2050,2,4,,0,225,3.33854,0,0,0,24.8,
1439,1,SBT2050,2,4,,0,257,3.33869,0,0,0,24.9,
1439,1,SBT2050,2,4,,0,289,3.33869,0,0,0,25,
1439,1,SBT2050,2,4,,1,321,2.52735,-2.9356,0,17.125,25.3,
1439,1,SBT2050,2,4,,1,353,2.49965,-1.7062,0,35.594,26.5,
1439,1,SBT2050,2,4,,1,385,2.49978,-1.453,0,49.511,27.2,
1439,1,SBT2050,2,4,,1,417,2.50003,-1.2943,0,61.68,27.8,
1439,1,SBT2050,2,4,,1,449,2.49978,-1.1729,0,72.63,28.1,
1439,1,SBT2050,2,4,,1,481,2.49982,-1.0671,0,82.579,28.4,
1439,1,SBT2050,2,4,,1,513,2.49981,-0.9667,0,91.608,28.5,
1439,1,SBT2050,2,4,,1,545,2.50005,-0.8799,0,99.803,28.6,
1439,1,SBT2050,2,4,,1,577,2.499737,-0.8055,0,107.285,28.7,
1439,1,SBT2050,2,4,,1,609,2.5002,-0.7404,0,114.148,28.6,
1439,1,SBT2050,2,4,,1,641,2.49984,-0.6813,0,120.456,28.5,
1439,1,SBT2050,2,4,,1,673,2.4997,-0.6272,0,126.263,28.5,
1439,1,SBT2050,2,4,,1,705,2.4998,-0.579,0,131.62,28.3,
1439,1,SBT2050,2,4,,1,737,2.49984,-0.5351,0,136.569,28.2,
1439,1,SBT2050,2,4,,1,769,2.49976,-0.4953,0,141.147,28.1,
1439,1,SBT2050,2,4,,1,801,2.49956,-0.45897,0,145.39,27.9,
1439,1,SBT2050,2,4,,1,833,2.499737,-0.42766,0,149.328,27.8,
1439,1,SBT2050,2,4,,1,865,2.50003,-0.39839,0,152.995,27.6,
1439,1,SBT2050,2,4,,1,897,2.499725,-0.37119,0,156.413,27.5,
1439,1,SBT2050,2,4,,1,929,2.49975,-0.34666,0,159.603,27.3,
1439,1,SBT2050,2,4,,1,961,2.4998,-0.3244,0,162.584,27.1,
1439,1,SBT2050,2,4,,1,993,2.49983,-0.30365,0,165.373,27,
1439,1,SBT2050,2,4,,1,1025,2.49983,-0.28483,0,167.987,26.8,
1439,1,SBT2050,2,4,,1,1057,2.49975,-0.26729,0,170.438,26.7,
1439,1,SBT2050,2,4,,1,1089,2.49994,-0.25063,0,172.738,26.5,
1439,1,SBT2050,2,4,,1,1121,2.49986,-0.23552,0,174.896,26.4,
1439,1,SBT2050,2,4,,1,1153,2.49996,-0.22113,0,176.923,26.3,
1439,1,SBT2050,2,4,,1,1185,2.49982,-0.20806,0,178.829,26.1,
1439,1,SBT2050,2,4,,1,1217,2.49983,-0.19607,0,180.623,26,
1439,1,SBT2050,2,4,,1,1249,2.49977,-0.18436,0,182.313,25.9,
1439,1,SBT2050,2,4,,1,1281,2.49965,-0.17373,0,183.905,25.9,
1439,1,SBT2050,2,4,,1,1313,2.49975,-0.16368,0,185.406,25.8,
1439,1,SBT2050,2,4,,1,1345,2.49984,-0.15426,0,186.819,25.7,
1439,1,SBT2050,2,4,,1,1377,2.4998,-0.14495,0,188.149,25.7,
1439,1,SBT2050,2,4,,1,1409,2.500011,-0.13618,0,189.399,25.6,
1439,1,SBT2050,2,4,,1,1441,2.49981,-0.12761,0,190.571,25.5,
1439,1,SBT2050,2,4,,1,1473,2.49989,-0.11934,0,191.668,25.5,
1439,1,SBT2050,2,4,,1,1505,2.49993,-0.11143,0,192.693,25.5,
1439,1,SBT2050,2,4,,1,1537,2.49989,-0.10374,0,193.65,25.5,
1439,1,SBT2050,2,4,,1,1569,2.49981,-0.09679,0,194.541,25.4,
1439,1,SBT2050,2,4,,1,1601,2.49984,-0.09003,0,195.37,25.4,
1439,1,SBT2050,2,4,,1,1633,2.49984,-0.08345,0,196.14,25.4,
1439,1,SBT2050,2,4,,1,1665,2.49976,-0.07742,0,196.854,25.4,
1439,1,SBT2050,2,4,,1,1697,2.49996,-0.07166,0,197.515,25.4,
1439,1,SBT2050,2,4,,1,1729,2.49996,-0.0657,0,198.126,25.3,
1439,1,SBT2050,2,4,,1,1761,2.4999,-0.06062,0,198.689,25.3,
1439,1,SBT2050,2,4,,1,1793,2.500011,-0.05562,0,199.205,25.3,
1439,1,SBT2050,2,4,,1,1825,2.499868,-0.05097,0,199.678,25.3,
1439,1,SBT2050,2,4,,1,1857,2.49999,-0.046383,0,200.11,25.3,
1439,1,SBT2050,2,4,,1,1889,2.49984,-0.042437,0,200.505,25.3,
1439,1,SBT2050,2,4,,1,1921,2.49983,-0.038843,0,200.867,25.3,
1439,1,SBT2050,2,4,,1,1953,2.499868,-0.035409,0,201.197,25.3,
1439,1,SBT2050,2,4,,1,1985,2.4999,-0.032515,0,201.5,25.2,
1439,1,SBT2050,2,4,,1,2017,2.50006,-0.029903,0,201.777,25.3,
1439,1,SBT2050,2,4,,1,2049,2.49989,-0.027567,0,202.031,25.3,
1439,1,SBT2050,2,4,,1,2081,2.49994,-0.025352,0,202.265,25.2,
1439,1,SBT2050,2,4,,1,2113,2.50009,-0.023291,0,202.481,25.2,
1439,1,SBT2050,2,4,,1,2145,2.500023,-0.02178,0,202.681,25.2,
1439,1,SBT2050,2,4,,1,2177,2.49995,-0.02027,0,202.867,25.2,
1439,1,SBT2050,2,4,,1,2209,2.49996,-0.019046,0,203.042,25.3,
1439,1,SBT2050,2,4,,1,2241,2.4999,-0.017952,0,203.206,25.2,
1439,1,SBT2050,2,4,,1,2273,2.50003,-0.017127,0,203.361,25.2,
1439,1,SBT2050,2,4,,1,2305,2.49983,-0.016255,0,203.509,25.2,
1439,1,SBT2050,2,4,,1,2337,2.4999,-0.015455,0,203.65,25.2,
1439,1,SBT2050,2,4,,1,2369,2.500023,-0.01478,0,203.785,25.2,
1439,1,SBT2050,2,4,,1,2401,2.500011,-0.014495,0,203.915,25.2,
1439,1,SBT2050,2,4,,1,2433,2.49976,-0.013919,0,204.04,25.2,
1439,1,SBT2050,2,4,,1,2465,2.5,-0.013491,0,204.161,25.3,
1439,1,SBT2050,2,4,,1,2497,2.49995,-0.012913,0,204.279,25.2,
1439,1,SBT2050,2,4,,1,2529,2.50003,-0.012514,0,204.393,25.2,
1439,1,SBT2050,2,4,,1,2561,2.49988,-0.012407,0,204.505,25.2,
1439,1,SBT2050,2,4,,1,2593,2.50008,-0.012313,0,204.613,25.3,
1439,1,SBT2050,2,4,,1,2625,2.49993,-0.01204,0,204.72,25.3,
1439,1,SBT2050,2,4,,1,2657,2.50036,-0.011745,0,204.824,25.2,
1439,1,SBT2050,2,4,,1,2689,2.4999,-0.011495,0,204.926,25.3,
1439,1,SBT2050,2,4,,1,2721,2.49992,-0.011283,0,205.026,25.3,
1439,1,SBT2050,2,4,,1,2753,2.500023,-0.010884,0,205.124,25.3,
1439,1,SBT2050,2,4,,1,2785,2.49988,-0.010304,0,205.221,25.3,
1439,1,SBT2050,2,4,,1,2817,2.50018,-0.010706,0,205.317,25.3,
1439,1,SBT2050,2,4,,1,2849,2.49976,-0.010711,0,205.41,25.3,
1439,1,SBT2050,2,4,,2,2880,3.29364,2.9357,24.044,205.415,25.3,
1439,1,SBT2050,2,4,,2,2912,3.43127,2.9361,50.142,205.415,25.5,
1439,1,SBT2050,2,4,,2,2944,3.51506,2.936,76.239,205.415,25.7,
1439,1,SBT2050,2,4,,2,2976,3.5716,2.936,102.336,205.415,26,
1439,1,SBT2050,2,4,,2,3008,3.59478,2.9362,128.434,205.415,26.4,
1439,1,SBT2050,2,4,,2,3040,3.60335,2.9357,154.531,205.415,26.7,
1439,1,SBT2050,2,4,,2,3072,3.61045,2.9365,180.629,205.415,27,
1439,1,SBT2050,2,4,,2,3104,3.61815,2.9359,206.726,205.415,27.3,
1439,1,SBT2050,2,4,,2,3136,3.62581,2.9362,232.823,205.415,27.5,
1439,1,SBT2050,2,4,,2,3168,3.633716,2.936,258.921,205.415,27.8,
1439,1,SBT2050,2,4,,2,3200,3.64031,2.9356,285.018,205.415,27.9,
1439,1,SBT2050,2,4,,2,3232,3.64823,2.9355,311.115,205.415,28,
1439,1,SBT2050,2,4,,2,3264,3.65547,2.9363,337.213,205.415,28.1,
1439,1,SBT2050,2,4,,2,3296,3.662094,2.9358,363.31,205.415,28.1,
1439,1,SBT2050,2,4,,2,3328,3.6685,2.9356,389.408,205.415,28.1,
1439,1,SBT2050,2,4,,2,3360,3.67445,2.9359,415.505,205.415,28.2,
1439,1,SBT2050,2,4,,2,3392,3.679382,2.9359,441.602,205.415,28.1,
1439,1,SBT2050,2,4,,2,3424,3.68415,2.9356,467.699,205.415,28.2,
1439,1,SBT2050,2,4,,2,3456,3.68876,2.9362,493.797,205.415,28.2,
1439,1,SBT2050,2,4,,2,3488,3.69318,2.9357,519.894,205.415,28.2,
1439,1,SBT2050,2,4,,2,3520,3.69797,2.936,545.991,205.415,28.2,
1439,1,SBT2050,2,4,,2,3552,3.702524,2.9362,572.089,205.415,28.2,
1439,1,SBT2050,2,4,,2,3584,3.707216,2.9362,598.186,205.415,28.3,
1439,1,SBT2050,2,4,,2,3616,3.712052,2.9358,624.284,205.415,28.2,
1439,1,SBT2050,2,4,,2,3648,3.71737,2.9356,650.381,205.415,28.3,
1439,1,SBT2050,2,4,,2,3680,3.722866,2.9364,676.478,205.415,28.3,
1439,1,SBT2050,2,4,,2,3712,3.728,2.9358,702.576,205.415,28.3,
1439,1,SBT2050,2,4,,2,3744,3.733774,2.936,728.673,205.415,28.3,
1439,1,SBT2050,2,4,,2,3776,3.73949,2.9358,754.771,205.415,28.3,
1439,1,SBT2050,2,4,,2,3808,3.74499,2.9363,780.868,205.415,28.3,
1439,1,SBT2050,2,4,,2,3840,3.75021,2.9357,806.966,205.415,28.4,
1439,1,SBT2050,2,4,,2,3872,3.755694,2.9357,833.063,205.415,28.4,
1439,1,SBT2050,2,4,,2,3904,3.7618,2.9361,859.161,205.415,28.4,
1439,1,SBT2050,2,4,,2,3936,3.76717,2.9364,885.258,205.415,28.4,
1439,1,SBT2050,2,4,,2,3968,3.77256,2.9362,911.356,205.415,28.4,
1439,1,SBT2050,2,4,,2,4000,3.77827,2.9355,937.453,205.415,28.4,
1439,1,SBT2050,2,4,,2,4032,3.78333,2.9358,963.55,205.415,28.4,
1439,1,SBT2050,2,4,,2,4064,3.79017,2.9362,989.648,205.415,28.4,
1439,1,SBT2050,2,4,,2,4096,3.79661,2.9361,1015.745,205.415,28.4,
1439,1,SBT2050,2,4,,2,4128,3.80275,2.936,1041.842,205.415,28.4,
1439,1,SBT2050,2,4,,2,4160,3.80887,2.9359,1067.94,205.415,28.4,
1439,1,SBT2050,2,4,,2,4192,3.81528,2.9359,1094.037,205.415,28.3,
1439,1,SBT2050,2,4,,2,4224,3.82181,2.9358,1120.134,205.415,28.3,
1439,1,SBT2050,2,4,,2,4256,3.82846,2.9359,1146.232,205.415,28.4,
1439,1,SBT2050,2,4,,2,4288,3.83557,2.9355,1172.329,205.415,28.3,
1439,1,SBT2050,2,4,,2,4320,3.84264,2.9362,1198.426,205.415,28.3,
1439,1,SBT2050,2,4,,2,4352,3.85003,2.9359,1224.524,205.415,28.4,
1439,1,SBT2050,2,4,,2,4384,3.85768,2.9357,1250.621,205.415,28.4,
1439,1,SBT2050,2,4,,2,4416,3.86533,2.9362,1276.719,205.415,28.5,
1439,1,SBT2050,2,4,,2,4448,3.87333,2.936,1302.816,205.415,28.4,
1439,1,SBT2050,2,4,,2,4480,3.88132,2.936,1328.914,205.415,28.6,
1439,1,SBT2050,2,4,,2,4512,3.88972,2.9355,1355.011,205.415,28.5,
1439,1,SBT2050,2,4,,2,4544,3.89823,2.9357,1381.109,205.415,28.6,
1439,1,SBT2050,2,4,,2,4576,3.90698,2.9361,1407.206,205.415,28.6,
1439,1,SBT2050,2,4,,2,4608,3.91583,2.9361,1433.303,205.415,28.7,
1439,1,SBT2050,2,4,,2,4640,3.92428,2.9356,1459.401,205.415,28.7,
1439,1,SBT2050,2,4,,2,4672,3.93333,2.936,1485.498,205.415,28.7,
1439,1,SBT2050,2,4,,2,4704,3.94238,2.9359,1511.596,205.415,28.7,
1439,1,SBT2050,2,4,,2,4736,3.95135,2.9358,1537.693,205.415,28.8,
1439,1,SBT2050,2,4,,2,4768,3.960482,2.9358,1563.791,205.415,28.8,
1439,1,SBT2050,2,4,,2,4800,3.96989,2.9361,1589.888,205.415,28.8,
1439,1,SBT2050,2,4,,2,4832,3.97921,2.9362,1615.985,205.415,28.8,
1439,1,SBT2050,2,4,,2,4864,3.98839,2.9361,1642.083,205.415,28.8,
1439,1,SBT2050,2,4,,2,4896,3.9977,2.9362,1668.18,205.415,28.8,
1439,1,SBT2050,2,4,,2,4928,4.007152,2.9364,1694.278,205.415,28.8,
1439,1,SBT2050,2,4,,2,4960,4.01679,2.9359,1720.375,205.415,28.8,
1439,1,SBT2050,2,4,,2,4992,4.02618,2.936,1746.472,205.415,28.9,
1439,1,SBT2050,2,4,,2,5024,4.03541,2.9358,1772.57,205.415,28.9,
1439,1,SBT2050,2,4,,2,5056,4.0448,2.9362,1798.667,205.415,28.9,
1439,1,SBT2050,2,4,,2,5088,4.05389,2.9356,1824.764,205.415,28.9,
1439,1,SBT2050,2,4,,2,5120,4.06369,2.9361,1850.861,205.415,28.9,
1439,1,SBT2050,2,4,,2,5152,4.07276,2.9365,1876.958,205.415,29,
1439,1,SBT2050,2,4,,2,5184,4.08243,2.9367,1903.056,205.415,29,
1439,1,SBT2050,2,4,,2,5216,4.09197,2.9359,1929.153,205.415,29,
1439,1,SBT2050,2,4,,2,5248,4.10124,2.9367,1955.25,205.415,29,
1439,1,SBT2050,2,4,,2,5280,4.11093,2.9357,1981.348,205.415,29.1,
1439,1,SBT2050,2,4,,2,5312,4.12041,2.9356,2007.445,205.415,29.1,
1439,1,SBT2050,2,4,,2,5344,4.13065,2.9359,2033.542,205.415,29.1,
1439,1,SBT2050,2,4,,2,5376,4.14042,2.936,2059.639,205.415,29.1,
1439,1,SBT2050,2,4,,2,5408,4.15021,2.9303,2085.736,205.415,29.1,
1439,1,SBT2050,2,4,,2,5440,4.15019,2.7408,2110.861,205.415,29.1,
1439,1,SBT2050,2,4,,2,5472,4.14994,2.5981,2134.581,205.415,29.1,
1439,1,SBT2050,2,4,,2,5504,4.15013,2.4647,2157.078,205.415,29.1,
1439,1,SBT2050,2,4,,2,5536,4.150034,2.34,2178.438,205.415,29,
1439,1,SBT2050,2,4,,2,5568,4.14995,2.221,2198.715,205.415,28.9,
1439,1,SBT2050,2,4,,2,5600,4.150034,2.1086,2217.955,205.415,28.8,
1439,1,SBT2050,2,4,,2,5632,4.15022,1.9987,2236.198,205.415,28.7,
1439,1,SBT2050,2,4,,2,5664,4.15012,1.8988,2253.514,205.415,28.5,
1439,1,SBT2050,2,4,,2,5696,4.150046,1.8015,2269.953,205.415,28.4,
1439,1,SBT2050,2,4,,2,5728,4.1502,1.7125,2285.558,205.415,28.2,
1439,1,SBT2050,2,4,,2,5760,4.15027,1.6246,2300.381,205.415,28.1,
1439,1,SBT2050,2,4,,2,5792,4.15007,1.5446,2314.464,205.415,28,
1439,1,SBT2050,2,4,,2,5824,4.150022,1.4693,2327.863,205.415,27.9,
1439,1,SBT2050,2,4,,2,5856,4.14999,1.4025,2340.62,205.415,27.7,
1439,1,SBT2050,2,4,,2,5888,4.150308,1.3344,2352.787,205.415,27.6,
1439,1,SBT2050,2,4,,2,5920,4.150022,1.2743,2364.379,205.415,27.5,
1439,1,SBT2050,2,4,,2,5952,4.14994,1.218,2375.442,205.415,27.3,
1439,1,SBT2050,2,4,,2,5984,4.15013,1.1623,2386.004,205.415,27.2,
1439,1,SBT2050,2,4,,2,6016,4.15012,1.1128,2396.113,205.415,27.1,
1439,1,SBT2050,2,4,,2,6048,4.15017,1.0671,2405.791,205.415,27,
1439,1,SBT2050,2,4,,2,6080,4.150058,1.0222,2415.065,205.415,26.9,
1439,1,SBT2050,2,4,,2,6112,4.14997,0.9836,2423.974,205.415,26.8,
1439,1,SBT2050,2,4,,2,6144,4.15007,0.9432,2432.527,205.415,26.7,
1439,1,SBT2050,2,4,,2,6176,4.150022,0.9082,2440.754,205.415,26.7,
1439,1,SBT2050,2,4,,2,6208,4.14996,0.8751,2448.684,205.415,26.6,
1439,1,SBT2050,2,4,,2,6240,4.15013,0.8403,2456.304,205.415,26.5,
1439,1,SBT2050,2,4,,2,6272,4.15022,0.8106,2463.646,205.415,26.4,
1439,1,SBT2050,2,4,,2,6304,4.14993,0.7838,2470.732,205.415,26.3,
1439,1,SBT2050,2,4,,2,6336,4.15019,0.7558,2477.572,205.415,26.3,
1439,1,SBT2050,2,4,,2,6368,4.15017,0.7302,2484.181,205.415,26.2,
1439,1,SBT2050,2,4,,2,6400,4.14999,0.7063,2490.566,205.415,26.2,
1439,1,SBT2050,2,4,,2,6432,4.15,0.6841,2496.746,205.415,26.1,
1439,1,SBT2050,2,4,,2,6464,4.15022,0.6629,2502.733,205.415,26,
1439,1,SBT2050,2,4,,2,6496,4.15025,0.6429,2508.53,205.415,26,
1439,1,SBT2050,2,4,,2,6528,4.15007,0.6229,2514.15,205.415,26,
1439,1,SBT2050,2,4,,2,6560,4.1499,0.6042,2519.605,205.415,25.9,
1439,1,SBT2050,2,4,,2,6592,4.14995,0.5865,2524.895,205.415,25.9,
1439,1,SBT2050,2,4,,2,6624,4.15,0.5695,2530.029,205.415,25.9,
1439,1,SBT2050,2,4,,2,6656,4.15022,0.5539,2535.02,205.415,25.8,
1439,1,SBT2050,2,4,,2,6688,4.14999,0.5387,2539.869,205.415,25.8,
1439,1,SBT2050,2,4,,2,6720,4.150046,0.5253,2544.589,205.415,25.7,
1439,1,SBT2050,2,4,,2,6752,4.14997,0.5099,2549.185,205.415,25.7,
1439,1,SBT2050,2,4,,2,6784,4.150022,0.4981,2553.659,205.415,25.7,
1439,1,SBT2050,2,4,,2,6816,4.15017,0.4836,2558.027,205.415,25.7,
1439,1,SBT2050,2,4,,2,6848,4.14993,0.47068,2562.267,205.415,25.6,
1439,1,SBT2050,2,4,,2,6880,4.14991,0.45953,2566.398,205.415,25.6,
1439,1,SBT2050,2,4,,2,6912,4.15011,0.44782,2570.433,205.415,25.6,
1439,1,SBT2050,2,4,,2,6944,4.150022,0.43664,2574.356,205.415,25.6,
1439,1,SBT2050,2,4,,2,6976,4.14997,0.42605,2578.191,205.415,25.5,
1439,1,SBT2050,2,4,,2,7008,4.15009,0.41853,2581.943,205.415,25.5,
1439,1,SBT2050,2,4,,2,7040,4.150034,0.40702,2585.607,205.415,25.5,
1439,1,SBT2050,2,4,,2,7072,4.15001,0.39744,2589.183,205.415,25.5,
1439,1,SBT2050,2,4,,2,7104,4.14997,0.38904,2592.674,205.415,25.4,
1439,1,SBT2050,2,4,,2,7136,4.15011,0.37999,2596.086,205.415,25.5,
1439,1,SBT2050,2,4,,2,7168,4.14993,0.37129,2599.424,205.415,25.4,
1439,1,SBT2050,2,4,,2,7200,4.14993,0.36439,2602.688,205.415,25.4,
1439,1,SBT2050,2,4,,2,7232,4.15,0.35393,2605.879,205.415,25.4,
1439,1,SBT2050,2,4,,2,7264,4.15008,0.34621,2608.996,205.415,25.4,
1439,1,SBT2050,2,4,,2,7296,4.149724,0.33973,2612.049,205.415,25.4,
1439,1,SBT2050,2,4,,2,7328,4.150034,0.33166,2615.033,205.415,25.4,
1439,1,SBT2050,2,4,,2,7360,4.1502,0.32507,2617.957,205.415,25.4,
1439,1,SBT2050,2,4,,2,7392,4.150034,0.3182,2620.818,205.415,25.3,
1439,1,SBT2050,2,4,,2,7424,4.14991,0.3122,2623.62,205.415,25.3,
1439,1,SBT2050,2,4,,2,7456,4.15015,0.30543,2626.369,205.415,25.3,
1439,1,SBT2050,2,4,,2,7488,4.14999,0.29881,2629.057,205.415,25.3,
1439,1,SBT2050,2,4,,2,7520,4.15024,0.29387,2631.699,205.415,25.3,
1439,1,SBT2050,2,4,,2,7552,4.1499,0.289,2634.284,205.415,25.3,
1439,1,SBT2050,2,4,,2,7584,4.14983,0.2828,2636.818,205.415,25.3,
1439,1,SBT2050,2,4,,2,7616,4.15021,0.27663,2639.303,205.415,25.3,
1439,1,SBT2050,2,4,,2,7648,4.14981,0.27101,2641.735,205.415,25.3,
1439,1,SBT2050,2,4,,2,7680,4.150058,0.26619,2644.124,205.415,25.2,
1439,1,SBT2050,2,4,,2,7712,4.15011,0.26127,2646.463,205.415,25.2,
1439,1,SBT2050,2,4,,2,7744,4.14997,0.25585,2648.76,205.415,25.2,
1439,1,SBT2050,2,4,,2,7776,4.15015,0.25098,2651.011,205.415,25.2,
1439,1,SBT2050,2,4,,2,7808,4.14999,0.24566,2653.216,205.415,25.2,
1439,1,SBT2050,2,4,,2,7840,4.15027,0.24204,2655.383,205.415,25.2,
1439,1,SBT2050,2,4,,2,7872,4.15009,0.23685,2657.513,205.415,25.3,
1439,1,SBT2050,2,4,,2,7904,4.15011,0.232,2659.599,205.415,25.2,
1439,1,SBT2050,2,4,,2,7936,4.15001,0.22854,2661.644,205.415,25.2,
1439,1,SBT2050,2,4,,2,7968,4.15012,0.22347,2663.654,205.415,25.2,
1439,1,SBT2050,2,4,,2,8000,4.14988,0.21974,2665.622,205.415,25.2,
1439,1,SBT2050,2,4,,2,8032,4.15012,0.21584,2667.555,205.415,25.2,
1439,1,SBT2050,2,4,,2,8064,4.149724,0.211,2669.453,205.415,25.2,
1439,1,SBT2050,2,4,,2,8096,4.14984,0.20756,2671.317,205.415,25.2,
1439,1,SBT2050,2,4,,2,8128,4.15015,0.20344,2673.144,205.415,25.2,
1439,1,SBT2050,2,4,,2,8160,4.14982,0.20044,2674.941,205.415,25.2,
1439,1,SBT2050,2,4,,2,8192,4.15015,0.19697,2676.705,205.415,25.2,
1439,1,SBT2050,2,4,,2,8224,4.15007,0.1938,2678.444,205.415,25.2,
1439,1,SBT2050,2,4,,2,8256,4.15009,0.19099,2680.151,205.415,25.2,
1439,1,SBT2050,2,4,,2,8288,4.15013,0.18698,2681.833,205.415,25.1,
1439,1,SBT2050,2,4,,2,8320,4.14984,0.18326,2683.477,205.415,25.1,
1439,1,SBT2050,2,4,,2,8352,4.15011,0.17977,2685.087,205.415,25.1,
1439,1,SBT2050,2,4,,2,8384,4.150046,0.17682,2686.673,205.415,25.1,
1439,1,SBT2050,2,4,,2,8416,4.15017,0.17385,2688.234,205.415,25.1,
1439,1,SBT2050,2,4,,2,8448,4.15032,0.1705,2689.762,205.415,25.1,
1439,1,SBT2050,2,4,,2,8480,4.150058,0.16803,2691.268,205.415,25.2,
1439,1,SBT2050,2,4,,2,8512,4.14994,0.16531,2692.747,205.415,25.1,
1439,1,SBT2050,2,4,,2,8544,4.15012,0.16119,2694.2,205.415,25.1,
1439,1,SBT2050,2,4,,2,8576,4.14997,0.15813,2695.619,205.415,25.1,
1439,1,SBT2050,2,4,,2,8608,4.150046,0.15617,2697.016,205.415,25.1,
1439,1,SBT2050,2,4,,2,8640,4.14996,0.15379,2698.396,205.415,25.1,
1439,1,SBT2050,2,4,,2,8672,4.15008,0.15168,2699.761,205.415,25.1,
1439,1,SBT2050,2,4,,2,8704,4.15015,0.14764,2701.091,205.415,25.1,
1439,1,SBT2050,2,4,,2,8736,4.150046,0.14671,2702.397,205.415,25.1,
1439,1,SBT2050,2,4,,2,8768,4.15019,0.143,2703.685,205.415,25.1,
1439,1,SBT2050,2,4,,2,8800,4.150046,0.14068,2704.945,205.415,25.1,
1439,1,SBT2050,2,4,,2,8832,4.14996,0.13819,2706.185,205.415,25.1,
1439,1,SBT2050,2,4,,2,8864,4.15013,0.13572,2707.404,205.415,25.1,
1439,1,SBT2050,2,4,,2,8896,4.150034,0.13393,2708.602,205.415,25.1,
1439,1,SBT2050,2,4,,2,8928,4.15008,0.13123,2709.78,205.415,25.1,
1439,1,SBT2050,2,4,,2,8960,4.150034,0.13044,2710.942,205.415,25.1,
1439,1,SBT2050,2,4,,2,8992,4.15001,0.12794,2712.09,205.415,25.1,
1439,1,SBT2050,2,4,,2,9024,4.15019,0.12476,2713.214,205.415,25.1,
1439,1,SBT2050,2,4,,2,9056,4.1504,0.12285,2714.315,205.415,25.1,
1439,1,SBT2050,2,4,,2,9088,4.150058,0.12215,2715.404,205.415,25.1,
1439,1,SBT2050,2,4,,2,9120,4.14999,0.11861,2716.475,205.415,25.1,
1439,1,SBT2050,2,4,,2,9152,4.14999,0.11686,2717.522,205.415,25.1,
1439,1,SBT2050,2,4,,2,9184,4.15009,0.115,2718.554,205.415,25.1,
1439,1,SBT2050,2,4,,2,9216,4.15008,0.11291,2719.566,205.415,25.1,
1439,1,SBT2050,2,4,,2,9248,4.14996,0.11072,2720.561,205.415,25.1,
1439,1,SBT2050,2,4,,2,9280,4.14996,0.10943,2721.54,205.415,25.1,
1439,1,SBT2050,2,4,,2,9312,4.15001,0.10699,2722.502,205.415,25.1,
1439,1,SBT2050,2,4,,2,9344,4.14984,0.10543,2723.448,205.415,25.1,
1439,1,SBT2050,2,4,,2,9376,4.15008,0.10367,2724.378,205.415,25.1,
1439,1,SBT2050,2,4,,2,9408,4.15022,0.1029,2725.295,205.415,25.1,
1439,1,SBT2050,2,4,,2,9440,4.15001,0.10006,2726.195,205.415,25.1,
1439,1,SBT2050,2,4,,2,9472,4.15017,0.09944,2727.083,205.415,25.1,
1439,1,SBT2050,2,4,,2,9504,4.14999,0.09765,2727.96,205.415,25.1,
1439,1,SBT2050,2,4,,2,9536,4.15015,0.09574,2728.82,205.415,25.1,
1439,1,SBT2050,2,4,,2,9568,4.14996,0.09433,2729.665,205.415,25.1,
1439,1,SBT2050,2,4,,2,9600,4.15021,0.09291,2730.5,205.415,25.1,
1439,1,SBT2050,2,4,,2,9632,4.150058,0.09179,2731.32,205.415,25,
1439,1,SBT2050,2,4,,2,9664,4.15018,0.09004,2732.129,205.415,25.1,
1439,1,SBT2050,2,4,,2,9696,4.14999,0.08809,2732.919,205.415,25,
1439,1,SBT2050,2,4,,2,9728,4.14982,0.08757,2733.701,205.415,25,
1439,1,SBT2050,2,4,,2,9760,4.14996,0.08544,2734.471,205.415,25,
1439,1,SBT2050,2,4,,2,9792,4.150058,0.08481,2735.229,205.415,25,
1439,1,SBT2050,2,4,,2,9824,4.15008,0.08321,2735.974,205.415,25,
1439,1,SBT2050,2,4,,2,9856,4.150022,0.08249,2736.713,205.415,25.1,
1439,1,SBT2050,2,4,,2,9888,4.14999,0.08028,2737.434,205.415,25,
1439,1,SBT2050,2,4,,2,9920,4.15012,0.07895,2738.141,205.415,25,
1439,1,SBT2050,2,4,,2,9952,4.15027,0.0776,2738.837,205.415,25,
1439,1,SBT2050,2,4,,2,9984,4.15014,0.07666,2739.523,205.415,25,
1439,1,SBT2050,2,4,,2,10016,4.14997,0.07579,2740.202,205.415,25,
1439,1,SBT2050,2,4,,2,10048,4.150058,0.07447,2740.871,205.415,25,
1439,1,SBT2050,2,4,,2,10080,4.15008,0.0734,2741.529,205.415,25,
1439,1,SBT2050,2,4,,2,10112,4.15011,0.07256,2742.175,205.415,25,
1439,1,SBT2050,2,4,,2,10144,4.15013,0.07137,2742.815,205.415,25,
1439,1,SBT2050,2,4,,2,10176,4.14995,0.07128,2743.452,205.415,25,
1439,1,SBT2050,2,4,,2,10208,4.14997,0.0699,2744.078,205.415,25,
1439,1,SBT2050,2,4,,2,10240,4.15021,0.06797,2744.687,205.415,25,
1439,1,SBT2050,2,4,,2,10272,4.14999,0.06733,2745.287,205.415,25,
1439,1,SBT2050,2,4,,2,10304,4.14995,0.06664,2745.881,205.415,25,
1439,1,SBT2050,2,4,,2,10336,4.14989,0.0647,2746.461,205.415,25,
1439,1,SBT2050,2,4,,2,10368,4.15027,0.0635,2747.033,205.415,25,
1439,1,SBT2050,2,4,,2,10400,4.14984,0.06312,2747.596,205.415,25,
1439,1,SBT2050,2,4,,2,10432,4.15012,0.0627,2748.157,205.415,25,
1439,1,SBT2050,2,4,,2,10464,4.14994,0.06088,2748.705,205.415,25,
1439,1,SBT2050,2,4,,2,10496,4.150046,0.06138,2749.247,205.415,25,
1439,1,SBT2050,2,4,,2,10528,4.14996,0.06036,2749.788,205.415,25,
1439,1,SBT2050,2,4,,2,10560,4.150022,0.059,2750.314,205.415,25,
1439,1,SBT2050,2,4,,2,10592,4.15011,0.05783,2750.831,205.415,25,
1439,1,SBT2050,2,4,,2,10624,4.15,0.05795,2751.344,205.415,25,
1439,1,SBT2050,2,4,,2,10656,4.149736,0.05654,2751.85,205.415,25,
1439,1,SBT2050,2,4,,2,10688,4.15011,0.05518,2752.348,205.415,25,
1439,1,SBT2050,2,4,,2,10720,4.15022,0.05462,2752.837,205.415,25,
1439,1,SBT2050,2,4,,2,10752,4.14993,0.05431,2753.32,205.415,25,
1439,1,SBT2050,2,4,,2,10784,4.15015,0.05289,2753.794,205.415,25,
1439,1,SBT2050,2,4,,2,10816,4.15007,0.05225,2754.262,205.415,25,
1439,1,SBT2050,2,4,,2,10848,4.15,0.05264,2754.724,205.415,25,
1439,1,SBT2050,2,4,,2,10880,4.150022,0.05086,2755.182,205.415,25,
1439,1,SBT2050,2,4,,2,10912,4.1499,0.04999,2755.63,205.415,25,
1439,1,SBT2050,2,4,,2,10944,4.15011,0.04919,2756.069,205.415,25,
1439,1,SBT2050,2,4,,2,10976,4.14997,0.04942,2756.509,205.415,25,
1439,1,SBT2050,2,4,,2,11008,4.150034,0.047389,2756.942,205.415,25,
1439,1,SBT2050,2,4,,2,11040,4.14996,0.046924,2757.359,205.415,25,
1439,1,SBT2050,2,4,,2,11072,4.15014,0.045947,2757.773,205.415,25,
1439,1,SBT2050,2,4,,2,11104,4.14982,0.046009,2758.182,205.415,25,
1439,1,SBT2050,2,4,,2,11136,4.14983,0.045786,2758.589,205.415,25,
1439,1,SBT2050,2,4,,2,11168,4.14999,0.04544,2758.993,205.415,25,
1439,1,SBT2050,2,4,,2,11200,4.15014,0.045096,2759.393,205.415,25,
1439,1,SBT2050,2,4,,2,11232,4.15008,0.043343,2759.785,205.415,25,
1439,1,SBT2050,2,4,,2,11264,4.15014,0.043173,2760.171,205.415,25,
1439,1,SBT2050,2,4,,2,11296,4.15024,0.042481,2760.553,205.415,25,
1439,1,SBT2050,2,4,,2,11328,4.14996,0.042162,2760.928,205.415,25,
1439,1,SBT2050,2,4,,2,11360,4.14996,0.041401,2761.297,205.415,25,
1439,1,SBT2050,2,4,,2,11392,4.15025,0.040985,2761.663,205.415,25,
1439,1,SBT2050,2,4,,2,11424,4.150034,0.0402,2762.024,205.415,25,
1439,1,SBT2050,2,4,,2,11456,4.15022,0.03952,2762.38,205.415,25,
1439,1,SBT2050,2,4,,2,11488,4.150022,0.038958,2762.728,205.415,25,
1439,1,SBT2050,2,4,,2,11520,4.14978,0.038747,2763.074,205.415,25,
1439,1,SBT2050,2,4,,2,11552,4.15024,0.037828,2763.416,205.415,25,
1439,1,SBT2050,2,4,,2,11584,4.14982,0.037688,2763.751,205.415,25,
1439,1,SBT2050,2,4,,2,11616,4.15011,0.038266,2764.087,205.415,25,
1439,1,SBT2050,2,4,,2,11648,4.15008,0.037321,2764.426,205.415,25,
1439,1,SBT2050,2,4,,2,11680,4.150022,0.035904,2764.747,205.415,25,
1439,1,SBT2050,2,4,,2,11712,4.14996,0.035686,2765.065,205.415,25,
1439,1,SBT2050,2,4,,2,11744,4.15007,0.035267,2765.383,205.415,25,
1439,1,SBT2050,2,4,,2,11776,4.15,0.034773,2765.694,205.415,25,
1439,1,SBT2050,2,4,,2,11808,4.14982,0.033981,2766,205.415,25,
1439,1,SBT2050,2,4,,2,11840,4.14988,0.034591,2766.306,205.415,25,
1439,1,SBT2050,2,4,,2,11872,4.14993,0.034263,2766.61,205.415,25,
1439,1,SBT2050,2,4,,2,11904,4.15,0.032769,2766.908,205.415,25.1,
1439,1,SBT2050,2,4,,2,11936,4.15007,0.033427,2767.201,205.415,25,
1439,1,SBT2050,2,4,,2,11968,4.150046,0.032405,2767.494,205.415,25,
1439,1,SBT2050,2,4,,2,12000,4.14983,0.031844,2767.78,205.415,25,
1439,1,SBT2050,2,4,,2,12032,4.15007,0.031228,2768.062,205.415,25,
1439,1,SBT2050,2,4,,2,12064,4.150058,0.031158,2768.341,205.415,25,
1439,1,SBT2050,2,4,,2,12096,4.14994,0.030691,2768.618,205.415,25,
1439,1,SBT2050,2,4,,2,12128,4.150046,0.030225,2768.887,205.415,25,
1439,1,SBT2050,2,4,,2,12160,4.14982,0.030048,2769.156,205.415,25,
1439,1,SBT2050,2,4,,2,12192,4.14994,0.029707,2769.422,205.415,25,
1439,1,SBT2050,2,4,,2,12224,4.15008,0.029822,2769.686,205.415,25,
1439,1,SBT2050,2,4,,2,12256,4.150046,0.02883,2769.947,205.415,25,
1439,1,SBT2050,2,4,,2,12288,4.14999,0.029327,2770.206,205.415,25,
1439,1,SBT2050,2,4,,2,12320,4.14999,0.028106,2770.459,205.415,25,
1439,1,SBT2050,2,4,,2,12352,4.150022,0.02787,2770.709,205.415,25,
1439,1,SBT2050,2,4,,2,12384,4.15022,0.026972,2770.953,205.415,25,
1439,1,SBT2050,2,4,,2,12416,4.1502,0.02694,2771.193,205.415,25,
1439,1,SBT2050,2,4,,2,12448,4.14989,0.027225,2771.434,205.415,25,
1439,1,SBT2050,2,4,,2,12480,4.150046,0.026138,2771.672,205.415,25,
1439,1,SBT2050,2,4,,2,12512,4.14994,0.026048,2771.906,205.415,25,
1439,1,SBT2050,2,4,,2,12544,4.14996,0.025681,2772.135,205.415,25,
1439,1,SBT2050,2,4,,2,12576,4.149772,0.025564,2772.365,205.415,25,
1439,1,SBT2050,2,4,,2,12608,4.150058,0.025367,2772.589,205.415,25,
1439,1,SBT2050,2,4,,2,12640,4.15009,0.024815,2772.816,205.415,25,
1439,1,SBT2050,2,4,,2,12672,4.15011,0.024401,2773.035,205.415,25,
1439,1,SBT2050,2,4,,2,12704,4.15017,0.024565,2773.259,205.415,25,
1439,1,SBT2050,2,4,,2,12736,4.15022,0.023377,2773.473,205.415,25,
1439,1,SBT2050,2,4,,2,12768,4.14987,0.025068,2773.689,205.415,25,
1439,1,SBT2050,2,4,,2,12800,4.15022,0.023386,2773.906,205.415,25,
1439,1,SBT2050,2,4,,2,12832,4.14999,0.022816,2774.11,205.415,25,
1439,1,SBT2050,2,4,,2,12864,4.150034,0.024451,2774.32,205.415,25,
1439,1,SBT2050,2,4,,2,12896,4.15009,0.022745,2774.53,205.415,25.1,
1439,1,SBT2050,2,4,,2,12928,4.15009,0.022423,2774.732,205.415,25.1,
1439,1,SBT2050,2,4,,2,12960,4.15007,0.021959,2774.929,205.415,25,
1439,1,SBT2050,2,4,,2,12992,4.14984,0.022208,2775.125,205.415,25,
1439,1,SBT2050,2,4,,2,13024,4.14997,0.021816,2775.322,205.415,25,
1439,1,SBT2050,2,4,,2,13056,4.150058,0.021143,2775.511,205.415,25,
1439,1,SBT2050,2,4,,2,13088,4.150022,0.020818,2775.698,205.415,25,
1439,1,SBT2050,2,4,,2,13120,4.14991,0.020705,2775.882,205.415,25,
1439,1,SBT2050,2,4,,2,13152,4.14988,0.020747,2776.067,205.415,25,
1439,1,SBT2050,2,4,,2,13184,4.150046,0.019788,2776.248,205.415,25.1,
1439,1,SBT2050,2,4,,2,13216,4.14971,0.020698,2776.431,205.415,25.1,
1439,1,SBT2050,2,4,,2,13248,4.1499,0.019852,2776.611,205.415,25.1,
1439,1,SBT2050,2,4,,2,13280,4.15024,0.019459,2776.787,205.415,25,
1439,1,SBT2050,2,4,,2,13312,4.14976,0.019584,2776.958,205.415,25,
1439,1,SBT2050,2,4,,2,13344,4.15013,0.01896,2777.131,205.415,25,
1439,1,SBT2050,2,4,,2,13376,4.15019,0.018878,2777.297,205.415,25,
1439,1,SBT2050,2,4,,2,13408,4.15001,0.018951,2777.469,205.415,25,
1439,1,SBT2050,2,4,,2,13440,4.14983,0.018699,2777.634,205.415,25,
1439,1,SBT2050,2,4,,2,13472,4.14996,0.018276,2777.799,205.415,25,
1439,1,SBT2050,2,4,,2,13504,4.150034,0.018417,2777.96,205.415,25,
1439,1,SBT2050,2,4,,2,13536,4.14987,0.018231,2778.122,205.415,25.1,
1439,1,SBT2050,2,4,,2,13568,4.14978,0.018693,2778.29,205.415,25.1,
1439,1,SBT2050,2,4,,2,13600,4.15017,0.017792,2778.451,205.415,25,
1439,1,SBT2050,2,4,,2,13632,4.149748,0.018105,2778.608,205.415,25,
1439,1,SBT2050,2,4,,2,13664,4.15013,0.016441,2778.766,205.415,25,
1439,1,SBT2050,2,4,,2,13696,4.150022,0.016746,2778.916,205.415,25,
1439,1,SBT2050,2,4,,2,13728,4.15013,0.01655,2779.07,205.415,25,
1439,1,SBT2050,2,4,,2,13760,4.15007,0.016932,2779.218,205.415,25,
1439,1,SBT2050,2,4,,2,13792,4.14996,0.016738,2779.367,205.415,25,
1439,1,SBT2050,2,4,,2,13824,4.15009,0.016831,2779.524,205.415,25,
1439,1,SBT2050,2,4,,2,13856,4.14995,0.017269,2779.674,205.415,25,
1439,1,SBT2050,2,4,,2,13888,4.14987,0.01672,2779.825,205.415,25.1,
1439,1,SBT2050,2,4,,2,13920,4.14993,0.016148,2779.975,205.415,25.1,
1439,1,SBT2050,2,4,,2,13952,4.15013,0.015684,2780.117,205.415,25,
1439,1,SBT2050,2,4,,2,13984,4.15,0.016051,2780.259,205.415,25,
1439,1,SBT2050,2,4,,2,14016,4.150058,0.016235,2780.401,205.415,25,
1439,1,SBT2050,2,4,,2,14048,4.15022,0.015249,2780.538,205.415,25,
1439,1,SBT2050,2,4,,2,14080,4.14981,0.015293,2780.673,205.415,25,
1439,1,SBT2050,2,4,,2,14112,4.14982,0.014656,2780.807,205.415,25,
1439,1,SBT2050,2,4,,2,14144,4.150022,0.014675,2780.938,205.415,25,
1439,1,SBT2050,2,4,,2,14176,4.15012,0.014701,2781.069,205.415,25,
1439,1,SBT2050,2,4,,2,14208,4.14995,0.014971,2781.199,205.415,25,
1439,1,SBT2050,2,4,,2,14240,4.15019,0.014289,2781.329,205.415,25,
1439,1,SBT2050,2,4,,2,14272,4.14987,0.014211,2781.46,205.415,25,
1439,1,SBT2050,2,4,,2,14304,4.15001,0.013967,2781.581,205.415,25,
1439,1,SBT2050,2,4,,2,14336,4.150022,0.014076,2781.708,205.415,25,
1439,1,SBT2050,2,4,,2,14368,4.15028,0.013104,2781.826,205.415,25,
1439,1,SBT2050,2,4,,2,14400,4.14988,0.014049,2781.949,205.415,25,
1439,1,SBT2050,2,4,,2,14432,4.150058,0.013368,2782.07,205.415,25,
1439,1,SBT2050,2,4,,2,14464,4.15008,0.014059,2782.191,205.415,25,
1439,1,SBT2050,2,4,,2,14496,4.15008,0.013736,2782.314,205.415,25,
1439,1,SBT2050,2,4,,2,14528,4.14983,0.013081,2782.433,205.415,25.1,
1439,1,SBT2050,2,4,,2,14560,4.14978,0.013451,2782.548,205.415,25.1,
1439,1,SBT2050,2,4,,2,14592,4.14993,0.013206,2782.666,205.415,25,
1439,1,SBT2050,2,4,,2,14624,4.14987,0.012804,2782.781,205.415,25.1,
1439,1,SBT2050,2,4,,2,14656,4.14984,0.012817,2782.896,205.415,25,
1439,1,SBT2050,2,4,,2,14688,4.14986,0.013162,2783.012,205.415,25.1,
1439,1,SBT2050,2,4,,2,14720,4.150022,0.012641,2783.127,205.415,25,
1439,1,SBT2050,2,4,,2,14752,4.15019,0.012399,2783.238,205.415,25,
1439,1,SBT2050,2,4,,2,14784,4.14996,0.011962,2783.344,205.415,25,
1439,1,SBT2050,2,4,,2,14816,4.15015,0.012077,2783.449,205.415,25,
1439,1,SBT2050,2,4,,2,14848,4.150034,0.012412,2783.555,205.415,25,
1439,1,SBT2050,2,4,,2,14880,4.150046,0.011725,2783.663,205.415,25,
1439,1,SBT2050,2,4,,2,14912,4.14993,0.012397,2783.771,205.415,25,
1439,1,SBT2050,2,4,,2,14944,4.15001,0.012575,2783.879,205.415,25,
1439,1,SBT2050,2,4,,2,14976,4.150034,0.011264,2783.984,205.415,25,
1439,1,SBT2050,2,4,,2,15008,4.15021,0.012065,2784.088,205.415,25,
1439,1,SBT2050,2,4,,2,15040,4.14987,0.011631,2784.191,205.415,25,
1439,1,SBT2050,2,4,,2,15072,4.15011,0.011172,2784.293,205.415,25,
1439,1,SBT2050,2,4,,2,15104,4.15007,0.011486,2784.395,205.415,25,
1439,1,SBT2050,2,4,,2,15136,4.149772,0.011005,2784.495,205.415,25,
1439,1,SBT2050,2,4,,2,15168,4.14997,0.011925,2784.599,205.415,25,
1439,1,SBT2050,2,4,,2,15200,4.15019,0.010636,2784.697,205.415,25,
1439,1,SBT2050,2,4,,2,15232,4.14997,0.010507,2784.793,205.415,25,
1439,1,SBT2050,2,4,,2,15264,4.150022,0.010993,2784.887,205.415,25,
1439,1,SBT2050,2,4,,2,15296,4.149772,0.010715,2784.982,205.415,25,
1439,1,SBT2050,2,4,,2,15328,4.15015,0.010401,2785.075,205.415,25,
1439,1,SBT2050,2,4,,3,15359,4.14853,0,2785.114,205.415,25,
1439,1,SBT2050,2,4,,3,15391,4.14847,0,2785.114,205.415,25,
1439,1,SBT2050,2,4,,3,15423,4.14829,0,2785.114,205.415,25,
1439,1,SBT2050,2,4,,3,15455,4.14793,0,2785.114,205.415,25,
1439,1,SBT2050,2,4,,3,15487,4.14786,0,2785.114,205.415,25,
1439,1,SBT2050,2,4,,3,15519,4.14786,0,2785.114,205.415,25,
1439,1,SBT2050,2,4,,3,15551,4.14769,0,2785.114,205.415,25,
1439,1,SBT2050,2,4,,3,15583,4.14734,0,2785.114,205.415,25,
1439,1,SBT2050,2,4,,3,15615,4.147446,0,2785.114,205.415,25,
1439,1,SBT2050,2,4,,3,15647,4.14745,0,2785.114,205.415,25,
1439,1,SBT2050,2,4,,3,15679,4.147192,0,2785.114,205.415,25,
1439,1,SBT2050,2,4,,3,15711,4.14708,0,2785.114,205.415,25,
1439,1,SBT2050,2,4,,3,15743,4.14725,0,2785.114,205.415,25,
1439,1,SBT2050,2,4,,3,15775,4.14733,0,2785.114,205.415,25,
1439,1,SBT2050,2,4,,3,15807,4.14719,0,2785.114,205.415,25,
1439,1,SBT2050,2,4,,3,15839,4.14685,0,2785.114,205.415,25,
1439,1,SBT2050,2,4,,3,15871,4.14709,0,2785.114,205.415,25,
1439,1,SBT2050,2,4,,3,15903,4.14695,0,2785.114,205.415,25,
1439,1,SBT2050,2,4,,3,15935,4.14702,0,2785.114,205.415,25,
1439,1,SBT2050,2,4,,3,15967,4.14674,0,2785.114,205.415,25,
1439,1,SBT2050,2,4,,3,15999,4.1467,0,2785.114,205.415,25,
1439,1,SBT2050,2,4,,3,16031,4.14683,0,2785.114,205.415,25,
1439,1,SBT2050,2,4,,3,16063,4.14668,0,2785.114,205.415,25,
1439,1,SBT2050,2,4,,3,16095,4.14703,0,2785.114,205.415,25,
1439,1,SBT2050,2,4,,3,16127,4.14652,0,2785.114,205.415,25,
1439,1,SBT2050,2,4,,3,16159,4.14685,0,2785.114,205.415,25,
1439,1,SBT2050,2,4,,3,16191,4.14652,0,2785.114,205.415,25,
1439,1,SBT2050,2,4,,3,16223,4.146794,0,2785.114,205.415,25,
1439,1,SBT2050,2,4,,3,16255,4.14641,0,2785.114,205.415,25,
1439,1,SBT2050,2,4,,3,16287,4.14636,0,2785.114,205.415,25,
1439,1,SBT2050,2,4,,3,16319,4.14649,0,2785.114,205.415,25,
1439,1,SBT2050,2,4,,3,16351,4.14604,0,2785.114,205.415,25.1,
1439,1,SBT2050,2,4,,3,16383,4.146364,0,2785.114,205.415,25.1,
1439,1,SBT2050,2,4,,3,16415,4.14645,0,2785.114,205.415,25.1,
1439,1,SBT2050,2,4,,3,16447,4.14615,0,2785.114,205.415,25,
1439,1,SBT2050,2,4,,3,16479,4.14624,0,2785.114,205.415,25.1,
1439,1,SBT2050,2,4,,3,16511,4.14621,0,2785.114,205.415,25,
1439,1,SBT2050,2,4,,3,16543,4.14637,0,2785.114,205.415,25,
1439,1,SBT2050,2,4,,3,16575,4.14625,0,2785.114,205.415,25,
1439,1,SBT2050,2,4,,3,16607,4.14616,0,2785.114,205.415,25,
1439,1,SBT2050,2,4,,3,16639,4.14601,0,2785.114,205.415,25,
1439,1,SBT2050,2,4,,3,16671,4.14585,0,2785.114,205.415,25,
1439,1,SBT2050,2,4,,3,16703,4.14604,0,2785.114,205.415,25,
1439,1,SBT2050,2,4,,3,16735,4.14593,0,2785.114,205.415,25.1,
1439,1,SBT2050,2,4,,3,16767,4.14599,0,2785.114,205.415,25.1,
1439,1,SBT2050,2,4,,3,16799,4.14579,0,2785.114,205.415,25.1,
1439,1,SBT2050,2,4,,3,16831,4.14585,0,2785.114,205.415,25.1,
1439,1,SBT2050,2,4,,3,16863,4.145558,0,2785.114,205.415,25.1,
1439,1,SBT2050,2,4,,3,16895,4.145628,0,2785.114,205.415,25.1,
1439,1,SBT2050,2,4,,3,16927,4.14608,0,2785.114,205.415,25.1,
1439,1,SBT2050,2,4,,3,16959,4.14594,0,2785.114,205.415,25.1,
1439,1,SBT2050,2,4,,3,16991,4.14569,0,2785.114,205.415,25,
1439,1,SBT2050,2,4,,3,17023,4.14565,0,2785.114,205.415,25,
1439,1,SBT2050,2,4,,3,17055,4.14576,0,2785.114,205.415,25,
1439,1,SBT2050,2,4,,3,17087,4.145726,0,2785.114,205.415,25,
1439,1,SBT2050,2,4,,3,17119,4.14598,0,2785.114,205.415,25,
1439,1,SBT2050,2,4,,4,17150,3.92768,-2.9363,2785.114,212.183,25,
1439,1,SBT2050,2,4,,4,17182,3.87906,-2.9353,2785.114,238.28,25.3,
1439,1,SBT2050,2,4,,4,17214,3.85743,-2.9359,2785.114,264.378,25.7,
1439,1,SBT2050,2,4,,4,17246,3.84551,-2.9362,2785.114,290.475,26,
1439,1,SBT2050,2,4,,4,17278,3.83756,-2.9355,2785.114,316.573,26.3,
1439,1,SBT2050,2,4,,4,17310,3.83157,-2.9363,2785.114,342.67,26.6,
1439,1,SBT2050,2,4,,4,17342,3.82638,-2.936,2785.114,368.768,26.8,
1439,1,SBT2050,2,4,,4,17374,3.82147,-2.9358,2785.114,394.865,27,
1439,1,SBT2050,2,4,,4,17406,3.81716,-2.9359,2785.114,420.962,27.2,
1439,1,SBT2050,2,4,,4,17438,3.81159,-2.9359,2785.114,447.06,27.4,
1439,1,SBT2050,2,4,,4,17470,3.806108,-2.936,2785.114,473.157,27.5,
1439,1,SBT2050,2,4,,4,17502,3.8003,-2.9362,2785.114,499.255,27.6,
1439,1,SBT2050,2,4,,4,17534,3.79397,-2.9359,2785.114,525.352,27.6,
1439,1,SBT2050,2,4,,4,17566,3.78702,-2.9359,2785.114,551.449,27.7,
1439,1,SBT2050,2,4,,4,17598,3.77969,-2.9361,2785.114,577.547,27.7,
1439,1,SBT2050,2,4,,4,17630,3.77251,-2.936,2785.114,603.644,27.8,
1439,1,SBT2050,2,4,,4,17662,3.76456,-2.9353,2785.114,629.742,27.8,
1439,1,SBT2050,2,4,,4,17694,3.75704,-2.9359,2785.114,655.839,27.8,
1439,1,SBT2050,2,4,,4,17726,3.74914,-2.9356,2785.114,681.936,27.8,
1439,1,SBT2050,2,4,,4,17758,3.74141,-2.9363,2785.114,708.034,27.8,
1439,1,SBT2050,2,4,,4,17790,3.73298,-2.9359,2785.114,734.131,27.8,
1439,1,SBT2050,2,4,,4,17822,3.72496,-2.9361,2785.114,760.229,27.8,
1439,1,SBT2050,2,4,,4,17854,3.71657,-2.9359,2785.114,786.326,27.8,
1439,1,SBT2050,2,4,,4,17886,3.70864,-2.936,2785.114,812.424,27.7,
1439,1,SBT2050,2,4,,4,17918,3.700486,-2.9363,2785.114,838.521,27.7,
1439,1,SBT2050,2,4,,4,17950,3.69242,-2.9362,2785.114,864.618,27.8,
1439,1,SBT2050,2,4,,4,17982,3.68409,-2.9359,2785.114,890.716,27.7,
1439,1,SBT2050,2,4,,4,18014,3.67592,-2.9358,2785.114,916.813,27.8,
1439,1,SBT2050,2,4,,4,18046,3.66754,-2.936,2785.114,942.911,27.8,
1439,1,SBT2050,2,4,,4,18078,3.65908,-2.936,2785.114,969.008,27.8,
1439,1,SBT2050,2,4,,4,18110,3.65056,-2.9357,2785.114,995.105,27.7,
1439,1,SBT2050,2,4,,4,18142,3.64213,-2.9363,2785.114,1021.203,27.7,
1439,1,SBT2050,2,4,,4,18174,3.63326,-2.9356,2785.114,1047.3,27.7,
1439,1,SBT2050,2,4,,4,18206,3.62441,-2.9362,2785.114,1073.398,27.7,
1439,1,SBT2050,2,4,,4,18238,3.61559,-2.9361,2785.114,1099.495,27.8,
1439,1,SBT2050,2,4,,4,18270,3.606392,-2.9362,2785.114,1125.592,27.8,
1439,1,SBT2050,2,4,,4,18302,3.59747,-2.9359,2785.114,1151.69,27.8,
1439,1,SBT2050,2,4,,4,18334,3.58829,-2.9356,2785.114,1177.787,27.8,
1439,1,SBT2050,2,4,,4,18366,3.57884,-2.9359,2785.114,1203.885,27.8,
1439,1,SBT2050,2,4,,4,18398,3.569482,-2.936,2785.114,1229.982,27.8,
1439,1,SBT2050,2,4,,4,18430,3.56003,-2.9361,2785.114,1256.08,27.8,
1439,1,SBT2050,2,4,,4,18462,3.55064,-2.9359,2785.114,1282.177,27.9,
1439,1,SBT2050,2,4,,4,18494,3.54155,-2.936,2785.114,1308.274,27.9,
1439,1,SBT2050,2,4,,4,18526,3.532304,-2.9364,2785.114,1334.372,27.8,
1439,1,SBT2050,2,4,,4,18558,3.523128,-2.9363,2785.114,1360.469,27.9,
1439,1,SBT2050,2,4,,4,18590,3.514,-2.9354,2785.114,1386.567,27.9,
1439,1,SBT2050,2,4,,4,18622,3.5048,-2.936,2785.114,1412.664,27.9,
1439,1,SBT2050,2,4,,4,18654,3.49598,-2.936,2785.114,1438.761,27.9,
1439,1,SBT2050,2,4,,4,18686,3.48702,-2.9362,2785.114,1464.859,28,
1439,1,SBT2050,2,4,,4,18718,3.47836,-2.936,2785.114,1490.956,27.9,
1439,1,SBT2050,2,4,,4,18750,3.46995,-2.9353,2785.114,1517.054,28,
1439,1,SBT2050,2,4,,4,18782,3.46179,-2.9364,2785.114,1543.151,27.9,
1439,1,SBT2050,2,4,,4,18814,3.45317,-2.936,2785.114,1569.249,28,
1439,1,SBT2050,2,4,,4,18846,3.44509,-2.9359,2785.114,1595.346,28,
1439,1,SBT2050,2,4,,4,18878,3.43697,-2.9359,2785.114,1621.443,28,
1439,1,SBT2050,2,4,,4,18910,3.42894,-2.9358,2785.114,1647.541,28,
1439,1,SBT2050,2,4,,4,18942,3.42142,-2.9362,2785.114,1673.638,28.1,
1439,1,SBT2050,2,4,,4,18974,3.41362,-2.9358,2785.114,1699.736,28.1,
1439,1,SBT2050,2,4,,4,19006,3.40591,-2.9359,2785.114,1725.833,28.1,
1439,1,SBT2050,2,4,,4,19038,3.39814,-2.9357,2785.114,1751.93,28.1,
1439,1,SBT2050,2,4,,4,19070,3.39062,-2.9352,2785.114,1778.028,28.1,
1439,1,SBT2050,2,4,,4,19102,3.38317,-2.9361,2785.114,1804.125,28.2,
1439,1,SBT2050,2,4,,4,19134,3.375802,-2.9359,2785.114,1830.223,28.2,
1439,1,SBT2050,2,4,,4,19166,3.36801,-2.9361,2785.114,1856.32,28.2,
1439,1,SBT2050,2,4,,4,19198,3.36015,-2.9358,2785.114,1882.418,28.2,
1439,1,SBT2050,2,4,,4,19230,3.35227,-2.936,2785.114,1908.515,28.2,
1439,1,SBT2050,2,4,,4,19262,3.34459,-2.9359,2785.114,1934.612,28.3,
1439,1,SBT2050,2,4,,4,19294,3.3362,-2.9358,2785.114,1960.71,28.3,
1439,1,SBT2050,2,4,,4,19326,3.32781,-2.9362,2785.114,1986.807,28.3,
1439,1,SBT2050,2,4,,4,19358,3.31963,-2.9359,2785.114,2012.905,28.4,
1439,1,SBT2050,2,4,,4,19390,3.31066,-2.9362,2785.114,2039.002,28.5,
1439,1,SBT2050,2,4,,4,19422,3.301539,-2.9362,2785.114,2065.099,28.4,
1439,1,SBT2050,2,4,,4,19454,3.29213,-2.936,2785.114,2091.197,28.5,
1439,1,SBT2050,2,4,,4,19486,3.2824,-2.9363,2785.114,2117.294,28.6,
1439,1,SBT2050,2,4,,4,19518,3.27204,-2.9361,2785.114,2143.392,28.6,
1439,1,SBT2050,2,4,,4,19550,3.26108,-2.9356,2785.114,2169.489,28.6,
1439,1,SBT2050,2,4,,4,19582,3.25049,-2.9359,2785.114,2195.586,28.7,
1439,1,SBT2050,2,4,,4,19614,3.23866,-2.9365,2785.114,2221.684,28.8,
1439,1,SBT2050,2,4,,4,19646,3.226164,-2.9362,2785.114,2247.781,28.8,
1439,1,SBT2050,2,4,,4,19678,3.21314,-2.9361,2785.114,2273.878,28.9,
1439,1,SBT2050,2,4,,4,19710,3.19929,-2.9362,2785.114,2299.976,29,
1439,1,SBT2050,2,4,,4,19742,3.18444,-2.936,2785.114,2326.073,29,
1439,1,SBT2050,2,4,,4,19774,3.168643,-2.9359,2785.114,2352.171,29.1,
1439,1,SBT2050,2,4,,4,19806,3.15089,-2.9361,2785.114,2378.268,29.2,
1439,1,SBT2050,2,4,,4,19838,3.13275,-2.9359,2785.114,2404.366,29.3,
1439,1,SBT2050,2,4,,4,19870,3.112916,-2.936,2785.114,2430.463,29.4,
1439,1,SBT2050,2,4,,4,19902,3.09147,-2.9356,2785.114,2456.561,29.6,
1439,1,SBT2050,2,4,,4,19934,3.06809,-2.9359,2785.114,2482.658,29.8,
1439,1,SBT2050,2,4,,4,19966,3.0428,-2.9358,2785.114,2508.756,29.9,
1439,1,SBT2050,2,4,,4,19998,3.015045,-2.9358,2785.114,2534.853,30.1,
1439,1,SBT2050,2,4,,4,20030,2.984635,-2.9358,2785.114,2560.95,30.4,
1439,1,SBT2050,2,4,,4,20062,2.95076,-2.9362,2785.114,2587.048,30.5,
1439,1,SBT2050,2,4,,4,20094,2.912085,-2.9358,2785.114,2613.145,30.8,
1439,1,SBT2050,2,4,,4,20126,2.86832,-2.9365,2785.114,2639.243,31,
1439,1,SBT2050,2,4,,4,20158,2.817759,-2.9357,2785.114,2665.34,31.3,
1439,1,SBT2050,2,4,,4,20190,2.75979,-2.9361,2785.114,2691.437,31.6,
1439,1,SBT2050,2,4,,4,20222,2.6945,-2.9357,2785.114,2717.535,32.1,
1439,1,SBT2050,2,4,,4,20254,2.616167,-2.9357,2785.114,2743.632,32.5,
1439,1,SBT2050,2,4,,4,20286,2.51718,-2.9357,2785.114,2769.729,33.1,
1439,1,SBT2050,2,4,,4,20318,2.499676,-2.5009,2785.114,2793.891,33.7,
1439,1,SBT2050,2,4,,4,20350,2.49959,-2.1973,2785.114,2814.718,34.1,
1439,1,SBT2050,2,4,,4,20382,2.49988,-1.9436,2785.114,2833.096,34.2,
1439,1,SBT2050,2,4,,4,20414,2.499843,-1.7172,2785.114,2849.349,34.3,
1439,1,SBT2050,2,4,,4,20446,2.49963,-1.5156,2785.114,2863.702,34.1,
1439,1,SBT2050,2,4,,4,20478,2.49966,-1.3364,2785.114,2876.361,33.8,
1439,1,SBT2050,2,4,,4,20510,2.499831,-1.1792,2785.114,2887.518,33.4,
1439,1,SBT2050,2,4,,4,20542,2.49993,-1.0414,2785.114,2897.368,33.1,
1439,1,SBT2050,2,4,,4,20574,2.49994,-0.922,2785.114,2906.079,32.6,
1439,1,SBT2050,2,4,,4,20606,2.499676,-0.8188,2785.114,2913.806,32.2,
1439,1,SBT2050,2,4,,4,20638,2.49994,-0.7301,2785.114,2920.68,31.7,
1439,1,SBT2050,2,4,,4,20670,2.49988,-0.6524,2785.114,2926.816,31.3,
1439,1,SBT2050,2,4,,4,20702,2.49985,-0.5858,2785.114,2932.309,30.9,
1439,1,SBT2050,2,4,,4,20734,2.499831,-0.5272,2785.114,2937.246,30.5,
1439,1,SBT2050,2,4,,4,20766,2.49972,-0.47471,2785.114,2941.692,30,
1439,1,SBT2050,2,4,,4,20798,2.499688,-0.42746,2785.114,2945.694,29.6,
1439,1,SBT2050,2,4,,4,20830,2.49972,-0.387,2785.114,2949.311,29.3,
1439,1,SBT2050,2,4,,4,20862,2.49987,-0.35008,2785.114,2952.583,29,
1439,1,SBT2050,2,4,,4,20894,2.49995,-0.31719,2785.114,2955.545,28.7,
1439,1,SBT2050,2,4,,4,20926,2.49981,-0.28865,2785.114,2958.236,28.4,
1439,1,SBT2050,2,4,,4,20958,2.4998,-0.2637,2785.114,2960.69,28.1,
1439,1,SBT2050,2,4,,4,20990,2.49981,-0.24155,2785.114,2962.934,27.8,
1439,1,SBT2050,2,4,,4,21022,2.49952,-0.22111,2785.114,2964.989,27.6,
1439,1,SBT2050,2,4,,4,21054,2.49989,-0.20305,2785.114,2966.873,27.4,
1439,1,SBT2050,2,4,,4,21086,2.49964,-0.18642,2785.114,2968.603,27.2,
1439,1,SBT2050,2,4,,4,21118,2.49988,-0.17079,2785.114,2970.189,27.1,
1439,1,SBT2050,2,4,,4,21150,2.49974,-0.15671,2785.114,2971.645,26.9,
1439,1,SBT2050,2,4,,4,21182,2.4998,-0.14397,2785.114,2972.981,26.8,
1439,1,SBT2050,2,4,,4,21214,2.4998,-0.13207,2785.114,2974.206,26.6,
1439,1,SBT2050,2,4,,4,21246,2.499843,-0.12129,2785.114,2975.33,26.5,
1439,1,SBT2050,2,4,,4,21278,2.49958,-0.11097,2785.114,2976.361,26.4,
1439,1,SBT2050,2,4,,4,21310,2.499843,-0.10174,2785.114,2977.306,26.3,
1439,1,SBT2050,2,4,,4,21342,2.50001,-0.09322,2785.114,2978.172,26.1,
1439,1,SBT2050,2,4,,4,21374,2.49978,-0.08531,2785.114,2978.964,26.1,
1439,1,SBT2050,2,4,,4,21406,2.499843,-0.07764,2785.114,2979.687,26,
1439,1,SBT2050,2,4,,4,21438,2.50002,-0.07082,2785.114,2980.346,25.9,
1439,1,SBT2050,2,4,,4,21470,2.4999,-0.06453,2785.114,2980.947,25.8,
1439,1,SBT2050,2,4,,4,21502,2.499819,-0.0587,2785.114,2981.494,25.7,
1439,1,SBT2050,2,4,,4,21534,2.499986,-0.05348,2785.114,2981.992,25.7,
1439,1,SBT2050,2,4,,4,21566,2.499843,-0.04839,2785.114,2982.444,25.6,
1439,1,SBT2050,2,4,,4,21598,2.499688,-0.043887,2785.114,2982.854,25.6,
1439,1,SBT2050,2,4,,4,21630,2.49995,-0.039858,2785.114,2983.226,25.5,
1439,1,SBT2050,2,4,,4,21662,2.4999,-0.03628,2785.114,2983.565,25.5,
1439,1,SBT2050,2,4,,4,21694,2.49989,-0.033155,2785.114,2983.873,25.4,
1439,1,SBT2050,2,4,,4,21726,2.50001,-0.03039,2785.114,2984.156,25.4,
1439,1,SBT2050,2,4,,4,21758,2.50001,-0.02811,2785.114,2984.417,25.4,
1439,1,SBT2050,2,4,,4,21790,2.50003,-0.026048,2785.114,2984.657,25.4,
1439,1,SBT2050,2,4,,4,21822,2.499974,-0.024247,2785.114,2984.879,25.4,
1439,1,SBT2050,2,4,,4,21854,2.5,-0.022703,2785.114,2985.087,25.4,
1439,1,SBT2050,2,4,,4,21886,2.49994,-0.021241,2785.114,2985.281,25.3,
1439,1,SBT2050,2,4,,4,21918,2.49985,-0.019874,2785.114,2985.464,25.3,
1439,1,SBT2050,2,4,,4,21950,2.49993,-0.018776,2785.114,2985.637,25.3,
1439,1,SBT2050,2,4,,4,21982,2.50001,-0.017981,2785.114,2985.801,25.2,
1439,1,SBT2050,2,4,,4,22014,2.49995,-0.017399,2785.114,2985.958,25.2,
1439,1,SBT2050,2,4,,4,22046,2.5,-0.016504,2785.114,2986.108,25.2,
1439,1,SBT2050,2,4,,4,22078,2.499986,-0.015977,2785.114,2986.253,25.2,
1439,1,SBT2050,2,4,,4,22110,2.49991,-0.015495,2785.114,2986.392,25.2,
1439,1,SBT2050,2,4,,4,22142,2.49991,-0.015092,2785.114,2986.527,25.2,
1439,1,SBT2050,2,4,,4,22174,2.499962,-0.014536,2785.114,2986.659,25.2,
1439,1,SBT2050,2,4,,4,22206,2.50015,-0.014324,2785.114,2986.786,25.2,
1439,1,SBT2050,2,4,,4,22238,2.50022,-0.014028,2785.114,2986.912,25.2,
1439,1,SBT2050,2,4,,4,22270,2.499962,-0.013654,2785.114,2987.034,25.2,
1439,1,SBT2050,2,4,,4,22302,2.50006,-0.013309,2785.114,2987.153,25.2,
1439,1,SBT2050,2,4,,4,22334,2.499974,-0.013071,2785.114,2987.27,25.2,
1439,1,SBT2050,2,4,,4,22366,2.50002,-0.012874,2785.114,2987.385,25.1,
1439,1,SBT2050,2,4,,4,22398,2.49994,-0.012574,2785.114,2987.497,25.1,
1439,1,SBT2050,2,4,,4,22430,2.499962,-0.012396,2785.114,2987.608,25.1,
1439,1,SBT2050,2,4,,4,22462,2.499962,-0.012153,2785.114,2987.717,25.1,
1439,1,SBT2050,2,4,,4,22494,2.50009,-0.012235,2785.114,2987.824,25.1,
1439,1,SBT2050,2,4,,4,22526,2.500117,-0.011703,2785.114,2987.929,25.1,
1439,1,SBT2050,2,4,,4,22558,2.5002,-0.011557,2785.114,2988.033,25.1,
1439,1,SBT2050,2,4,,4,22590,2.50003,-0.011277,2785.114,2988.134,25.1,
1439,1,SBT2050,2,4,,4,22622,2.50007,-0.011284,2785.114,2988.235,25.1,
1439,1,SBT2050,2,4,,4,22654,2.49987,-0.010945,2785.114,2988.334,25.1,
1439,1,SBT2050,2,4,,4,22686,2.499974,-0.010829,2785.114,2988.432,25.1,
1439,1,SBT2050,2,4,,4,22718,2.500129,-0.010828,2785.114,2988.528,25.1,
1439,1,SBT2050,2,4,,4,22750,2.50008,-0.010705,2785.114,2988.623,25.1,
1439,1,SBT2050,2,4,,4,22782,2.50001,-0.010471,2785.114,2988.717,25.1,
1439,1,SBT2050,2,4,,4,22814,2.500117,-0.0103,2785.114,2988.81,25.1,
1439,1,SBT2050,2,4,,4,22846,2.5,-0.010298,2785.114,2988.902,25.1,
1439,1,SBT2050,2,4,,4,22878,2.50002,-0.010116,2785.114,2988.992,25.1,
1439,1,SBT2050,2,4,,5,22909,2.52335,0,2785.114,2988.996,25.1,
1439,1,SBT2050,2,4,,5,22941,2.54117,0,2785.114,2988.996,25.1,
1439,1,SBT2050,2,4,,5,22973,2.55701,0,2785.114,2988.996,25.1,
1439,1,SBT2050,2,4,,5,23005,2.57161,0,2785.114,2988.996,25.1,
1439,1,SBT2050,2,4,,5,23037,2.58511,0,2785.114,2988.996,25.1,
1439,1,SBT2050,2,4,,5,23069,2.59778,0,2785.114,2988.996,25.1,
1439,1,SBT2050,2,4,,5,23101,2.60965,0,2785.114,2988.996,25.1,
1439,1,SBT2050,2,4,,5,23133,2.62071,0,2785.114,2988.996,25.1,
1439,1,SBT2050,2,4,,5,23165,2.630976,0,2785.114,2988.996,25.1,
1439,1,SBT2050,2,4,,5,23197,2.640246,0,2785.114,2988.996,25.1,
1439,1,SBT2050,2,4,,5,23229,2.64948,0,2785.114,2988.996,25.1,
1439,1,SBT2050,2,4,,5,23261,2.65768,0,2785.114,2988.996,25.1,
1439,1,SBT2050,2,4,,5,23293,2.66564,0,2785.114,2988.996,25.1,
1439,1,SBT2050,2,4,,5,23325,2.6728,0,2785.114,2988.996,25.1,
1439,1,SBT2050,2,4,,5,23357,2.67962,0,2785.114,2988.996,25.1,
1439,1,SBT2050,2,4,,5,23389,2.68612,0,2785.114,2988.996,25,
1439,1,SBT2050,2,4,,5,23421,2.6922,0,2785.114,2988.996,25.1,
1439,1,SBT2050,2,4,,5,23453,2.69785,0,2785.114,2988.996,25.1,
1439,1,SBT2050,2,4,,5,23485,2.70363,0,2785.114,2988.996,25.1,
1439,1,SBT2050,2,4,,5,23517,2.70835,0,2785.114,2988.996,25.1,
1439,1,SBT2050,2,4,,5,23549,2.71326,0,2785.114,2988.996,25,
1439,1,SBT2050,2,4,,5,23581,2.71811,0,2785.114,2988.996,25.1,
1439,1,SBT2050,2,4,,5,23613,2.72235,0,2785.114,2988.996,25.1,
1439,1,SBT2050,2,4,,5,23645,2.72666,0,2785.114,2988.996,25.1,
1439,1,SBT2050,2,4,,5,23677,2.73029,0,2785.114,2988.996,25.1,
1439,1,SBT2050,2,4,,5,23709,2.73412,0,2785.114,2988.996,25,
1439,1,SBT2050,2,4,,5,23741,2.73784,0,2785.114,2988.996,25.1,
1439,1,SBT2050,2,4,,5,23773,2.74124,0,2785.114,2988.996,25.1,
1439,1,SBT2050,2,4,,5,23805,2.7446,0,2785.114,2988.996,25.1,
1439,1,SBT2050,2,4,,5,23837,2.74749,0,2785.114,2988.996,25,
1439,1,SBT2050,2,4,,5,23869,2.75069,0,2785.114,2988.996,25.1,
1439,1,SBT2050,2,4,,5,23901,2.75329,0,2785.114,2988.996,25,
1439,1,SBT2050,2,4,,5,23933,2.75629,0,2785.114,2988.996,25.1,
1439,1,SBT2050,2,4,,5,23965,2.75865,0,2785.114,2988.996,25.1,
1439,1,SBT2050,2,4,,5,23997,2.76115,0,2785.114,2988.996,25.1,
1439,1,SBT2050,2,4,,5,24029,2.76362,0,2785.114,2988.996,25.1,
1439,1,SBT2050,2,4,,5,24061,2.76597,0,2785.114,2988.996,25.1,
1439,1,SBT2050,2,4,,5,24093,2.76814,0,2785.114,2988.996,25,
1439,1,SBT2050,2,4,,5,24125,2.7703,0,2785.114,2988.996,25,
1439,1,SBT2050,2,4,,5,24157,2.77207,0,2785.114,2988.996,25.1,
1439,1,SBT2050,2,4,,5,24189,2.77416,0,2785.114,2988.996,25.1,
1439,1,SBT2050,2,4,,5,24221,2.776019,0,2785.114,2988.996,25.1,
1439,1,SBT2050,2,4,,5,24253,2.77768,0,2785.114,2988.996,25.1,
1439,1,SBT2050,2,4,,5,24285,2.77961,0,2785.114,2988.996,25.1,
1439,1,SBT2050,2,4,,5,24317,2.78105,0,2785.114,2988.996,25.1,
1439,1,SBT2050,2,4,,5,24349,2.78317,0,2785.114,2988.996,25,
1439,1,SBT2050,2,4,,5,24381,2.78447,0,2785.114,2988.996,25,
1439,1,SBT2050,2,4,,5,24413,2.78613,0,2785.114,2988.996,25,
1439,1,SBT2050,2,4,,5,24445,2.78769,0,2785.114,2988.996,25,
1439,1,SBT2050,2,4,,5,24477,2.78912,0,2785.114,2988.996,25.1,
1439,1,SBT2050,2,4,,5,24509,2.79037,0,2785.114,2988.996,25.1,
1439,1,SBT2050,2,4,,5,24541,2.79195,0,2785.114,2988.996,25.1,
1439,1,SBT2050,2,4,,5,24573,2.79342,0,2785.114,2988.996,25.1,
1439,1,SBT2050,2,4,,5,24605,2.7945,0,2785.114,2988.996,25.1,
1439,1,SBT2050,2,4,,5,24637,2.7959,0,2785.114,2988.996,25.1,
1439,1,SBT2050,2,4,,5,24669,2.79716,0,2785.114,2988.996,25,
1439,1,SBT2050,2,4,,5,24679.416,2.797507,-0.000101,2785.114,2988.996,,