File: 1C/Test1423.csv
Request Year:,2018,,,,,,,,,,,,
Test:,1423,,,,,,,,,,,,
Test Description:,,,,,,,,,,,,,
TestRegime Name:,Aging_Performance,,,,,,,,,,,,
TestRegime Suffix:,SHP_LC,,,,,,,,,,,,
TestRegime CellSize:,18650,,,,,,,,,,,,
TestRegime Version:,1,,,,,,,,,,,,
Number Of Cells:,1,,,,,,,,,,,,
LotID:,,,,,,,,,,,,,
Lot Description:,,,,,,,,,,,,,
Date Made:,1/21/2003 12:00 AM,,,,,,,,,,,,
Origin:,Other,,,,,,,,,,,,
Requestor:,Admin,,,,,,,,,,,,
Product ID:,Default product,,,,,,,,,,,,
Storage Temp:,R.T./AMB,,,,,,,,,,,,
Storage Delay:,0 days,,,,,,,,,,,,
Test Temp:,R.T./AMB,,,,,,,,,,,,
Start Time:,3/29/2018 1:09 PM,,,,,,,,,,,,
End Time:,3/29/2018 7:37 PM,,,,,,,,,,,,
Operator Instructions:,,,,,,,,,,,,,
Test,Cell,Rack,Shelf,Position,Cell ID,Step,Total Time (Seconds),Voltage (V),Current (A),Charge Capacity (mAh),Discharge Capacity (mAh),TC1 (Â°C),
1423,1,SBT2050,2,4,,0,1,3.33046,0,0,0,25.1,
1423,1,SBT2050,2,4,,0,31,3.33025,0,0,0,25,
1423,1,SBT2050,2,4,,0,61,3.33016,0,0,0,25,
1423,1,SBT2050,2,4,,0,91,3.33033,0,0,0,25,
1423,1,SBT2050,2,4,,0,121,3.33034,0,0,0,25.1,
1423,1,SBT2050,2,4,,0,151,3.330362,0,0,0,25.1,
1423,1,SBT2050,2,4,,0,181,3.33049,0,0,0,25.1,
1423,1,SBT2050,2,4,,0,211,3.3305,0,0,0,25,
1423,1,SBT2050,2,4,,0,241,3.33082,0,0,0,25.1,
1423,1,SBT2050,2,4,,0,271,3.33077,0,0,0,25.1,
1423,1,SBT2050,2,4,,1,301,3.070736,-2.9362,0,0.814,25.1,
1423,1,SBT2050,2,4,,1,331,2.49925,-2.0568,0,23.604,25.8,
1423,1,SBT2050,2,4,,1,361,2.49967,-1.5768,0,38.298,26.8,
1423,1,SBT2050,2,4,,1,391,2.49985,-1.3739,0,50.528,27.4,
1423,1,SBT2050,2,4,,1,421,2.499877,-1.2333,0,61.365,27.9,
1423,1,SBT2050,2,4,,1,451,2.49983,-1.1187,0,71.155,28.2,
1423,1,SBT2050,2,4,,1,481,2.49985,-1.0078,0,80.01,28.4,
1423,1,SBT2050,2,4,,1,511,2.49992,-0.9155,0,88.011,28.5,
1423,1,SBT2050,2,4,,1,541,2.499734,-0.8366,0,95.305,28.6,
1423,1,SBT2050,2,4,,1,571,2.49976,-0.7681,0,101.987,28.7,
1423,1,SBT2050,2,4,,1,601,2.49977,-0.7056,0,108.124,28.6,
1423,1,SBT2050,2,4,,1,631,2.49996,-0.6493,0,113.769,28.5,
1423,1,SBT2050,2,4,,1,661,2.49997,-0.5992,0,118.972,28.4,
1423,1,SBT2050,2,4,,1,691,2.4999,-0.5547,0,123.777,28.4,
1423,1,SBT2050,2,4,,1,721,2.499722,-0.5135,0,128.226,28.2,
1423,1,SBT2050,2,4,,1,751,2.49981,-0.4772,0,132.354,28.1,
1423,1,SBT2050,2,4,,1,781,2.499889,-0.44332,0,136.185,28,
1423,1,SBT2050,2,4,,1,811,2.49994,-0.41307,0,139.751,27.8,
1423,1,SBT2050,2,4,,1,841,2.49981,-0.38509,0,143.076,27.7,
1423,1,SBT2050,2,4,,1,871,2.49977,-0.3597,0,146.178,27.6,
1423,1,SBT2050,2,4,,1,901,2.5,-0.33617,0,149.076,27.5,
1423,1,SBT2050,2,4,,1,931,2.49996,-0.31425,0,151.784,27.3,
1423,1,SBT2050,2,4,,1,961,2.49976,-0.29324,0,154.312,27.2,
1423,1,SBT2050,2,4,,1,991,2.4997,-0.27319,0,156.671,27.1,
1423,1,SBT2050,2,4,,1,1021,2.49978,-0.25465,0,158.87,27,
1423,1,SBT2050,2,4,,1,1051,2.499889,-0.23651,0,160.917,26.8,
1423,1,SBT2050,2,4,,1,1081,2.49978,-0.21988,0,162.821,26.8,
1423,1,SBT2050,2,4,,1,1111,2.499865,-0.204,0,164.588,26.6,
1423,1,SBT2050,2,4,,1,1141,2.49978,-0.18933,0,166.227,26.5,
1423,1,SBT2050,2,4,,1,1171,2.49969,-0.17498,0,167.744,26.4,
1423,1,SBT2050,2,4,,1,1201,2.49976,-0.16161,0,169.145,26.3,
1423,1,SBT2050,2,4,,1,1231,2.499591,-0.14889,0,170.437,26.3,
1423,1,SBT2050,2,4,,1,1261,2.49985,-0.13668,0,171.626,26.2,
1423,1,SBT2050,2,4,,1,1291,2.49984,-0.12479,0,172.716,26.1,
1423,1,SBT2050,2,4,,1,1321,2.49969,-0.11285,0,173.707,26.1,
1423,1,SBT2050,2,4,,1,1351,2.49982,-0.10132,0,174.6,26,
1423,1,SBT2050,2,4,,1,1381,2.4999,-0.08984,0,175.395,25.9,
1423,1,SBT2050,2,4,,1,1411,2.49978,-0.07941,0,176.1,25.8,
1423,1,SBT2050,2,4,,1,1441,2.49977,-0.06952,0,176.72,25.7,
1423,1,SBT2050,2,4,,1,1471,2.49985,-0.06095,0,177.263,25.7,
1423,1,SBT2050,2,4,,1,1501,2.49985,-0.05322,0,177.737,25.7,
1423,1,SBT2050,2,4,,1,1531,2.49991,-0.046402,0,178.15,25.6,
1423,1,SBT2050,2,4,,1,1561,2.50007,-0.040715,0,178.512,25.6,
1423,1,SBT2050,2,4,,1,1591,2.49998,-0.035889,0,178.83,25.6,
1423,1,SBT2050,2,4,,1,1621,2.49997,-0.031883,0,179.112,25.5,
1423,1,SBT2050,2,4,,1,1651,2.4999,-0.02879,0,179.364,25.5,
1423,1,SBT2050,2,4,,1,1681,2.49992,-0.026284,0,179.593,25.4,
1423,1,SBT2050,2,4,,1,1711,2.50006,-0.024238,0,179.803,25.4,
1423,1,SBT2050,2,4,,1,1741,2.49995,-0.022679,0,179.998,25.3,
1423,1,SBT2050,2,4,,1,1771,2.50019,-0.021266,0,180.18,25.3,
1423,1,SBT2050,2,4,,1,1801,2.500032,-0.0202,0,180.353,25.3,
1423,1,SBT2050,2,4,,1,1831,2.49996,-0.01927,0,180.518,25.3,
1423,1,SBT2050,2,4,,1,1861,2.499877,-0.018513,0,180.675,25.3,
1423,1,SBT2050,2,4,,1,1891,2.50004,-0.018078,0,180.827,25.3,
1423,1,SBT2050,2,4,,1,1921,2.499865,-0.017314,0,180.975,25.3,
1423,1,SBT2050,2,4,,1,1951,2.50006,-0.016939,0,181.117,25.2,
1423,1,SBT2050,2,4,,1,1981,2.49994,-0.016322,0,181.256,25.2,
1423,1,SBT2050,2,4,,1,2011,2.50013,-0.016036,0,181.392,25.2,
1423,1,SBT2050,2,4,,1,2041,2.500032,-0.015697,0,181.524,25.2,
1423,1,SBT2050,2,4,,1,2071,2.49998,-0.015455,0,181.654,25.2,
1423,1,SBT2050,2,4,,1,2101,2.49996,-0.015072,0,181.78,25.2,
1423,1,SBT2050,2,4,,1,2131,2.49996,-0.014639,0,181.905,25.2,
1423,1,SBT2050,2,4,,1,2161,2.49995,-0.014559,0,182.027,25.2,
1423,1,SBT2050,2,4,,1,2191,2.50007,-0.014127,0,182.147,25.2,
1423,1,SBT2050,2,4,,1,2221,2.499889,-0.014089,0,182.265,25.2,
1423,1,SBT2050,2,4,,1,2251,2.50008,-0.013896,0,182.381,25.1,
1423,1,SBT2050,2,4,,1,2281,2.5,-0.013707,0,182.495,25.2,
1423,1,SBT2050,2,4,,1,2311,2.500008,-0.013289,0,182.607,25.2,
1423,1,SBT2050,2,4,,1,2341,2.49992,-0.013038,0,182.717,25.2,
1423,1,SBT2050,2,4,,1,2371,2.50014,-0.012991,0,182.825,25.2,
1423,1,SBT2050,2,4,,1,2401,2.49995,-0.012589,0,182.932,25.1,
1423,1,SBT2050,2,4,,1,2431,2.49998,-0.012532,0,183.038,25.2,
1423,1,SBT2050,2,4,,1,2461,2.50007,-0.012296,0,183.142,25.1,
1423,1,SBT2050,2,4,,1,2491,2.50002,-0.012258,0,183.244,25.1,
1423,1,SBT2050,2,4,,1,2521,2.49992,-0.0121,0,183.345,25.1,
1423,1,SBT2050,2,4,,1,2551,2.49981,-0.011668,0,183.444,25.1,
1423,1,SBT2050,2,4,,1,2581,2.50009,-0.011594,0,183.542,25.1,
1423,1,SBT2050,2,4,,1,2611,2.49991,-0.011475,0,183.639,25.1,
1423,1,SBT2050,2,4,,1,2641,2.499865,-0.011295,0,183.734,25.2,
1423,1,SBT2050,2,4,,1,2671,2.50002,-0.011217,0,183.829,25.1,
1423,1,SBT2050,2,4,,1,2701,2.50012,-0.011193,0,183.922,25.2,
1423,1,SBT2050,2,4,,1,2731,2.500032,-0.011002,0,184.014,25.2,
1423,1,SBT2050,2,4,,1,2761,2.49998,-0.010741,0,184.105,25.1,
1423,1,SBT2050,2,4,,1,2791,2.50006,-0.010596,0,184.194,25.1,
1423,1,SBT2050,2,4,,1,2821,2.50008,-0.01057,0,184.284,25.2,
1423,1,SBT2050,2,4,,1,2851,2.5,-0.010409,0,184.372,25.1,
1423,1,SBT2050,2,4,,1,2881,2.4999,-0.010385,0,184.459,25.1,
1423,1,SBT2050,2,4,,1,2911,2.500032,-0.010354,0,184.545,25.1,
1423,1,SBT2050,2,4,,1,2941,2.5,-0.010194,0,184.63,25.1,
1423,1,SBT2050,2,4,,2,2970,3.13394,2.9358,8.47,184.683,25.1,
1423,1,SBT2050,2,4,,2,3000,3.334892,2.9355,32.936,184.683,25.3,
1423,1,SBT2050,2,4,,2,3030,3.44104,2.9363,57.402,184.683,25.4,
1423,1,SBT2050,2,4,,2,3060,3.51174,2.9359,81.869,184.683,25.7,
1423,1,SBT2050,2,4,,2,3090,3.56054,2.9361,106.335,184.683,25.8,
1423,1,SBT2050,2,4,,2,3120,3.58165,2.9361,130.801,184.683,26,
1423,1,SBT2050,2,4,,2,3150,3.58889,2.9362,155.268,184.683,26.4,
1423,1,SBT2050,2,4,,2,3180,3.59504,2.9364,179.734,184.683,26.6,
1423,1,SBT2050,2,4,,2,3210,3.60124,2.9359,204.2,184.683,26.9,
1423,1,SBT2050,2,4,,2,3240,3.60809,2.936,228.666,184.683,27.1,
1423,1,SBT2050,2,4,,2,3270,3.61461,2.9354,253.132,184.683,27.3,
1423,1,SBT2050,2,4,,2,3300,3.62113,2.9355,277.599,184.683,27.6,
1423,1,SBT2050,2,4,,2,3330,3.627548,2.9359,302.065,184.683,27.7,
1423,1,SBT2050,2,4,,2,3360,3.633702,2.9364,326.531,184.683,27.8,
1423,1,SBT2050,2,4,,2,3390,3.640176,2.9361,350.998,184.683,27.9,
1423,1,SBT2050,2,4,,2,3420,3.646336,2.9356,375.464,184.683,28,
1423,1,SBT2050,2,4,,2,3450,3.6526,2.9361,399.93,184.683,28,
1423,1,SBT2050,2,4,,2,3480,3.65817,2.9359,424.397,184.683,28.1,
1423,1,SBT2050,2,4,,2,3510,3.66306,2.9361,448.863,184.683,28.2,
1423,1,SBT2050,2,4,,2,3540,3.66765,2.936,473.329,184.683,28.2,
1423,1,SBT2050,2,4,,2,3570,3.67225,2.9356,497.796,184.683,28.2,
1423,1,SBT2050,2,4,,2,3600,3.67682,2.9359,522.262,184.683,28.2,
1423,1,SBT2050,2,4,,2,3630,3.68105,2.9364,546.728,184.683,28.2,
1423,1,SBT2050,2,4,,2,3660,3.68534,2.9359,571.194,184.683,28.2,
1423,1,SBT2050,2,4,,2,3690,3.689886,2.9362,595.661,184.683,28.2,
1423,1,SBT2050,2,4,,2,3720,3.6944,2.9355,620.127,184.683,28.2,
1423,1,SBT2050,2,4,,2,3750,3.69895,2.9356,644.593,184.683,28.2,
1423,1,SBT2050,2,4,,2,3780,3.703888,2.9357,669.059,184.683,28.2,
1423,1,SBT2050,2,4,,2,3810,3.70916,2.9366,693.526,184.683,28.2,
1423,1,SBT2050,2,4,,2,3840,3.71424,2.9362,717.992,184.683,28.2,
1423,1,SBT2050,2,4,,2,3870,3.71932,2.9357,742.458,184.683,28.2,
1423,1,SBT2050,2,4,,2,3900,3.72448,2.9355,766.924,184.683,28.2,
1423,1,SBT2050,2,4,,2,3930,3.729098,2.936,791.391,184.683,28.2,
1423,1,SBT2050,2,4,,2,3960,3.7344,2.9361,815.857,184.683,28.1,
1423,1,SBT2050,2,4,,2,3990,3.73981,2.9361,840.324,184.683,28.1,
1423,1,SBT2050,2,4,,2,4020,3.74479,2.9358,864.79,184.683,28.2,
1423,1,SBT2050,2,4,,2,4050,3.749806,2.9364,889.256,184.683,28.2,
1423,1,SBT2050,2,4,,2,4080,3.75522,2.936,913.722,184.683,28.2,
1423,1,SBT2050,2,4,,2,4110,3.760316,2.936,938.189,184.683,28.1,
1423,1,SBT2050,2,4,,2,4140,3.76565,2.9358,962.655,184.683,28.2,
1423,1,SBT2050,2,4,,2,4170,3.77066,2.9358,987.121,184.683,28.2,
1423,1,SBT2050,2,4,,2,4200,3.77625,2.9362,1011.588,184.683,28.2,
1423,1,SBT2050,2,4,,2,4230,3.78176,2.9362,1036.054,184.683,28.2,
1423,1,SBT2050,2,4,,2,4260,3.78716,2.9358,1060.52,184.683,28.2,
1423,1,SBT2050,2,4,,2,4290,3.79281,2.9358,1084.987,184.683,28.1,
1423,1,SBT2050,2,4,,2,4320,3.79905,2.9355,1109.453,184.683,28.2,
1423,1,SBT2050,2,4,,2,4350,3.8047,2.9362,1133.919,184.683,28.2,
1423,1,SBT2050,2,4,,2,4380,3.81082,2.9361,1158.385,184.683,28.2,
1423,1,SBT2050,2,4,,2,4410,3.817,2.9357,1182.852,184.683,28.2,
1423,1,SBT2050,2,4,,2,4440,3.82323,2.9364,1207.318,184.683,28.3,
1423,1,SBT2050,2,4,,2,4470,3.82969,2.9359,1231.784,184.683,28.3,
1423,1,SBT2050,2,4,,2,4500,3.83627,2.9363,1256.25,184.683,28.4,
1423,1,SBT2050,2,4,,2,4530,3.84298,2.936,1280.717,184.683,28.4,
1423,1,SBT2050,2,4,,2,4560,3.8501,2.9362,1305.183,184.683,28.4,
1423,1,SBT2050,2,4,,2,4590,3.85729,2.9359,1329.65,184.683,28.4,
1423,1,SBT2050,2,4,,2,4620,3.86449,2.9359,1354.116,184.683,28.5,
1423,1,SBT2050,2,4,,2,4650,3.87187,2.9361,1378.582,184.683,28.6,
1423,1,SBT2050,2,4,,2,4680,3.87943,2.9363,1403.048,184.683,28.6,
1423,1,SBT2050,2,4,,2,4710,3.88719,2.9357,1427.515,184.683,28.6,
1423,1,SBT2050,2,4,,2,4740,3.89575,2.9363,1451.981,184.683,28.7,
1423,1,SBT2050,2,4,,2,4770,3.90326,2.9359,1476.447,184.683,28.7,
1423,1,SBT2050,2,4,,2,4800,3.91159,2.9362,1500.914,184.683,28.7,
1423,1,SBT2050,2,4,,2,4830,3.92057,2.9362,1525.38,184.683,28.7,
1423,1,SBT2050,2,4,,2,4860,3.92842,2.9362,1549.846,184.683,28.8,
1423,1,SBT2050,2,4,,2,4890,3.93725,2.9363,1574.313,184.683,28.8,
1423,1,SBT2050,2,4,,2,4920,3.946232,2.9362,1598.779,184.683,28.9,
1423,1,SBT2050,2,4,,2,4950,3.9548,2.9361,1623.245,184.683,28.9,
1423,1,SBT2050,2,4,,2,4980,3.96341,2.9359,1647.712,184.683,28.9,
1423,1,SBT2050,2,4,,2,5010,3.97202,2.9356,1672.178,184.683,29,
1423,1,SBT2050,2,4,,2,5040,3.98085,2.9359,1696.644,184.683,29,
1423,1,SBT2050,2,4,,2,5070,3.98941,2.9356,1721.11,184.683,29.1,
1423,1,SBT2050,2,4,,2,5100,3.99803,2.9354,1745.577,184.683,29.1,
1423,1,SBT2050,2,4,,2,5130,4.00736,2.936,1770.043,184.683,29.1,
1423,1,SBT2050,2,4,,2,5160,4.01627,2.9358,1794.509,184.683,29.1,
1423,1,SBT2050,2,4,,2,5190,4.025058,2.9364,1818.976,184.683,29.1,
1423,1,SBT2050,2,4,,2,5220,4.03394,2.9364,1843.442,184.683,29.2,
1423,1,SBT2050,2,4,,2,5250,4.04239,2.9362,1867.908,184.683,29.2,
1423,1,SBT2050,2,4,,2,5280,4.05111,2.9359,1892.374,184.683,29.2,
1423,1,SBT2050,2,4,,2,5310,4.05995,2.9359,1916.84,184.683,29.2,
1423,1,SBT2050,2,4,,2,5340,4.06867,2.9363,1941.307,184.683,29.3,
1423,1,SBT2050,2,4,,2,5370,4.07765,2.9357,1965.773,184.683,29.3,
1423,1,SBT2050,2,4,,2,5400,4.08636,2.9355,1990.239,184.683,29.3,
1423,1,SBT2050,2,4,,2,5430,4.09476,2.9362,2014.705,184.683,29.3,
1423,1,SBT2050,2,4,,2,5460,4.10392,2.9361,2039.171,184.683,29.4,
1423,1,SBT2050,2,4,,2,5490,4.11283,2.936,2063.638,184.683,29.4,
1423,1,SBT2050,2,4,,2,5520,4.12205,2.9359,2088.104,184.683,29.4,
1423,1,SBT2050,2,4,,2,5550,4.13077,2.9358,2112.57,184.683,29.4,
1423,1,SBT2050,2,4,,2,5580,4.13984,2.9358,2137.036,184.683,29.5,
1423,1,SBT2050,2,4,,2,5610,4.1492,2.9362,2161.502,184.683,29.5,
1423,1,SBT2050,2,4,,2,5640,4.1501,2.7616,2185.254,184.683,29.5,
1423,1,SBT2050,2,4,,2,5670,4.15021,2.6178,2207.639,184.683,29.5,
1423,1,SBT2050,2,4,,2,5700,4.150138,2.4849,2228.889,184.683,29.4,
1423,1,SBT2050,2,4,,2,5730,4.150138,2.3551,2249.057,184.683,29.4,
1423,1,SBT2050,2,4,,2,5760,4.15021,2.2339,2268.175,184.683,29.3,
1423,1,SBT2050,2,4,,2,5790,4.1501,2.1169,2286.305,184.683,29.2,
1423,1,SBT2050,2,4,,2,5820,4.15,2.0081,2303.486,184.683,29.1,
1423,1,SBT2050,2,4,,2,5850,4.1501,1.9013,2319.775,184.683,29,
1423,1,SBT2050,2,4,,2,5880,4.15005,1.8076,2335.225,184.683,28.8,
1423,1,SBT2050,2,4,,2,5910,4.15003,1.7117,2349.88,184.683,28.7,
1423,1,SBT2050,2,4,,2,5940,4.15007,1.6244,2363.785,184.683,28.6,
1423,1,SBT2050,2,4,,2,5970,4.14998,1.5431,2376.992,184.683,28.4,
1423,1,SBT2050,2,4,,2,6000,4.150174,1.4661,2389.539,184.683,28.3,
1423,1,SBT2050,2,4,,2,6030,4.14992,1.3957,2401.468,184.683,28.2,
1423,1,SBT2050,2,4,,2,6060,4.150186,1.3285,2412.827,184.683,28.1,
1423,1,SBT2050,2,4,,2,6090,4.15004,1.2682,2423.648,184.683,28,
1423,1,SBT2050,2,4,,2,6120,4.15008,1.2096,2433.976,184.683,27.9,
1423,1,SBT2050,2,4,,2,6150,4.15013,1.1566,2443.839,184.683,27.7,
1423,1,SBT2050,2,4,,2,6180,4.1501,1.1064,2453.265,184.683,27.6,
1423,1,SBT2050,2,4,,2,6210,4.150186,1.0592,2462.29,184.683,27.5,
1423,1,SBT2050,2,4,,2,6240,4.15023,1.0146,2470.932,184.683,27.4,
1423,1,SBT2050,2,4,,2,6270,4.15009,0.9755,2479.225,184.683,27.4,
1423,1,SBT2050,2,4,,2,6300,4.15002,0.939,2487.196,184.683,27.3,
1423,1,SBT2050,2,4,,2,6330,4.15028,0.9033,2494.865,184.683,27.2,
1423,1,SBT2050,2,4,,2,6360,4.15005,0.8716,2502.252,184.683,27.1,
1423,1,SBT2050,2,4,,2,6390,4.1501,0.8366,2509.373,184.683,27.1,
1423,1,SBT2050,2,4,,2,6420,4.150138,0.8091,2516.232,184.683,27,
1423,1,SBT2050,2,4,,2,6450,4.1502,0.7832,2522.863,184.683,26.9,
1423,1,SBT2050,2,4,,2,6480,4.15007,0.7573,2529.275,184.683,26.9,
1423,1,SBT2050,2,4,,2,6510,4.15009,0.7317,2535.473,184.683,26.8,
1423,1,SBT2050,2,4,,2,6540,4.15011,0.7101,2541.472,184.683,26.8,
1423,1,SBT2050,2,4,,2,6570,4.15005,0.6875,2547.287,184.683,26.7,
1423,1,SBT2050,2,4,,2,6600,4.15011,0.6658,2552.925,184.683,26.6,
1423,1,SBT2050,2,4,,2,6630,4.1501,0.6487,2558.394,184.683,26.6,
1423,1,SBT2050,2,4,,2,6660,4.14994,0.6287,2563.714,184.683,26.6,
1423,1,SBT2050,2,4,,2,6690,4.14995,0.6098,2568.886,184.683,26.5,
1423,1,SBT2050,2,4,,2,6720,4.14991,0.5943,2573.904,184.683,26.5,
1423,1,SBT2050,2,4,,2,6750,4.1501,0.5771,2578.787,184.683,26.5,
1423,1,SBT2050,2,4,,2,6780,4.150174,0.5626,2583.541,184.683,26.4,
1423,1,SBT2050,2,4,,2,6810,4.14992,0.5474,2588.161,184.683,26.4,
1423,1,SBT2050,2,4,,2,6840,4.14995,0.5321,2592.661,184.683,26.4,
1423,1,SBT2050,2,4,,2,6870,4.14997,0.5205,2597.044,184.683,26.3,
1423,1,SBT2050,2,4,,2,6900,4.15,0.5058,2601.316,184.683,26.4,
1423,1,SBT2050,2,4,,2,6930,4.15004,0.4942,2605.487,184.683,26.3,
1423,1,SBT2050,2,4,,2,6960,4.150186,0.4817,2609.556,184.683,26.2,
1423,1,SBT2050,2,4,,2,6990,4.14996,0.47054,2613.521,184.683,26.3,
1423,1,SBT2050,2,4,,2,7020,4.15011,0.45829,2617.395,184.683,26.2,
1423,1,SBT2050,2,4,,2,7050,4.14992,0.44774,2621.171,184.683,26.2,
1423,1,SBT2050,2,4,,2,7080,4.1501,0.43677,2624.861,184.683,26.2,
1423,1,SBT2050,2,4,,2,7110,4.150186,0.4274,2628.457,184.683,26.2,
1423,1,SBT2050,2,4,,2,7140,4.150162,0.41655,2631.975,184.683,26.2,
1423,1,SBT2050,2,4,,2,7170,4.14998,0.40824,2635.412,184.683,26.2,
1423,1,SBT2050,2,4,,2,7200,4.14991,0.39858,2638.769,184.683,26.2,
1423,1,SBT2050,2,4,,2,7230,4.1501,0.38918,2642.052,184.683,26.1,
1423,1,SBT2050,2,4,,2,7260,4.150186,0.37979,2645.262,184.683,26.2,
1423,1,SBT2050,2,4,,2,7290,4.15027,0.37219,2648.396,184.683,26.2,
1423,1,SBT2050,2,4,,2,7320,4.15013,0.36414,2651.467,184.683,26.1,
1423,1,SBT2050,2,4,,2,7350,4.150162,0.35512,2654.468,184.683,26.1,
1423,1,SBT2050,2,4,,2,7380,4.1502,0.34856,2657.401,184.683,26.1,
1423,1,SBT2050,2,4,,2,7410,4.150138,0.33986,2660.278,184.683,26.1,
1423,1,SBT2050,2,4,,2,7440,4.150174,0.33378,2663.081,184.683,26.1,
1423,1,SBT2050,2,4,,2,7470,4.14969,0.32612,2665.828,184.683,26.1,
1423,1,SBT2050,2,4,,2,7500,4.15021,0.31915,2668.518,184.683,26.1,
1423,1,SBT2050,2,4,,2,7530,4.14998,0.31263,2671.15,184.683,26.1,
1423,1,SBT2050,2,4,,2,7560,4.14997,0.3068,2673.73,184.683,26.1,
1423,1,SBT2050,2,4,,2,7590,4.14992,0.3012,2676.257,184.683,26.1,
1423,1,SBT2050,2,4,,2,7620,4.14992,0.29394,2678.736,184.683,26.1,
1423,1,SBT2050,2,4,,2,7650,4.15003,0.28794,2681.157,184.683,26,
1423,1,SBT2050,2,4,,2,7680,4.1499,0.2818,2683.53,184.683,26,
1423,1,SBT2050,2,4,,2,7710,4.14997,0.27592,2685.853,184.683,26,
1423,1,SBT2050,2,4,,2,7740,4.14977,0.27207,2688.134,184.683,26,
1423,1,SBT2050,2,4,,2,7770,4.15007,0.26532,2690.37,184.683,26,
1423,1,SBT2050,2,4,,2,7800,4.15,0.25903,2692.555,184.683,26,
1423,1,SBT2050,2,4,,2,7830,4.14997,0.25407,2694.695,184.683,26,
1423,1,SBT2050,2,4,,2,7860,4.150162,0.24969,2696.795,184.683,26,
1423,1,SBT2050,2,4,,2,7890,4.150174,0.24443,2698.854,184.683,26,
1423,1,SBT2050,2,4,,2,7920,4.14996,0.24069,2700.873,184.683,26,
1423,1,SBT2050,2,4,,2,7950,4.15015,0.23463,2702.849,184.683,26,
1423,1,SBT2050,2,4,,2,7980,4.14983,0.2299,2704.785,184.683,26,
1423,1,SBT2050,2,4,,2,8010,4.150138,0.22517,2706.681,184.683,26,
1423,1,SBT2050,2,4,,2,8040,4.15022,0.22094,2708.536,184.683,26,
1423,1,SBT2050,2,4,,2,8070,4.14984,0.21745,2710.358,184.683,26,
1423,1,SBT2050,2,4,,2,8100,4.1501,0.21198,2712.15,184.683,26,
1423,1,SBT2050,2,4,,2,8130,4.15,0.2091,2713.904,184.683,26,
1423,1,SBT2050,2,4,,2,8160,4.14998,0.20419,2715.623,184.683,26,
1423,1,SBT2050,2,4,,2,8190,4.14995,0.19979,2717.31,184.683,26,
1423,1,SBT2050,2,4,,2,8220,4.15021,0.19599,2718.961,184.683,26,
1423,1,SBT2050,2,4,,2,8250,4.15026,0.19226,2720.58,184.683,26,
1423,1,SBT2050,2,4,,2,8280,4.15021,0.1888,2722.169,184.683,26,
1423,1,SBT2050,2,4,,2,8310,4.15025,0.18531,2723.729,184.683,26,
1423,1,SBT2050,2,4,,2,8340,4.150162,0.18224,2725.26,184.683,26,
1423,1,SBT2050,2,4,,2,8370,4.15001,0.17814,2726.759,184.683,26,
1423,1,SBT2050,2,4,,2,8400,4.1499,0.17505,2728.232,184.683,26,
1423,1,SBT2050,2,4,,2,8430,4.14994,0.17162,2729.672,184.683,26,
1423,1,SBT2050,2,4,,2,8460,4.14996,0.16771,2731.087,184.683,26,
1423,1,SBT2050,2,4,,2,8490,4.1499,0.16397,2732.468,184.683,26,
1423,1,SBT2050,2,4,,2,8520,4.150174,0.16114,2733.823,184.683,26,
1423,1,SBT2050,2,4,,2,8550,4.15002,0.15798,2735.154,184.683,26,
1423,1,SBT2050,2,4,,2,8580,4.15001,0.15545,2736.459,184.683,26,
1423,1,SBT2050,2,4,,2,8610,4.1501,0.15205,2737.741,184.683,26,
1423,1,SBT2050,2,4,,2,8640,4.1501,0.14946,2738.998,184.683,26,
1423,1,SBT2050,2,4,,2,8670,4.15023,0.14607,2740.23,184.683,26,
1423,1,SBT2050,2,4,,2,8700,4.15,0.14401,2741.438,184.683,26,
1423,1,SBT2050,2,4,,2,8730,4.15011,0.14153,2742.626,184.683,26,
1423,1,SBT2050,2,4,,2,8760,4.150138,0.13891,2743.795,184.683,26,
1423,1,SBT2050,2,4,,2,8790,4.14996,0.13637,2744.941,184.683,26,
1423,1,SBT2050,2,4,,2,8820,4.14996,0.13353,2746.066,184.683,26,
1423,1,SBT2050,2,4,,2,8850,4.15015,0.13108,2747.171,184.683,26,
1423,1,SBT2050,2,4,,2,8880,4.15005,0.12851,2748.252,184.683,26,
1423,1,SBT2050,2,4,,2,8910,4.15,0.12648,2749.313,184.683,26,
1423,1,SBT2050,2,4,,2,8940,4.15026,0.12359,2750.356,184.683,26,
1423,1,SBT2050,2,4,,2,8970,4.14984,0.12196,2751.378,184.683,26,
1423,1,SBT2050,2,4,,2,9000,4.15021,0.12093,2752.392,184.683,26,
1423,1,SBT2050,2,4,,2,9030,4.15022,0.11687,2753.382,184.683,26,
1423,1,SBT2050,2,4,,2,9060,4.15007,0.11513,2754.351,184.683,26,
1423,1,SBT2050,2,4,,2,9090,4.15008,0.11304,2755.302,184.683,26,
1423,1,SBT2050,2,4,,2,9120,4.1499,0.11146,2756.238,184.683,26,
1423,1,SBT2050,2,4,,2,9150,4.14995,0.10966,2757.158,184.683,26,
1423,1,SBT2050,2,4,,2,9180,4.15009,0.10694,2758.06,184.683,26,
1423,1,SBT2050,2,4,,2,9210,4.14992,0.10568,2758.945,184.683,26,
1423,1,SBT2050,2,4,,2,9240,4.1502,0.10336,2759.817,184.683,26,
1423,1,SBT2050,2,4,,2,9270,4.15015,0.10182,2760.672,184.683,26,
1423,1,SBT2050,2,4,,2,9300,4.149876,0.09948,2761.511,184.683,26,
1423,1,SBT2050,2,4,,2,9330,4.15015,0.09768,2762.334,184.683,26,
1423,1,SBT2050,2,4,,2,9360,4.15003,0.0963,2763.143,184.683,26,
1423,1,SBT2050,2,4,,2,9390,4.14992,0.09428,2763.937,184.683,26,
1423,1,SBT2050,2,4,,2,9420,4.14992,0.09321,2764.72,184.683,26,
1423,1,SBT2050,2,4,,2,9450,4.14992,0.09109,2765.487,184.683,26,
1423,1,SBT2050,2,4,,2,9480,4.15005,0.08928,2766.24,184.683,26,
1423,1,SBT2050,2,4,,2,9510,4.150162,0.08808,2766.979,184.683,26,
1423,1,SBT2050,2,4,,2,9540,4.14997,0.08642,2767.707,184.683,26,
1423,1,SBT2050,2,4,,2,9570,4.149888,0.08581,2768.424,184.683,26,
1423,1,SBT2050,2,4,,2,9600,4.14985,0.08352,2769.126,184.683,26,
1423,1,SBT2050,2,4,,2,9630,4.14992,0.08211,2769.817,184.683,26,
1423,1,SBT2050,2,4,,2,9660,4.15003,0.08116,2770.496,184.683,26,
1423,1,SBT2050,2,4,,2,9690,4.15003,0.08013,2771.165,184.683,26,
1423,1,SBT2050,2,4,,2,9720,4.15005,0.07772,2771.821,184.683,26,
1423,1,SBT2050,2,4,,2,9750,4.15008,0.07623,2772.464,184.683,26,
1423,1,SBT2050,2,4,,2,9780,4.14985,0.07523,2773.097,184.683,26,
1423,1,SBT2050,2,4,,2,9810,4.15004,0.07344,2773.715,184.683,26,
1423,1,SBT2050,2,4,,2,9840,4.15008,0.07315,2774.327,184.683,26,
1423,1,SBT2050,2,4,,2,9870,4.150186,0.07203,2774.931,184.683,26,
1423,1,SBT2050,2,4,,2,9900,4.15009,0.07027,2775.521,184.683,26,
1423,1,SBT2050,2,4,,2,9930,4.15025,0.06879,2776.104,184.683,26,
1423,1,SBT2050,2,4,,2,9960,4.14982,0.06797,2776.674,184.683,26,
1423,1,SBT2050,2,4,,2,9990,4.15002,0.06695,2777.236,184.683,26,
1423,1,SBT2050,2,4,,2,10020,4.149888,0.06623,2777.79,184.683,26,
1423,1,SBT2050,2,4,,2,10050,4.15015,0.06436,2778.333,184.683,26,
1423,1,SBT2050,2,4,,2,10080,4.1501,0.06433,2778.871,184.683,26,
1423,1,SBT2050,2,4,,2,10110,4.1501,0.06259,2779.401,184.683,26,
1423,1,SBT2050,2,4,,2,10140,4.15004,0.06166,2779.922,184.683,26.1,
1423,1,SBT2050,2,4,,2,10170,4.14992,0.06166,2780.435,184.683,26.1,
1423,1,SBT2050,2,4,,2,10200,4.14992,0.06021,2780.942,184.683,26,
1423,1,SBT2050,2,4,,2,10230,4.149888,0.05893,2781.439,184.683,26,
1423,1,SBT2050,2,4,,2,10260,4.150174,0.05872,2781.931,184.683,26,
1423,1,SBT2050,2,4,,2,10290,4.15003,0.05708,2782.411,184.683,26,
1423,1,SBT2050,2,4,,2,10320,4.14998,0.05608,2782.882,184.683,26,
1423,1,SBT2050,2,4,,2,10350,4.14998,0.05536,2783.347,184.683,26,
1423,1,SBT2050,2,4,,2,10380,4.15004,0.05467,2783.805,184.683,26,
1423,1,SBT2050,2,4,,2,10410,4.14994,0.05334,2784.257,184.683,26,
1423,1,SBT2050,2,4,,2,10440,4.149876,0.05278,2784.698,184.683,26,
1423,1,SBT2050,2,4,,2,10470,4.150162,0.05223,2785.138,184.683,26,
1423,1,SBT2050,2,4,,2,10500,4.14992,0.05151,2785.569,184.683,26,
1423,1,SBT2050,2,4,,2,10530,4.15009,0.05037,2785.998,184.683,26,
1423,1,SBT2050,2,4,,2,10560,4.15,0.04991,2786.416,184.683,26,
1423,1,SBT2050,2,4,,2,10590,4.14984,0.04929,2786.827,184.683,26,
1423,1,SBT2050,2,4,,2,10620,4.15013,0.04799,2787.234,184.683,26.1,
1423,1,SBT2050,2,4,,2,10650,4.15001,0.047218,2787.634,184.683,26,
1423,1,SBT2050,2,4,,2,10680,4.14998,0.046772,2788.029,184.683,26,
1423,1,SBT2050,2,4,,2,10710,4.14995,0.045565,2788.414,184.683,26.1,
1423,1,SBT2050,2,4,,2,10740,4.15007,0.044688,2788.79,184.683,26,
1423,1,SBT2050,2,4,,2,10770,4.149864,0.044248,2789.162,184.683,26,
1423,1,SBT2050,2,4,,2,10800,4.15005,0.044147,2789.528,184.683,26,
1423,1,SBT2050,2,4,,2,10830,4.15009,0.043167,2789.889,184.683,26.1,
1423,1,SBT2050,2,4,,2,10860,4.15022,0.042205,2790.247,184.683,26.1,
1423,1,SBT2050,2,4,,2,10890,4.14977,0.042313,2790.598,184.683,26.1,
1423,1,SBT2050,2,4,,2,10920,4.15002,0.041853,2790.948,184.683,26.1,
1423,1,SBT2050,2,4,,2,10950,4.149864,0.041174,2791.293,184.683,26.1,
1423,1,SBT2050,2,4,,2,10980,4.14995,0.0403,2791.633,184.683,26.1,
1423,1,SBT2050,2,4,,2,11010,4.149614,0.039844,2791.968,184.683,26,
1423,1,SBT2050,2,4,,2,11040,4.1499,0.039061,2792.298,184.683,26.1,
1423,1,SBT2050,2,4,,2,11070,4.15008,0.038315,2792.622,184.683,26,
1423,1,SBT2050,2,4,,2,11100,4.15002,0.038398,2792.941,184.683,26.1,
1423,1,SBT2050,2,4,,2,11130,4.15028,0.037027,2793.254,184.683,26.1,
1423,1,SBT2050,2,4,,2,11160,4.150138,0.037623,2793.563,184.683,26.1,
1423,1,SBT2050,2,4,,2,11190,4.14992,0.03648,2793.872,184.683,26.1,
1423,1,SBT2050,2,4,,2,11220,4.1502,0.036103,2794.174,184.683,26.1,
1423,1,SBT2050,2,4,,2,11250,4.15013,0.034215,2794.468,184.683,26.1,
1423,1,SBT2050,2,4,,2,11280,4.14992,0.034373,2794.754,184.683,26,
1423,1,SBT2050,2,4,,2,11310,4.15013,0.034749,2795.041,184.683,26,
1423,1,SBT2050,2,4,,2,11340,4.14997,0.034562,2795.328,184.683,26.1,
1423,1,SBT2050,2,4,,2,11370,4.15013,0.032768,2795.608,184.683,26,
1423,1,SBT2050,2,4,,2,11400,4.14983,0.03272,2795.879,184.683,26.1,
1423,1,SBT2050,2,4,,2,11430,4.15011,0.032389,2796.151,184.683,26,
1423,1,SBT2050,2,4,,2,11460,4.14997,0.032374,2796.417,184.683,26.1,
1423,1,SBT2050,2,4,,2,11490,4.15025,0.031788,2796.683,184.683,26.1,
1423,1,SBT2050,2,4,,2,11520,4.15005,0.031259,2796.942,184.683,26.1,
1423,1,SBT2050,2,4,,2,11550,4.14982,0.030387,2797.198,184.683,26,
1423,1,SBT2050,2,4,,2,11580,4.14998,0.029983,2797.451,184.683,26,
1423,1,SBT2050,2,4,,2,11610,4.15013,0.029683,2797.699,184.683,26,
1423,1,SBT2050,2,4,,2,11640,4.15,0.029351,2797.946,184.683,26,
1423,1,SBT2050,2,4,,2,11670,4.14994,0.029196,2798.188,184.683,26.1,
1423,1,SBT2050,2,4,,2,11700,4.15005,0.02837,2798.43,184.683,26.1,
1423,1,SBT2050,2,4,,2,11730,4.14991,0.02761,2798.668,184.683,26.1,
1423,1,SBT2050,2,4,,2,11760,4.15001,0.027899,2798.899,184.683,26.1,
1423,1,SBT2050,2,4,,2,11790,4.15004,0.027167,2799.131,184.683,26.1,
1423,1,SBT2050,2,4,,2,11820,4.14998,0.02702,2799.355,184.683,26,
1423,1,SBT2050,2,4,,2,11850,4.1502,0.026355,2799.577,184.683,26,
1423,1,SBT2050,2,4,,2,11880,4.15021,0.026419,2799.797,184.683,26,
1423,1,SBT2050,2,4,,2,11910,4.15021,0.02599,2800.016,184.683,26,
1423,1,SBT2050,2,4,,2,11940,4.15003,0.025539,2800.232,184.683,26.1,
1423,1,SBT2050,2,4,,2,11970,4.15009,0.025568,2800.443,184.683,26,
1423,1,SBT2050,2,4,,2,12000,4.14982,0.024796,2800.653,184.683,26,
1423,1,SBT2050,2,4,,2,12030,4.15011,0.024564,2800.858,184.683,26,
1423,1,SBT2050,2,4,,2,12060,4.15005,0.024555,2801.062,184.683,26,
1423,1,SBT2050,2,4,,2,12090,4.14977,0.023703,2801.264,184.683,26,
1423,1,SBT2050,2,4,,2,12120,4.15002,0.023566,2801.461,184.683,26,
1423,1,SBT2050,2,4,,2,12150,4.1499,0.023496,2801.658,184.683,26,
1423,1,SBT2050,2,4,,2,12180,4.149888,0.023308,2801.855,184.683,26,
1423,1,SBT2050,2,4,,2,12210,4.1502,0.022509,2802.047,184.683,26.1,
1423,1,SBT2050,2,4,,2,12240,4.15004,0.022483,2802.236,184.683,26.1,
1423,1,SBT2050,2,4,,2,12270,4.14997,0.022732,2802.424,184.683,26,
1423,1,SBT2050,2,4,,2,12300,4.15009,0.02129,2802.606,184.683,26,
1423,1,SBT2050,2,4,,2,12330,4.15005,0.021983,2802.787,184.683,26,
1423,1,SBT2050,2,4,,2,12360,4.15015,0.021006,2802.964,184.683,26.1,
1423,1,SBT2050,2,4,,2,12390,4.15007,0.021114,2803.143,184.683,26,
1423,1,SBT2050,2,4,,2,12420,4.14991,0.02133,2803.321,184.683,26,
1423,1,SBT2050,2,4,,2,12450,4.15,0.020681,2803.496,184.683,26,
1423,1,SBT2050,2,4,,2,12480,4.1499,0.020372,2803.666,184.683,26,
1423,1,SBT2050,2,4,,2,12510,4.15005,0.020084,2803.835,184.683,26,
1423,1,SBT2050,2,4,,2,12540,4.15021,0.01899,2804,184.683,26,
1423,1,SBT2050,2,4,,2,12570,4.149888,0.019859,2804.16,184.683,26.1,
1423,1,SBT2050,2,4,,2,12600,4.149876,0.019362,2804.323,184.683,26.1,
1423,1,SBT2050,2,4,,2,12630,4.14985,0.019469,2804.485,184.683,26,
1423,1,SBT2050,2,4,,2,12660,4.14982,0.019306,2804.647,184.683,26.1,
1423,1,SBT2050,2,4,,2,12690,4.15002,0.018691,2804.807,184.683,26,
1423,1,SBT2050,2,4,,2,12720,4.14998,0.018245,2804.96,184.683,26.1,
1423,1,SBT2050,2,4,,2,12750,4.14996,0.018267,2805.11,184.683,26,
1423,1,SBT2050,2,4,,2,12780,4.15008,0.018344,2805.264,184.683,26.1,
1423,1,SBT2050,2,4,,2,12810,4.149876,0.018258,2805.416,184.683,26.1,
1423,1,SBT2050,2,4,,2,12840,4.1499,0.018004,2805.567,184.683,26.1,
1423,1,SBT2050,2,4,,2,12870,4.14996,0.018035,2805.717,184.683,26,
1423,1,SBT2050,2,4,,2,12900,4.15032,0.017243,2805.864,184.683,26.1,
1423,1,SBT2050,2,4,,2,12930,4.14979,0.017176,2806.006,184.683,26,
1423,1,SBT2050,2,4,,2,12960,4.15009,0.016676,2806.151,184.683,26,
1423,1,SBT2050,2,4,,2,12990,4.14997,0.016157,2806.288,184.683,26,
1423,1,SBT2050,2,4,,2,13020,4.1501,0.01567,2806.42,184.683,26.1,
1423,1,SBT2050,2,4,,2,13050,4.150174,0.015945,2806.553,184.683,26,
1423,1,SBT2050,2,4,,2,13080,4.14992,0.016982,2806.687,184.683,26.1,
1423,1,SBT2050,2,4,,2,13110,4.14967,0.016498,2806.825,184.683,26,
1423,1,SBT2050,2,4,,2,13140,4.149876,0.016069,2806.956,184.683,26.1,
1423,1,SBT2050,2,4,,2,13170,4.15001,0.015247,2807.09,184.683,26,
1423,1,SBT2050,2,4,,2,13200,4.15013,0.016259,2807.218,184.683,26,
1423,1,SBT2050,2,4,,2,13230,4.15009,0.01587,2807.35,184.683,26,
1423,1,SBT2050,2,4,,2,13260,4.15001,0.01505,2807.479,184.683,26.1,
1423,1,SBT2050,2,4,,2,13290,4.14995,0.015001,2807.603,184.683,26,
1423,1,SBT2050,2,4,,2,13320,4.15004,0.014467,2807.727,184.683,26,
1423,1,SBT2050,2,4,,2,13350,4.149876,0.014326,2807.846,184.683,26,
1423,1,SBT2050,2,4,,2,13380,4.14992,0.014936,2807.969,184.683,26,
1423,1,SBT2050,2,4,,2,13410,4.15001,0.014388,2808.092,184.683,26,
1423,1,SBT2050,2,4,,2,13440,4.150436,0.014077,2808.214,184.683,26,
1423,1,SBT2050,2,4,,2,13470,4.14983,0.01405,2808.33,184.683,26,
1423,1,SBT2050,2,4,,2,13500,4.15007,0.013536,2808.447,184.683,26.1,
1423,1,SBT2050,2,4,,2,13530,4.149888,0.013771,2808.561,184.683,26,
1423,1,SBT2050,2,4,,2,13560,4.15004,0.014231,2808.677,184.683,26.1,
1423,1,SBT2050,2,4,,2,13590,4.14984,0.012567,2808.788,184.683,26,
1423,1,SBT2050,2,4,,2,13620,4.14998,0.01343,2808.894,184.683,26,
1423,1,SBT2050,2,4,,2,13650,4.14983,0.013102,2809.003,184.683,26,
1423,1,SBT2050,2,4,,2,13680,4.150174,0.01228,2809.11,184.683,26,
1423,1,SBT2050,2,4,,2,13710,4.15004,0.012514,2809.214,184.683,26,
1423,1,SBT2050,2,4,,2,13740,4.14992,0.012586,2809.32,184.683,26,
1423,1,SBT2050,2,4,,2,13770,4.15028,0.011758,2809.42,184.683,26.1,
1423,1,SBT2050,2,4,,2,13800,4.15004,0.011937,2809.519,184.683,26,
1423,1,SBT2050,2,4,,2,13830,4.14994,0.012367,2809.618,184.683,26.1,
1423,1,SBT2050,2,4,,2,13860,4.150162,0.012003,2809.717,184.683,26.1,
1423,1,SBT2050,2,4,,2,13890,4.15008,0.011843,2809.819,184.683,26.1,
1423,1,SBT2050,2,4,,2,13920,4.14992,0.011567,2809.917,184.683,26,
1423,1,SBT2050,2,4,,2,13950,4.15011,0.012125,2810.015,184.683,26,
1423,1,SBT2050,2,4,,2,13980,4.149864,0.01102,2810.112,184.683,26,
1423,1,SBT2050,2,4,,3,14009,4.1493,0,2810.188,184.683,26,
1423,1,SBT2050,2,4,,3,14039,4.14865,0,2810.188,184.683,25.9,
1423,1,SBT2050,2,4,,3,14069,4.14865,0,2810.188,184.683,25.8,
1423,1,SBT2050,2,4,,3,14099,4.14854,0,2810.188,184.683,25.6,
1423,1,SBT2050,2,4,,3,14129,4.148664,0,2810.188,184.683,25.4,
1423,1,SBT2050,2,4,,3,14159,4.14865,0,2810.188,184.683,25.2,
1423,1,SBT2050,2,4,,3,14189,4.14854,0,2810.188,184.683,25,
1423,1,SBT2050,2,4,,3,14219,4.14858,0,2810.188,184.683,24.7,
1423,1,SBT2050,2,4,,3,14249,4.14862,0,2810.188,184.683,24.6,
1423,1,SBT2050,2,4,,3,14279,4.14739,0,2810.188,184.683,24.6,
1423,1,SBT2050,2,4,,3,14309,4.14799,0,2810.188,184.683,24.4,
1423,1,SBT2050,2,4,,3,14339,4.14825,0,2810.188,184.683,24.4,
1423,1,SBT2050,2,4,,3,14369,4.148218,0,2810.188,184.683,24.3,
1423,1,SBT2050,2,4,,3,14399,4.148014,0,2810.188,184.683,24.2,
1423,1,SBT2050,2,4,,3,14429,4.14819,0,2810.188,184.683,24.2,
1423,1,SBT2050,2,4,,3,14459,4.14796,0,2810.188,184.683,24.2,
1423,1,SBT2050,2,4,,3,14489,4.148104,0,2810.188,184.683,24.2,
1423,1,SBT2050,2,4,,3,14519,4.14756,0,2810.188,184.683,24.2,
1423,1,SBT2050,2,4,,3,14549,4.14768,0,2810.188,184.683,24.2,
1423,1,SBT2050,2,4,,3,14579,4.14773,0,2810.188,184.683,24.3,
1423,1,SBT2050,2,4,,3,14609,4.1478,0,2810.188,184.683,24.3,
1423,1,SBT2050,2,4,,3,14639,4.14748,0,2810.188,184.683,24.3,
1423,1,SBT2050,2,4,,3,14669,4.14719,0,2810.188,184.683,24.4,
1423,1,SBT2050,2,4,,3,14699,4.14767,0,2810.188,184.683,24.4,
1423,1,SBT2050,2,4,,3,14729,4.14741,0,2810.188,184.683,24.5,
1423,1,SBT2050,2,4,,3,14759,4.1475,0,2810.188,184.683,24.5,
1423,1,SBT2050,2,4,,3,14789,4.14749,0,2810.188,184.683,24.5,
1423,1,SBT2050,2,4,,3,14819,4.14773,0,2810.188,184.683,24.6,
1423,1,SBT2050,2,4,,3,14849,4.14766,0,2810.188,184.683,24.6,
1423,1,SBT2050,2,4,,3,14879,4.14779,0,2810.188,184.683,24.6,
1423,1,SBT2050,2,4,,3,14909,4.14736,0,2810.188,184.683,24.6,
1423,1,SBT2050,2,4,,3,14939,4.14726,0,2810.188,184.683,24.6,
1423,1,SBT2050,2,4,,3,14969,4.14726,0,2810.188,184.683,24.6,
1423,1,SBT2050,2,4,,3,14999,4.1475,0,2810.188,184.683,24.7,
1423,1,SBT2050,2,4,,3,15029,4.147216,0,2810.188,184.683,24.7,
1423,1,SBT2050,2,4,,3,15059,4.14706,0,2810.188,184.683,24.7,
1423,1,SBT2050,2,4,,3,15089,4.14716,0,2810.188,184.683,24.8,
1423,1,SBT2050,2,4,,3,15119,4.1471,0,2810.188,184.683,24.9,
1423,1,SBT2050,2,4,,3,15149,4.14703,0,2810.188,184.683,24.9,
1423,1,SBT2050,2,4,,3,15179,4.14707,0,2810.188,184.683,24.9,
1423,1,SBT2050,2,4,,3,15209,4.1469,0,2810.188,184.683,24.9,
1423,1,SBT2050,2,4,,3,15239,4.14716,0,2810.188,184.683,24.9,
1423,1,SBT2050,2,4,,3,15269,4.14729,0,2810.188,184.683,24.9,
1423,1,SBT2050,2,4,,3,15299,4.14686,0,2810.188,184.683,25,
1423,1,SBT2050,2,4,,3,15329,4.14717,0,2810.188,184.683,25,
1423,1,SBT2050,2,4,,3,15359,4.146966,0,2810.188,184.683,25,
1423,1,SBT2050,2,4,,3,15389,4.14707,0,2810.188,184.683,25,
1423,1,SBT2050,2,4,,3,15419,4.14686,0,2810.188,184.683,25,
1423,1,SBT2050,2,4,,3,15449,4.1467,0,2810.188,184.683,25,
1423,1,SBT2050,2,4,,3,15479,4.14675,0,2810.188,184.683,24.9,
1423,1,SBT2050,2,4,,3,15509,4.146902,0,2810.188,184.683,25,
1423,1,SBT2050,2,4,,3,15539,4.14711,0,2810.188,184.683,25,
1423,1,SBT2050,2,4,,3,15569,4.14699,0,2810.188,184.683,25,
1423,1,SBT2050,2,4,,3,15599,4.14685,0,2810.188,184.683,25,
1423,1,SBT2050,2,4,,3,15629,4.14706,0,2810.188,184.683,25,
1423,1,SBT2050,2,4,,3,15659,4.14665,0,2810.188,184.683,25,
1423,1,SBT2050,2,4,,3,15689,4.1467,0,2810.188,184.683,25,
1423,1,SBT2050,2,4,,3,15719,4.14642,0,2810.188,184.683,25,
1423,1,SBT2050,2,4,,3,15749,4.14644,0,2810.188,184.683,25,
1423,1,SBT2050,2,4,,3,15779,4.146806,0,2810.188,184.683,25,
1423,1,SBT2050,2,4,,4,15808,3.96561,-2.9361,2810.188,186.908,25,
1423,1,SBT2050,2,4,,4,15838,3.9108,-2.9359,2810.188,211.374,25.2,
1423,1,SBT2050,2,4,,4,15868,3.889328,-2.9365,2810.188,235.84,25.5,
1423,1,SBT2050,2,4,,4,15898,3.87733,-2.9361,2810.188,260.306,25.8,
1423,1,SBT2050,2,4,,4,15928,3.86924,-2.9358,2810.188,284.773,26,
1423,1,SBT2050,2,4,,4,15958,3.86347,-2.9361,2810.188,309.239,26.3,
1423,1,SBT2050,2,4,,4,15988,3.85847,-2.9363,2810.188,333.705,26.5,
1423,1,SBT2050,2,4,,4,16018,3.853626,-2.9363,2810.188,358.171,26.7,
1423,1,SBT2050,2,4,,4,16048,3.84829,-2.936,2810.188,382.638,26.8,
1423,1,SBT2050,2,4,,4,16078,3.8433,-2.9359,2810.188,407.104,27,
1423,1,SBT2050,2,4,,4,16108,3.83783,-2.9359,2810.188,431.571,27,
1423,1,SBT2050,2,4,,4,16138,3.83184,-2.9361,2810.188,456.037,27.1,
1423,1,SBT2050,2,4,,4,16168,3.82517,-2.936,2810.188,480.503,27.2,
1423,1,SBT2050,2,4,,4,16198,3.81855,-2.9362,2810.188,504.969,27.3,
1423,1,SBT2050,2,4,,4,16228,3.81156,-2.9358,2810.188,529.435,27.3,
1423,1,SBT2050,2,4,,4,16258,3.80425,-2.9353,2810.188,553.902,27.4,
1423,1,SBT2050,2,4,,4,16288,3.796604,-2.9361,2810.188,578.368,27.4,
1423,1,SBT2050,2,4,,4,16318,3.7891,-2.9362,2810.188,602.834,27.4,
1423,1,SBT2050,2,4,,4,16348,3.78122,-2.9355,2810.188,627.3,27.5,
1423,1,SBT2050,2,4,,4,16378,3.77369,-2.9359,2810.188,651.767,27.5,
1423,1,SBT2050,2,4,,4,16408,3.76585,-2.9359,2810.188,676.233,27.4,
1423,1,SBT2050,2,4,,4,16438,3.7579,-2.9359,2810.188,700.699,27.5,
1423,1,SBT2050,2,4,,4,16468,3.750274,-2.936,2810.188,725.165,27.5,
1423,1,SBT2050,2,4,,4,16498,3.742826,-2.9356,2810.188,749.631,27.4,
1423,1,SBT2050,2,4,,4,16528,3.73495,-2.9359,2810.188,774.098,27.4,
1423,1,SBT2050,2,4,,4,16558,3.72706,-2.9362,2810.188,798.564,27.4,
1423,1,SBT2050,2,4,,4,16588,3.71947,-2.9356,2810.188,823.03,27.4,
1423,1,SBT2050,2,4,,4,16618,3.71202,-2.9361,2810.188,847.496,27.4,
1423,1,SBT2050,2,4,,4,16648,3.70454,-2.9356,2810.188,871.963,27.5,
1423,1,SBT2050,2,4,,4,16678,3.69706,-2.9358,2810.188,896.429,27.4,
1423,1,SBT2050,2,4,,4,16708,3.68918,-2.9363,2810.188,920.895,27.4,
1423,1,SBT2050,2,4,,4,16738,3.68175,-2.9363,2810.188,945.361,27.4,
1423,1,SBT2050,2,4,,4,16768,3.67378,-2.936,2810.188,969.828,27.4,
1423,1,SBT2050,2,4,,4,16798,3.665894,-2.9354,2810.188,994.294,27.4,
1423,1,SBT2050,2,4,,4,16828,3.65799,-2.9361,2810.188,1018.76,27.4,
1423,1,SBT2050,2,4,,4,16858,3.64966,-2.9361,2810.188,1043.226,27.5,
1423,1,SBT2050,2,4,,4,16888,3.64166,-2.9354,2810.188,1067.692,27.5,
1423,1,SBT2050,2,4,,4,16918,3.63354,-2.9359,2810.188,1092.159,27.5,
1423,1,SBT2050,2,4,,4,16948,3.6254,-2.9361,2810.188,1116.625,27.5,
1423,1,SBT2050,2,4,,4,16978,3.61693,-2.9359,2810.188,1141.091,27.5,
1423,1,SBT2050,2,4,,4,17008,3.60808,-2.9362,2810.188,1165.557,27.5,
1423,1,SBT2050,2,4,,4,17038,3.59957,-2.9358,2810.188,1190.024,27.5,
1423,1,SBT2050,2,4,,4,17068,3.590808,-2.9358,2810.188,1214.49,27.5,
1423,1,SBT2050,2,4,,4,17098,3.582006,-2.9357,2810.188,1238.956,27.5,
1423,1,SBT2050,2,4,,4,17128,3.57353,-2.936,2810.188,1263.422,27.5,
1423,1,SBT2050,2,4,,4,17158,3.564594,-2.9359,2810.188,1287.889,27.6,
1423,1,SBT2050,2,4,,4,17188,3.555584,-2.9355,2810.188,1312.355,27.6,
1423,1,SBT2050,2,4,,4,17218,3.54719,-2.936,2810.188,1336.821,27.6,
1423,1,SBT2050,2,4,,4,17248,3.538624,-2.9358,2810.188,1361.287,27.6,
1423,1,SBT2050,2,4,,4,17278,3.53018,-2.9358,2810.188,1385.753,27.6,
1423,1,SBT2050,2,4,,4,17308,3.52175,-2.9361,2810.188,1410.22,27.6,
1423,1,SBT2050,2,4,,4,17338,3.513442,-2.9362,2810.188,1434.686,27.7,
1423,1,SBT2050,2,4,,4,17368,3.5051,-2.9361,2810.188,1459.152,27.7,
1423,1,SBT2050,2,4,,4,17398,3.49718,-2.9358,2810.188,1483.618,27.7,
1423,1,SBT2050,2,4,,4,17428,3.48909,-2.9356,2810.188,1508.085,27.7,
1423,1,SBT2050,2,4,,4,17458,3.48125,-2.9359,2810.188,1532.551,27.7,
1423,1,SBT2050,2,4,,4,17488,3.4737,-2.9357,2810.188,1557.017,27.7,
1423,1,SBT2050,2,4,,4,17518,3.46643,-2.9358,2810.188,1581.484,27.7,
1423,1,SBT2050,2,4,,4,17548,3.458726,-2.9361,2810.188,1605.95,27.7,
1423,1,SBT2050,2,4,,4,17578,3.45147,-2.9359,2810.188,1630.416,27.7,
1423,1,SBT2050,2,4,,4,17608,3.4443,-2.9359,2810.188,1654.882,27.8,
1423,1,SBT2050,2,4,,4,17638,3.437448,-2.9361,2810.188,1679.348,27.8,
1423,1,SBT2050,2,4,,4,17668,3.43057,-2.9361,2810.188,1703.814,27.9,
1423,1,SBT2050,2,4,,4,17698,3.42369,-2.9358,2810.188,1728.281,27.8,
1423,1,SBT2050,2,4,,4,17728,3.41688,-2.9359,2810.188,1752.747,27.8,
1423,1,SBT2050,2,4,,4,17758,3.41016,-2.9362,2810.188,1777.213,27.9,
1423,1,SBT2050,2,4,,4,17788,3.40351,-2.9362,2810.188,1801.679,27.9,
1423,1,SBT2050,2,4,,4,17818,3.39681,-2.9356,2810.188,1826.146,27.9,
1423,1,SBT2050,2,4,,4,17848,3.39027,-2.9362,2810.188,1850.612,27.9,
1423,1,SBT2050,2,4,,4,17878,3.3837,-2.9358,2810.188,1875.078,28,
1423,1,SBT2050,2,4,,4,17908,3.37703,-2.9358,2810.188,1899.544,28,
1423,1,SBT2050,2,4,,4,17938,3.37013,-2.9362,2810.188,1924.011,28,
1423,1,SBT2050,2,4,,4,17968,3.363244,-2.9359,2810.188,1948.477,28,
1423,1,SBT2050,2,4,,4,17998,3.35643,-2.9361,2810.188,1972.943,28,
1423,1,SBT2050,2,4,,4,18028,3.34904,-2.9362,2810.188,1997.409,28.1,
1423,1,SBT2050,2,4,,4,18058,3.3416,-2.9357,2810.188,2021.876,28.1,
1423,1,SBT2050,2,4,,4,18088,3.334433,-2.9358,2810.188,2046.342,28.1,
1423,1,SBT2050,2,4,,4,18118,3.3267,-2.9361,2810.188,2070.808,28.2,
1423,1,SBT2050,2,4,,4,18148,3.3188,-2.9355,2810.188,2095.274,28.2,
1423,1,SBT2050,2,4,,4,18178,3.31085,-2.9362,2810.188,2119.741,28.2,
1423,1,SBT2050,2,4,,4,18208,3.30243,-2.9359,2810.188,2144.207,28.3,
1423,1,SBT2050,2,4,,4,18238,3.293308,-2.9355,2810.188,2168.673,28.3,
1423,1,SBT2050,2,4,,4,18268,3.28439,-2.9354,2810.188,2193.139,28.3,
1423,1,SBT2050,2,4,,4,18298,3.274979,-2.9358,2810.188,2217.606,28.3,
1423,1,SBT2050,2,4,,4,18328,3.26486,-2.9357,2810.188,2242.072,28.4,
1423,1,SBT2050,2,4,,4,18358,3.25401,-2.936,2810.188,2266.538,28.4,
1423,1,SBT2050,2,4,,4,18388,3.24276,-2.9359,2810.188,2291.005,28.5,
1423,1,SBT2050,2,4,,4,18418,3.23078,-2.9362,2810.188,2315.471,28.5,
1423,1,SBT2050,2,4,,4,18448,3.2187,-2.9362,2810.188,2339.937,28.6,
1423,1,SBT2050,2,4,,4,18478,3.2051,-2.9357,2810.188,2364.404,28.7,
1423,1,SBT2050,2,4,,4,18508,3.19087,-2.9357,2810.188,2388.87,28.8,
1423,1,SBT2050,2,4,,4,18538,3.17541,-2.9362,2810.188,2413.336,28.9,
1423,1,SBT2050,2,4,,4,18568,3.158571,-2.936,2810.188,2437.803,28.9,
1423,1,SBT2050,2,4,,4,18598,3.1407,-2.9359,2810.188,2462.269,29.1,
1423,1,SBT2050,2,4,,4,18628,3.12113,-2.9357,2810.188,2486.735,29.2,
1423,1,SBT2050,2,4,,4,18658,3.09961,-2.9359,2810.188,2511.201,29.3,
1423,1,SBT2050,2,4,,4,18688,3.07627,-2.9357,2810.188,2535.668,29.4,
1423,1,SBT2050,2,4,,4,18718,3.05063,-2.9358,2810.188,2560.134,29.6,
1423,1,SBT2050,2,4,,4,18748,3.02196,-2.9359,2810.188,2584.6,29.8,
1423,1,SBT2050,2,4,,4,18778,2.99028,-2.9359,2810.188,2609.066,30,
1423,1,SBT2050,2,4,,4,18808,2.954188,-2.9357,2810.188,2633.533,30.1,
1423,1,SBT2050,2,4,,4,18838,2.91321,-2.9357,2810.188,2657.999,30.4,
1423,1,SBT2050,2,4,,4,18868,2.86632,-2.9361,2810.188,2682.465,30.6,
1423,1,SBT2050,2,4,,4,18898,2.8119,-2.936,2810.188,2706.931,31,
1423,1,SBT2050,2,4,,4,18928,2.747984,-2.9359,2810.188,2731.398,31.4,
1423,1,SBT2050,2,4,,4,18958,2.67203,-2.9358,2810.188,2755.864,31.8,
1423,1,SBT2050,2,4,,4,18988,2.582535,-2.9358,2810.188,2780.33,32.4,
1423,1,SBT2050,2,4,,4,19018,2.49973,-2.7702,2810.188,2804.621,32.9,
1423,1,SBT2050,2,4,,4,19048,2.4998,-2.3849,2810.188,2825.949,33.4,
1423,1,SBT2050,2,4,,4,19078,2.49975,-2.1091,2810.188,2844.642,33.8,
1423,1,SBT2050,2,4,,4,19108,2.49973,-1.8686,2810.188,2861.197,33.9,
1423,1,SBT2050,2,4,,4,19138,2.49987,-1.6558,2810.188,2875.863,33.9,
1423,1,SBT2050,2,4,,4,19168,2.49979,-1.4605,2810.188,2888.828,33.7,
1423,1,SBT2050,2,4,,4,19198,2.49992,-1.2873,2810.188,2900.263,33.5,
1423,1,SBT2050,2,4,,4,19228,2.49968,-1.1342,2810.188,2910.34,33.2,
1423,1,SBT2050,2,4,,4,19258,2.499718,-0.9993,2810.188,2919.216,32.8,
1423,1,SBT2050,2,4,,4,19288,2.499849,-0.8813,2810.188,2927.037,32.4,
1423,1,SBT2050,2,4,,4,19318,2.49974,-0.7784,2810.188,2933.938,32,
1423,1,SBT2050,2,4,,4,19348,2.49965,-0.6894,2810.188,2940.043,31.6,
1423,1,SBT2050,2,4,,4,19378,2.49979,-0.6138,2810.188,2945.465,31.2,
1423,1,SBT2050,2,4,,4,19408,2.49991,-0.5482,2810.188,2950.298,30.7,
1423,1,SBT2050,2,4,,4,19438,2.49988,-0.4912,2810.188,2954.619,30.3,
1423,1,SBT2050,2,4,,4,19468,2.49975,-0.43935,2810.188,2958.488,29.9,
1423,1,SBT2050,2,4,,4,19498,2.49984,-0.39493,2810.188,2961.96,29.5,
1423,1,SBT2050,2,4,,4,19528,2.49987,-0.35418,2810.188,2965.079,29.2,
1423,1,SBT2050,2,4,,4,19558,2.49991,-0.31779,2810.188,2967.877,28.9,
1423,1,SBT2050,2,4,,4,19588,2.49973,-0.28417,2810.188,2970.383,28.6,
1423,1,SBT2050,2,4,,4,19618,2.49965,-0.25362,2810.188,2972.623,28.3,
1423,1,SBT2050,2,4,,4,19648,2.499849,-0.22632,2810.188,2974.623,28,
1423,1,SBT2050,2,4,,4,19678,2.49974,-0.202,2810.188,2976.407,27.8,
1423,1,SBT2050,2,4,,4,19708,2.49942,-0.17982,2810.188,2977.998,27.6,
1423,1,SBT2050,2,4,,4,19738,2.49962,-0.15971,2810.188,2979.411,27.3,
1423,1,SBT2050,2,4,,4,19768,2.499575,-0.14114,2810.188,2980.664,27.1,
1423,1,SBT2050,2,4,,4,19798,2.49966,-0.12375,2810.188,2981.767,26.9,
1423,1,SBT2050,2,4,,4,19828,2.49979,-0.10803,2810.188,2982.731,26.8,
1423,1,SBT2050,2,4,,4,19858,2.49994,-0.09345,2810.188,2983.568,26.6,
1423,1,SBT2050,2,4,,4,19888,2.49983,-0.08078,2810.188,2984.292,26.5,
1423,1,SBT2050,2,4,,4,19918,2.49973,-0.06927,2810.188,2984.916,26.3,
1423,1,SBT2050,2,4,,4,19948,2.49973,-0.05945,2810.188,2985.451,26.3,
1423,1,SBT2050,2,4,,4,19978,2.49998,-0.05121,2810.188,2985.911,26.1,
1423,1,SBT2050,2,4,,4,20008,2.49988,-0.044307,2810.188,2986.308,26,
1423,1,SBT2050,2,4,,4,20038,2.49997,-0.038888,2810.188,2986.653,25.9,
1423,1,SBT2050,2,4,,4,20068,2.499992,-0.034341,2810.188,2986.957,25.8,
1423,1,SBT2050,2,4,,4,20098,2.49983,-0.030734,2810.188,2987.228,25.8,
1423,1,SBT2050,2,4,,4,20128,2.500004,-0.027999,2810.188,2987.473,25.7,
1423,1,SBT2050,2,4,,4,20158,2.4999,-0.02566,2810.188,2987.697,25.6,
1423,1,SBT2050,2,4,,4,20188,2.49987,-0.023976,2810.188,2987.905,25.6,
1423,1,SBT2050,2,4,,4,20218,2.499992,-0.022564,2810.188,2988.1,25.5,
1423,1,SBT2050,2,4,,4,20248,2.49988,-0.021477,2810.188,2988.284,25.5,
1423,1,SBT2050,2,4,,4,20278,2.499694,-0.020606,2810.188,2988.46,25.4,
1423,1,SBT2050,2,4,,4,20308,2.49996,-0.019728,2810.188,2988.628,25.4,
1423,1,SBT2050,2,4,,4,20338,2.50002,-0.019226,2810.188,2988.791,25.4,
1423,1,SBT2050,2,4,,4,20368,2.500135,-0.018827,2810.188,2988.948,25.4,
1423,1,SBT2050,2,4,,4,20398,2.49994,-0.018079,2810.188,2989.101,25.3,
1423,1,SBT2050,2,4,,4,20428,2.49997,-0.017624,2810.188,2989.249,25.3,
1423,1,SBT2050,2,4,,4,20458,2.499992,-0.017172,2810.188,2989.394,25.3,
1423,1,SBT2050,2,4,,4,20488,2.49997,-0.016796,2810.188,2989.536,25.2,
1423,1,SBT2050,2,4,,4,20518,2.499992,-0.016543,2810.188,2989.674,25.2,
1423,1,SBT2050,2,4,,4,20548,2.49993,-0.016157,2810.188,2989.809,25.2,
1423,1,SBT2050,2,4,,4,20578,2.49992,-0.015757,2810.188,2989.942,25.2,
1423,1,SBT2050,2,4,,4,20608,2.50011,-0.015361,2810.188,2990.072,25.2,
1423,1,SBT2050,2,4,,4,20638,2.49992,-0.015314,2810.188,2990.2,25.2,
1423,1,SBT2050,2,4,,4,20668,2.499992,-0.014996,2810.188,2990.326,25.2,
1423,1,SBT2050,2,4,,4,20698,2.50025,-0.014764,2810.188,2990.449,25.2,
1423,1,SBT2050,2,4,,4,20728,2.50009,-0.014497,2810.188,2990.57,25.2,
1423,1,SBT2050,2,4,,4,20758,2.499992,-0.01409,2810.188,2990.69,25.2,
1423,1,SBT2050,2,4,,4,20788,2.49998,-0.014061,2810.188,2990.807,25.2,
1423,1,SBT2050,2,4,,4,20818,2.4999,-0.013715,2810.188,2990.923,25.2,
1423,1,SBT2050,2,4,,4,20848,2.50012,-0.013579,2810.188,2991.037,25.2,
1423,1,SBT2050,2,4,,4,20878,2.49994,-0.013341,2810.188,2991.149,25.3,
1423,1,SBT2050,2,4,,4,20908,2.50005,-0.013141,2810.188,2991.259,25.3,
1423,1,SBT2050,2,4,,4,20938,2.499992,-0.012959,2810.188,2991.368,25.3,
1423,1,SBT2050,2,4,,4,20968,2.50006,-0.012675,2810.188,2991.475,25.3,
1423,1,SBT2050,2,4,,4,20998,2.50002,-0.012526,2810.188,2991.58,25.3,
1423,1,SBT2050,2,4,,4,21028,2.49992,-0.012467,2810.188,2991.684,25.3,
1423,1,SBT2050,2,4,,4,21058,2.50011,-0.012237,2810.188,2991.787,25.3,
1423,1,SBT2050,2,4,,4,21088,2.49997,-0.012091,2810.188,2991.888,25.3,
1423,1,SBT2050,2,4,,4,21118,2.49998,-0.011944,2810.188,2991.988,25.3,
1423,1,SBT2050,2,4,,4,21148,2.49998,-0.011778,2810.188,2992.086,25.3,
1423,1,SBT2050,2,4,,4,21178,2.50009,-0.011721,2810.188,2992.184,25.3,
1423,1,SBT2050,2,4,,4,21208,2.500159,-0.011466,2810.188,2992.28,25.3,
1423,1,SBT2050,2,4,,4,21238,2.4999,-0.011196,2810.188,2992.374,25.4,
1423,1,SBT2050,2,4,,4,21268,2.49994,-0.011305,2810.188,2992.468,25.3,
1423,1,SBT2050,2,4,,4,21298,2.49993,-0.010922,2810.188,2992.56,25.4,
1423,1,SBT2050,2,4,,4,21328,2.49992,-0.010557,2810.188,2992.652,25.4,
1423,1,SBT2050,2,4,,4,21358,2.500147,-0.010821,2810.188,2992.743,25.4,
1423,1,SBT2050,2,4,,4,21388,2.49997,-0.010506,2810.188,2992.832,25.4,
1423,1,SBT2050,2,4,,4,21418,2.49992,-0.010723,2810.188,2992.922,25.4,
1423,1,SBT2050,2,4,,4,21448,2.5001,-0.01038,2810.188,2993.01,25.4,
1423,1,SBT2050,2,4,,5,21477,2.51878,0,2810.188,2993.034,25.4,
1423,1,SBT2050,2,4,,5,21507,2.536828,0,2810.188,2993.034,25.4,
1423,1,SBT2050,2,4,,5,21537,2.55274,0,2810.188,2993.034,25.4,
1423,1,SBT2050,2,4,,5,21567,2.56691,0,2810.188,2993.034,25.4,
1423,1,SBT2050,2,4,,5,21597,2.5806,0,2810.188,2993.034,25.4,
1423,1,SBT2050,2,4,,5,21627,2.593305,0,2810.188,2993.034,25.4,
1423,1,SBT2050,2,4,,5,21657,2.60499,0,2810.188,2993.034,25.4,
1423,1,SBT2050,2,4,,5,21687,2.6158,0,2810.188,2993.034,25.4,
1423,1,SBT2050,2,4,,5,21717,2.62584,0,2810.188,2993.034,25.4,
1423,1,SBT2050,2,4,,5,21747,2.63527,0,2810.188,2993.034,25.4,
1423,1,SBT2050,2,4,,5,21777,2.6438,0,2810.188,2993.034,25.4,
1423,1,SBT2050,2,4,,5,21807,2.651963,0,2810.188,2993.034,25.4,
1423,1,SBT2050,2,4,,5,21837,2.659633,0,2810.188,2993.034,25.5,
1423,1,SBT2050,2,4,,5,21867,2.666885,0,2810.188,2993.034,25.4,
1423,1,SBT2050,2,4,,5,21897,2.67358,0,2810.188,2993.034,25.4,
1423,1,SBT2050,2,4,,5,21927,2.67982,0,2810.188,2993.034,25.4,
1423,1,SBT2050,2,4,,5,21957,2.68572,0,2810.188,2993.034,25.4,
1423,1,SBT2050,2,4,,5,21987,2.69134,0,2810.188,2993.034,25.4,
1423,1,SBT2050,2,4,,5,22017,2.69653,0,2810.188,2993.034,25.4,
1423,1,SBT2050,2,4,,5,22047,2.70159,0,2810.188,2993.034,25.4,
1423,1,SBT2050,2,4,,5,22077,2.70648,0,2810.188,2993.034,25.5,
1423,1,SBT2050,2,4,,5,22107,2.711166,0,2810.188,2993.034,25.5,
1423,1,SBT2050,2,4,,5,22137,2.71514,0,2810.188,2993.034,25.4,
1423,1,SBT2050,2,4,,5,22167,2.71948,0,2810.188,2993.034,25.4,
1423,1,SBT2050,2,4,,5,22197,2.72323,0,2810.188,2993.034,25.4,
1423,1,SBT2050,2,4,,5,22227,2.72712,0,2810.188,2993.034,25.4,
1423,1,SBT2050,2,4,,5,22257,2.73068,0,2810.188,2993.034,25.4,
1423,1,SBT2050,2,4,,5,22287,2.734364,0,2810.188,2993.034,25.4,
1423,1,SBT2050,2,4,,5,22317,2.737505,0,2810.188,2993.034,25.4,
1423,1,SBT2050,2,4,,5,22347,2.7406,0,2810.188,2993.034,25.4,
1423,1,SBT2050,2,4,,5,22377,2.7439,0,2810.188,2993.034,25.4,
1423,1,SBT2050,2,4,,5,22407,2.746155,0,2810.188,2993.034,25.3,
1423,1,SBT2050,2,4,,5,22437,2.74927,0,2810.188,2993.034,25.2,
1423,1,SBT2050,2,4,,5,22467,2.75194,0,2810.188,2993.034,25.2,
1423,1,SBT2050,2,4,,5,22497,2.75443,0,2810.188,2993.034,25.1,
1423,1,SBT2050,2,4,,5,22527,2.75689,0,2810.188,2993.034,25,
1423,1,SBT2050,2,4,,5,22557,2.75922,0,2810.188,2993.034,25,
1423,1,SBT2050,2,4,,5,22587,2.7612,0,2810.188,2993.034,25,
1423,1,SBT2050,2,4,,5,22617,2.7637,0,2810.188,2993.034,24.9,
1423,1,SBT2050,2,4,,5,22647,2.76562,0,2810.188,2993.034,24.9,
1423,1,SBT2050,2,4,,5,22677,2.7676,0,2810.188,2993.034,24.9,
1423,1,SBT2050,2,4,,5,22707,2.769906,0,2810.188,2993.034,24.9,
1423,1,SBT2050,2,4,,5,22737,2.77153,0,2810.188,2993.034,24.9,
1423,1,SBT2050,2,4,,5,22767,2.77343,0,2810.188,2993.034,24.9,
1423,1,SBT2050,2,4,,5,22797,2.775328,0,2810.188,2993.034,24.9,
1423,1,SBT2050,2,4,,5,22827,2.77692,0,2810.188,2993.034,24.9,
1423,1,SBT2050,2,4,,5,22857,2.77861,0,2810.188,2993.034,24.9,
1423,1,SBT2050,2,4,,5,22887,2.78035,0,2810.188,2993.034,25,
1423,1,SBT2050,2,4,,5,22917,2.781992,0,2810.188,2993.034,24.9,
1423,1,SBT2050,2,4,,5,22947,2.78342,0,2810.188,2993.034,25,
1423,1,SBT2050,2,4,,5,22977,2.78478,0,2810.188,2993.034,24.9,
1423,1,SBT2050,2,4,,5,23007,2.786194,0,2810.188,2993.034,24.9,
1423,1,SBT2050,2,4,,5,23037,2.78793,0,2810.188,2993.034,24.9,
1423,1,SBT2050,2,4,,5,23067,2.7891,0,2810.188,2993.034,24.9,
1423,1,SBT2050,2,4,,5,23097,2.790401,0,2810.188,2993.034,25,
1423,1,SBT2050,2,4,,5,23127,2.791646,0,2810.188,2993.034,25,
1423,1,SBT2050,2,4,,5,23157,2.79305,0,2810.188,2993.034,25,
1423,1,SBT2050,2,4,,5,23187,2.794188,0,2810.188,2993.034,25,
1423,1,SBT2050,2,4,,5,23217,2.795521,0,2810.188,2993.034,25,
1423,1,SBT2050,2,4,,5,23247,2.79658,0,2810.188,2993.034,25,
1423,1,SBT2050,2,4,,5,23256.479,2.79707,-9.9E-05,2810.188,2993.034,,