File: 1C/Test1565.csv
Request Year:,2018,,,,,,,,,,,,
Test:,1565,,,,,,,,,,,,
Test Description:,,,,,,,,,,,,,
TestRegime Name:,Aging_Performance,,,,,,,,,,,,
TestRegime Suffix:,SHP_LC,,,,,,,,,,,,
TestRegime CellSize:,18650,,,,,,,,,,,,
TestRegime Version:,1,,,,,,,,,,,,
Number Of Cells:,1,,,,,,,,,,,,
LotID:,,,,,,,,,,,,,
Lot Description:,,,,,,,,,,,,,
Date Made:,1/21/2003 12:00 AM,,,,,,,,,,,,
Origin:,Other,,,,,,,,,,,,
Requestor:,Admin,,,,,,,,,,,,
Product ID:,Default product,,,,,,,,,,,,
Storage Temp:,R.T./AMB,,,,,,,,,,,,
Storage Delay:,0 days,,,,,,,,,,,,
Test Temp:,R.T./AMB,,,,,,,,,,,,
Start Time:,5/1/2018 9:20 AM,,,,,,,,,,,,
End Time:,5/1/2018 9:48 PM,,,,,,,,,,,,
Operator Instructions:,,,,,,,,,,,,,
Test,Cell,Rack,Shelf,Position,Cell ID,Step,Total Time (Seconds),Voltage (V),Current (A),Charge Capacity (mAh),Discharge Capacity (mAh),TC1 (Â°C),
1565,1,SBT2050,2,4,,0,1,3.37545,0,0,0,25.2,
1565,1,SBT2050,2,4,,0,60,3.37584,0,0,0,25.2,
1565,1,SBT2050,2,4,,0,119,3.37586,0,0,0,25.2,
1565,1,SBT2050,2,4,,0,178,3.37607,0,0,0,25.2,
1565,1,SBT2050,2,4,,0,237,3.3762,0,0,0,25.2,
1565,1,SBT2050,2,4,,0,296,3.376888,0,0,0,25.2,
1565,1,SBT2050,2,4,,1,355,2.499579,-1.8179,0,38.471,26.8,
1565,1,SBT2050,2,4,,1,414,2.49978,-1.4324,0,64.572,28,
1565,1,SBT2050,2,4,,1,473,2.49987,-1.2201,0,86.221,28.7,
1565,1,SBT2050,2,4,,1,532,2.49981,-1.0466,0,104.759,29,
1565,1,SBT2050,2,4,,1,591,2.49984,-0.9097,0,120.748,29.2,
1565,1,SBT2050,2,4,,1,650,2.499889,-0.7997,0,134.722,29,
1565,1,SBT2050,2,4,,1,709,2.49981,-0.7094,0,147.061,29,
1565,1,SBT2050,2,4,,1,768,2.49985,-0.6345,0,158.053,28.8,
1565,1,SBT2050,2,4,,1,827,2.49995,-0.5728,0,167.932,28.5,
1565,1,SBT2050,2,4,,1,886,2.49997,-0.5199,0,176.872,28.4,
1565,1,SBT2050,2,4,,1,945,2.49997,-0.47435,0,185.004,28.1,
1565,1,SBT2050,2,4,,1,1004,2.49996,-0.43506,0,192.443,27.9,
1565,1,SBT2050,2,4,,1,1063,2.49997,-0.40084,0,199.285,27.7,
1565,1,SBT2050,2,4,,1,1122,2.49991,-0.37181,0,205.613,27.6,
1565,1,SBT2050,2,4,,1,1181,2.5,-0.34597,0,211.492,27.4,
1565,1,SBT2050,2,4,,1,1240,2.50002,-0.32349,0,216.974,27.3,
1565,1,SBT2050,2,4,,1,1299,2.49996,-0.3037,0,222.107,27.1,
1565,1,SBT2050,2,4,,1,1358,2.499877,-0.28624,0,226.937,27,
1565,1,SBT2050,2,4,,1,1417,2.500032,-0.27099,0,231.499,26.8,
1565,1,SBT2050,2,4,,1,1476,2.50007,-0.25682,0,235.82,26.7,
1565,1,SBT2050,2,4,,1,1535,2.49991,-0.24407,0,239.92,26.6,
1565,1,SBT2050,2,4,,1,1594,2.50007,-0.23278,0,243.825,26.6,
1565,1,SBT2050,2,4,,1,1653,2.4999,-0.22259,0,247.554,26.5,
1565,1,SBT2050,2,4,,1,1712,2.50012,-0.21363,0,251.124,26.4,
1565,1,SBT2050,2,4,,1,1771,2.5,-0.20452,0,254.546,26.3,
1565,1,SBT2050,2,4,,1,1830,2.49987,-0.1962,0,257.828,26.2,
1565,1,SBT2050,2,4,,1,1889,2.50001,-0.18859,0,260.981,26.2,
1565,1,SBT2050,2,4,,1,1948,2.49995,-0.18176,0,264.015,26.2,
1565,1,SBT2050,2,4,,1,2007,2.50007,-0.17504,0,266.938,26.2,
1565,1,SBT2050,2,4,,1,2066,2.49984,-0.16866,0,269.756,26.1,
1565,1,SBT2050,2,4,,1,2125,2.499889,-0.16287,0,272.475,26,
1565,1,SBT2050,2,4,,1,2184,2.49998,-0.15763,0,275.101,26,
1565,1,SBT2050,2,4,,1,2243,2.5,-0.1526,0,277.643,26,
1565,1,SBT2050,2,4,,1,2302,2.50001,-0.14779,0,280.104,26,
1565,1,SBT2050,2,4,,1,2361,2.49992,-0.14309,0,282.487,25.9,
1565,1,SBT2050,2,4,,1,2420,2.4999,-0.13879,0,284.799,25.9,
1565,1,SBT2050,2,4,,1,2479,2.50001,-0.13491,0,287.041,25.9,
1565,1,SBT2050,2,4,,1,2538,2.49996,-0.13104,0,289.22,25.8,
1565,1,SBT2050,2,4,,1,2597,2.49985,-0.1273,0,291.339,25.8,
1565,1,SBT2050,2,4,,1,2656,2.49994,-0.12409,0,293.399,25.8,
1565,1,SBT2050,2,4,,1,2715,2.49998,-0.12054,0,295.401,25.8,
1565,1,SBT2050,2,4,,1,2774,2.50006,-0.11708,0,297.348,25.7,
1565,1,SBT2050,2,4,,1,2833,2.49992,-0.11429,0,299.243,25.7,
1565,1,SBT2050,2,4,,1,2892,2.49991,-0.11138,0,301.091,25.7,
1565,1,SBT2050,2,4,,1,2951,2.50012,-0.10853,0,302.891,25.7,
1565,1,SBT2050,2,4,,1,3010,2.499889,-0.10575,0,304.646,25.7,
1565,1,SBT2050,2,4,,1,3069,2.50004,-0.10309,0,306.358,25.7,
1565,1,SBT2050,2,4,,1,3128,2.50004,-0.10068,0,308.027,25.6,
1565,1,SBT2050,2,4,,1,3187,2.5001,-0.09827,0,309.657,25.6,
1565,1,SBT2050,2,4,,1,3246,2.49982,-0.0958,0,311.247,25.6,
1565,1,SBT2050,2,4,,1,3305,2.49998,-0.09377,0,312.8,25.6,
1565,1,SBT2050,2,4,,1,3364,2.49998,-0.09151,0,314.316,25.6,
1565,1,SBT2050,2,4,,1,3423,2.499877,-0.0893,0,315.797,25.6,
1565,1,SBT2050,2,4,,1,3482,2.50009,-0.08718,0,317.243,25.6,
1565,1,SBT2050,2,4,,1,3541,2.49992,-0.08525,0,318.656,25.5,
1565,1,SBT2050,2,4,,1,3600,2.50002,-0.08318,0,320.035,25.5,
1565,1,SBT2050,2,4,,1,3659,2.50009,-0.08124,0,321.382,25.5,
1565,1,SBT2050,2,4,,1,3718,2.49995,-0.07937,0,322.697,25.5,
1565,1,SBT2050,2,4,,1,3777,2.50002,-0.07739,0,323.981,25.6,
1565,1,SBT2050,2,4,,1,3836,2.49987,-0.07566,0,325.235,25.5,
1565,1,SBT2050,2,4,,1,3895,2.49998,-0.07367,0,326.457,25.5,
1565,1,SBT2050,2,4,,1,3954,2.49992,-0.07196,0,327.65,25.5,
1565,1,SBT2050,2,4,,1,4013,2.49994,-0.0701,0,328.814,25.5,
1565,1,SBT2050,2,4,,1,4072,2.50001,-0.06853,0,329.951,25.5,
1565,1,SBT2050,2,4,,1,4131,2.499877,-0.06678,0,331.06,25.5,
1565,1,SBT2050,2,4,,1,4190,2.49991,-0.06531,0,332.143,25.5,
1565,1,SBT2050,2,4,,1,4249,2.50012,-0.0637,0,333.199,25.5,
1565,1,SBT2050,2,4,,1,4308,2.5,-0.06235,0,334.232,25.5,
1565,1,SBT2050,2,4,,1,4367,2.499877,-0.06071,0,335.241,25.5,
1565,1,SBT2050,2,4,,1,4426,2.50008,-0.05936,0,336.225,25.4,
1565,1,SBT2050,2,4,,1,4485,2.499877,-0.0578,0,337.186,25.4,
1565,1,SBT2050,2,4,,1,4544,2.50008,-0.05673,0,338.125,25.4,
1565,1,SBT2050,2,4,,1,4603,2.49985,-0.05539,0,339.043,25.4,
1565,1,SBT2050,2,4,,1,4662,2.499877,-0.05407,0,339.94,25.4,
1565,1,SBT2050,2,4,,1,4721,2.50004,-0.05292,0,340.816,25.4,
1565,1,SBT2050,2,4,,1,4780,2.500032,-0.05159,0,341.67,25.4,
1565,1,SBT2050,2,4,,1,4839,2.49983,-0.05018,0,342.505,25.4,
1565,1,SBT2050,2,4,,1,4898,2.49992,-0.04904,0,343.32,25.4,
1565,1,SBT2050,2,4,,1,4957,2.4999,-0.04803,0,344.115,25.3,
1565,1,SBT2050,2,4,,1,5016,2.50012,-0.046873,0,344.892,25.3,
1565,1,SBT2050,2,4,,1,5075,2.500032,-0.045747,0,345.649,25.4,
1565,1,SBT2050,2,4,,1,5134,2.50008,-0.044519,0,346.389,25.4,
1565,1,SBT2050,2,4,,1,5193,2.49994,-0.043739,0,347.111,25.4,
1565,1,SBT2050,2,4,,1,5252,2.50001,-0.042387,0,347.816,25.3,
1565,1,SBT2050,2,4,,1,5311,2.499889,-0.041342,0,348.503,25.3,
1565,1,SBT2050,2,4,,1,5370,2.50021,-0.040541,0,349.174,25.3,
1565,1,SBT2050,2,4,,1,5429,2.5001,-0.039455,0,349.827,25.3,
1565,1,SBT2050,2,4,,1,5488,2.50013,-0.038644,0,350.467,25.4,
1565,1,SBT2050,2,4,,1,5547,2.4999,-0.037585,0,351.09,25.4,
1565,1,SBT2050,2,4,,1,5606,2.50006,-0.036792,0,351.699,25.3,
1565,1,SBT2050,2,4,,1,5665,2.49994,-0.035824,0,352.294,25.3,
1565,1,SBT2050,2,4,,1,5724,2.50012,-0.035022,0,352.874,25.3,
1565,1,SBT2050,2,4,,1,5783,2.50001,-0.034159,0,353.441,25.3,
1565,1,SBT2050,2,4,,1,5842,2.500032,-0.033481,0,353.995,25.3,
1565,1,SBT2050,2,4,,1,5901,2.5,-0.032715,0,354.536,25.3,
1565,1,SBT2050,2,4,,1,5960,2.50004,-0.031933,0,355.064,25.3,
1565,1,SBT2050,2,4,,1,6019,2.49997,-0.031103,0,355.579,25.3,
1565,1,SBT2050,2,4,,1,6078,2.50008,-0.030195,0,356.08,25.3,
1565,1,SBT2050,2,4,,1,6137,2.49994,-0.029388,0,356.57,25.3,
1565,1,SBT2050,2,4,,1,6196,2.49991,-0.028777,0,357.046,25.3,
1565,1,SBT2050,2,4,,1,6255,2.500032,-0.028102,0,357.511,25.3,
1565,1,SBT2050,2,4,,1,6314,2.50007,-0.027482,0,357.966,25.3,
1565,1,SBT2050,2,4,,1,6373,2.50009,-0.026704,0,358.409,25.3,
1565,1,SBT2050,2,4,,1,6432,2.49998,-0.026127,0,358.841,25.3,
1565,1,SBT2050,2,4,,1,6491,2.499877,-0.025271,0,359.262,25.3,
1565,1,SBT2050,2,4,,1,6550,2.49992,-0.024628,0,359.672,25.3,
1565,1,SBT2050,2,4,,1,6609,2.50008,-0.023954,0,360.073,25.3,
1565,1,SBT2050,2,4,,1,6668,2.500032,-0.023658,0,360.463,25.3,
1565,1,SBT2050,2,4,,1,6727,2.49998,-0.022918,0,360.843,25.3,
1565,1,SBT2050,2,4,,1,6786,2.50013,-0.022338,0,361.213,25.3,
1565,1,SBT2050,2,4,,1,6845,2.50006,-0.021734,0,361.573,25.3,
1565,1,SBT2050,2,4,,1,6904,2.49991,-0.021226,0,361.924,25.3,
1565,1,SBT2050,2,4,,1,6963,2.49992,-0.020539,0,362.267,25.3,
1565,1,SBT2050,2,4,,1,7022,2.50006,-0.020266,0,362.6,25.3,
1565,1,SBT2050,2,4,,1,7081,2.4999,-0.019471,0,362.925,25.2,
1565,1,SBT2050,2,4,,1,7140,2.50002,-0.019254,0,363.242,25.3,
1565,1,SBT2050,2,4,,1,7199,2.50008,-0.018692,0,363.551,25.3,
1565,1,SBT2050,2,4,,1,7258,2.5,-0.01817,0,363.852,25.2,
1565,1,SBT2050,2,4,,1,7317,2.5001,-0.017832,0,364.146,25.2,
1565,1,SBT2050,2,4,,1,7376,2.50006,-0.01708,0,364.432,25.2,
1565,1,SBT2050,2,4,,1,7435,2.49983,-0.016744,0,364.711,25.3,
1565,1,SBT2050,2,4,,1,7494,2.499889,-0.01632,0,364.984,25.2,
1565,1,SBT2050,2,4,,1,7553,2.500032,-0.016209,0,365.25,25.2,
1565,1,SBT2050,2,4,,1,7612,2.49997,-0.015622,0,365.51,25.2,
1565,1,SBT2050,2,4,,1,7671,2.50004,-0.015175,0,365.763,25.2,
1565,1,SBT2050,2,4,,1,7730,2.500032,-0.01497,0,366.01,25.2,
1565,1,SBT2050,2,4,,1,7789,2.49984,-0.014435,0,366.251,25.2,
1565,1,SBT2050,2,4,,1,7848,2.500163,-0.01411,0,366.486,25.2,
1565,1,SBT2050,2,4,,1,7907,2.49998,-0.013595,0,366.715,25.2,
1565,1,SBT2050,2,4,,1,7966,2.50001,-0.01366,0,366.939,25.2,
1565,1,SBT2050,2,4,,1,8025,2.4999,-0.013023,0,367.157,25.2,
1565,1,SBT2050,2,4,,1,8084,2.49991,-0.012757,0,367.369,25.2,
1565,1,SBT2050,2,4,,1,8143,2.50001,-0.012633,0,367.576,25.2,
1565,1,SBT2050,2,4,,1,8202,2.49996,-0.012064,0,367.779,25.2,
1565,1,SBT2050,2,4,,1,8261,2.50014,-0.012046,0,367.976,25.2,
1565,1,SBT2050,2,4,,1,8320,2.50008,-0.011752,0,368.168,25.2,
1565,1,SBT2050,2,4,,1,8379,2.50015,-0.011485,0,368.356,25.2,
1565,1,SBT2050,2,4,,1,8438,2.50004,-0.011297,0,368.54,25.2,
1565,1,SBT2050,2,4,,1,8497,2.49997,-0.01059,0,368.719,25.2,
1565,1,SBT2050,2,4,,1,8556,2.50008,-0.01066,0,368.894,25.2,
1565,1,SBT2050,2,4,,1,8615,2.499889,-0.010361,0,369.065,25.2,
1565,1,SBT2050,2,4,,2,8673,3.38316,2.9363,26.439,369.138,25.3,
1565,1,SBT2050,2,4,,2,8732,3.59995,2.936,74.555,369.138,25.9,
1565,1,SBT2050,2,4,,2,8791,3.6722,2.9362,122.673,369.138,26.6,
1565,1,SBT2050,2,4,,2,8850,3.69143,2.9358,170.79,369.138,27.4,
1565,1,SBT2050,2,4,,2,8909,3.7107,2.9358,218.907,369.138,27.9,
1565,1,SBT2050,2,4,,2,8968,3.72953,2.9363,267.024,369.138,28.5,
1565,1,SBT2050,2,4,,2,9027,3.7463,2.9358,315.141,369.138,28.8,
1565,1,SBT2050,2,4,,2,9086,3.76116,2.9364,363.258,369.138,29.2,
1565,1,SBT2050,2,4,,2,9145,3.77261,2.9359,411.375,369.138,29.4,
1565,1,SBT2050,2,4,,2,9204,3.782538,2.9359,459.493,369.138,29.6,
1565,1,SBT2050,2,4,,2,9263,3.79145,2.9359,507.61,369.138,29.8,
1565,1,SBT2050,2,4,,2,9322,3.80135,2.936,555.727,369.138,29.8,
1565,1,SBT2050,2,4,,2,9381,3.81176,2.936,603.844,369.138,29.9,
1565,1,SBT2050,2,4,,2,9440,3.822656,2.9361,651.961,369.138,29.9,
1565,1,SBT2050,2,4,,2,9499,3.833698,2.9361,700.078,369.138,30,
1565,1,SBT2050,2,4,,2,9558,3.84464,2.9361,748.195,369.138,30,
1565,1,SBT2050,2,4,,2,9617,3.85614,2.9358,796.313,369.138,30.1,
1565,1,SBT2050,2,4,,2,9676,3.86759,2.9362,844.43,369.138,30,
1565,1,SBT2050,2,4,,2,9735,3.87982,2.9363,892.547,369.138,30,
1565,1,SBT2050,2,4,,2,9794,3.893,2.9359,940.664,369.138,30,
1565,1,SBT2050,2,4,,2,9853,3.905874,2.9358,988.781,369.138,30.1,
1565,1,SBT2050,2,4,,2,9912,3.91984,2.9358,1036.898,369.138,30.1,
1565,1,SBT2050,2,4,,2,9971,3.93537,2.9358,1085.015,369.138,30.1,
1565,1,SBT2050,2,4,,2,10030,3.9503,2.9364,1133.132,369.138,30.2,
1565,1,SBT2050,2,4,,2,10089,3.96613,2.9357,1181.249,369.138,30.2,
1565,1,SBT2050,2,4,,2,10148,3.98257,2.9363,1229.366,369.138,30.3,
1565,1,SBT2050,2,4,,2,10207,3.999588,2.9362,1277.484,369.138,30.4,
1565,1,SBT2050,2,4,,2,10266,4.01659,2.9359,1325.601,369.138,30.4,
1565,1,SBT2050,2,4,,2,10325,4.03407,2.9361,1373.718,369.138,30.4,
1565,1,SBT2050,2,4,,2,10384,4.05202,2.9359,1421.835,369.138,30.6,
1565,1,SBT2050,2,4,,2,10443,4.07025,2.9362,1469.952,369.138,30.6,
1565,1,SBT2050,2,4,,2,10502,4.08884,2.9358,1518.069,369.138,30.6,
1565,1,SBT2050,2,4,,2,10561,4.10739,2.9357,1566.185,369.138,30.7,
1565,1,SBT2050,2,4,,2,10620,4.12682,2.9356,1614.302,369.138,30.8,
1565,1,SBT2050,2,4,,2,10679,4.14706,2.9359,1662.419,369.138,30.8,
1565,1,SBT2050,2,4,,2,10738,4.15005,2.7187,1708.875,369.138,30.8,
1565,1,SBT2050,2,4,,2,10797,4.14993,2.5239,1751.805,369.138,30.7,
1565,1,SBT2050,2,4,,2,10856,4.1501,2.3447,1791.679,369.138,30.5,
1565,1,SBT2050,2,4,,2,10915,4.15024,2.1759,1828.699,369.138,30.3,
1565,1,SBT2050,2,4,,2,10974,4.15001,2.0231,1863.108,369.138,30,
1565,1,SBT2050,2,4,,2,11033,4.15014,1.8827,1895.095,369.138,29.8,
1565,1,SBT2050,2,4,,2,11092,4.15013,1.7534,1924.863,369.138,29.4,
1565,1,SBT2050,2,4,,2,11151,4.15004,1.6347,1952.612,369.138,29.1,
1565,1,SBT2050,2,4,,2,11210,4.15012,1.5311,1978.548,369.138,28.8,
1565,1,SBT2050,2,4,,2,11269,4.15014,1.4353,2002.855,369.138,28.7,
1565,1,SBT2050,2,4,,2,11328,4.14997,1.35,2025.672,369.138,28.4,
1565,1,SBT2050,2,4,,2,11387,4.15035,1.2696,2047.133,369.138,28.2,
1565,1,SBT2050,2,4,,2,11446,4.1501,1.1968,2067.334,369.138,28,
1565,1,SBT2050,2,4,,2,11505,4.15013,1.131,2086.399,369.138,27.8,
1565,1,SBT2050,2,4,,2,11564,4.149918,1.069,2104.43,369.138,27.6,
1565,1,SBT2050,2,4,,2,11623,4.149894,1.0143,2121.493,369.138,27.5,
1565,1,SBT2050,2,4,,2,11682,4.15031,0.9612,2137.678,369.138,27.3,
1565,1,SBT2050,2,4,,2,11741,4.14994,0.9131,2153.039,369.138,27.2,
1565,1,SBT2050,2,4,,2,11800,4.15023,0.8687,2167.645,369.138,27.1,
1565,1,SBT2050,2,4,,2,11859,4.149882,0.8285,2181.555,369.138,27,
1565,1,SBT2050,2,4,,2,11918,4.15004,0.7899,2194.809,369.138,26.9,
1565,1,SBT2050,2,4,,2,11977,4.14974,0.7539,2207.461,369.138,26.8,
1565,1,SBT2050,2,4,,2,12036,4.15,0.721,2219.553,369.138,26.8,
1565,1,SBT2050,2,4,,2,12095,4.150168,0.6901,2231.121,369.138,26.7,
1565,1,SBT2050,2,4,,2,12154,4.14993,0.6611,2242.194,369.138,26.6,
1565,1,SBT2050,2,4,,2,12213,4.14987,0.6331,2252.793,369.138,26.6,
1565,1,SBT2050,2,4,,2,12272,4.14966,0.6074,2262.956,369.138,26.5,
1565,1,SBT2050,2,4,,2,12331,4.15011,0.5833,2272.708,369.138,26.5,
1565,1,SBT2050,2,4,,2,12390,4.14993,0.5608,2282.085,369.138,26.5,
1565,1,SBT2050,2,4,,2,12449,4.15018,0.5399,2291.1,369.138,26.4,
1565,1,SBT2050,2,4,,2,12508,4.14982,0.5198,2299.78,369.138,26.4,
1565,1,SBT2050,2,4,,2,12567,4.14999,0.5001,2308.136,369.138,26.3,
1565,1,SBT2050,2,4,,2,12626,4.149882,0.4826,2316.192,369.138,26.3,
1565,1,SBT2050,2,4,,2,12685,4.15012,0.46692,2323.971,369.138,26.3,
1565,1,SBT2050,2,4,,2,12744,4.150168,0.4502,2331.487,369.138,26.3,
1565,1,SBT2050,2,4,,2,12803,4.15011,0.4345,2338.741,369.138,26.3,
1565,1,SBT2050,2,4,,2,12862,4.15006,0.42102,2345.758,369.138,26.2,
1565,1,SBT2050,2,4,,2,12921,4.15013,0.40803,2352.551,369.138,26.2,
1565,1,SBT2050,2,4,,2,12980,4.149918,0.39622,2359.135,369.138,26.2,
1565,1,SBT2050,2,4,,2,13039,4.15022,0.38444,2365.529,369.138,26.2,
1565,1,SBT2050,2,4,,2,13098,4.15012,0.37149,2371.719,369.138,26.1,
1565,1,SBT2050,2,4,,2,13157,4.1498,0.36142,2377.729,369.138,26.1,
1565,1,SBT2050,2,4,,2,13216,4.15025,0.35051,2383.566,369.138,26.1,
1565,1,SBT2050,2,4,,2,13275,4.15013,0.34149,2389.24,369.138,26.1,
1565,1,SBT2050,2,4,,2,13334,4.15006,0.33229,2394.759,369.138,26,
1565,1,SBT2050,2,4,,2,13393,4.149906,0.32264,2400.124,369.138,26,
1565,1,SBT2050,2,4,,2,13452,4.15014,0.31397,2405.343,369.138,26.1,
1565,1,SBT2050,2,4,,2,13511,4.14995,0.30663,2410.432,369.138,26.1,
1565,1,SBT2050,2,4,,2,13570,4.15012,0.29866,2415.397,369.138,26,
1565,1,SBT2050,2,4,,2,13629,4.15006,0.29047,2420.227,369.138,26,
1565,1,SBT2050,2,4,,2,13688,4.14983,0.28377,2424.932,369.138,26,
1565,1,SBT2050,2,4,,2,13747,4.15007,0.27656,2429.524,369.138,25.9,
1565,1,SBT2050,2,4,,2,13806,4.15003,0.27026,2434.008,369.138,26,
1565,1,SBT2050,2,4,,2,13865,4.14973,0.26379,2438.377,369.138,25.9,
1565,1,SBT2050,2,4,,2,13924,4.15007,0.25686,2442.635,369.138,25.9,
1565,1,SBT2050,2,4,,2,13983,4.149882,0.25074,2446.796,369.138,25.9,
1565,1,SBT2050,2,4,,2,14042,4.149918,0.2453,2450.855,369.138,25.9,
1565,1,SBT2050,2,4,,2,14101,4.14999,0.23941,2454.824,369.138,25.9,
1565,1,SBT2050,2,4,,2,14160,4.15006,0.23394,2458.708,369.138,25.8,
1565,1,SBT2050,2,4,,2,14219,4.15018,0.22832,2462.505,369.138,25.9,
1565,1,SBT2050,2,4,,2,14278,4.149918,0.2228,2466.2,369.138,25.8,
1565,1,SBT2050,2,4,,2,14337,4.15029,0.21796,2469.811,369.138,25.8,
1565,1,SBT2050,2,4,,2,14396,4.14993,0.21273,2473.343,369.138,25.8,
1565,1,SBT2050,2,4,,2,14455,4.14981,0.20817,2476.787,369.138,25.8,
1565,1,SBT2050,2,4,,2,14514,4.15008,0.20259,2480.152,369.138,25.8,
1565,1,SBT2050,2,4,,2,14573,4.15003,0.19809,2483.438,369.138,25.8,
1565,1,SBT2050,2,4,,2,14632,4.15028,0.19381,2486.653,369.138,25.8,
1565,1,SBT2050,2,4,,2,14691,4.149906,0.18964,2489.798,369.138,25.7,
1565,1,SBT2050,2,4,,2,14750,4.15014,0.18573,2492.875,369.138,25.7,
1565,1,SBT2050,2,4,,2,14809,4.15006,0.182,2495.891,369.138,25.7,
1565,1,SBT2050,2,4,,2,14868,4.15,0.1778,2498.843,369.138,25.7,
1565,1,SBT2050,2,4,,2,14927,4.14987,0.17462,2501.727,369.138,25.7,
1565,1,SBT2050,2,4,,2,14986,4.150156,0.17112,2504.557,369.138,25.7,
1565,1,SBT2050,2,4,,2,15045,4.14979,0.16763,2507.324,369.138,25.7,
1565,1,SBT2050,2,4,,2,15104,4.14999,0.16341,2510.037,369.138,25.6,
1565,1,SBT2050,2,4,,2,15163,4.15007,0.16044,2512.69,369.138,25.6,
1565,1,SBT2050,2,4,,2,15222,4.15028,0.1572,2515.291,369.138,25.6,
1565,1,SBT2050,2,4,,2,15281,4.15014,0.15442,2517.845,369.138,25.6,
1565,1,SBT2050,2,4,,2,15340,4.14998,0.15127,2520.347,369.138,25.6,
1565,1,SBT2050,2,4,,2,15399,4.15013,0.14816,2522.799,369.138,25.6,
1565,1,SBT2050,2,4,,2,15458,4.15006,0.14525,2525.205,369.138,25.6,
1565,1,SBT2050,2,4,,2,15517,4.15008,0.14228,2527.564,369.138,25.6,
1565,1,SBT2050,2,4,,2,15576,4.14998,0.13978,2529.876,369.138,25.6,
1565,1,SBT2050,2,4,,2,15635,4.15,0.1372,2532.144,369.138,25.6,
1565,1,SBT2050,2,4,,2,15694,4.14999,0.13441,2534.372,369.138,25.6,
1565,1,SBT2050,2,4,,2,15753,4.15003,0.13223,2536.556,369.138,25.6,
1565,1,SBT2050,2,4,,2,15812,4.14999,0.12961,2538.699,369.138,25.5,
1565,1,SBT2050,2,4,,2,15871,4.15004,0.12715,2540.802,369.138,25.5,
1565,1,SBT2050,2,4,,2,15930,4.14995,0.12492,2542.867,369.138,25.5,
1565,1,SBT2050,2,4,,2,15989,4.14994,0.12225,2544.891,369.138,25.5,
1565,1,SBT2050,2,4,,2,16048,4.149882,0.12044,2546.879,369.138,25.5,
1565,1,SBT2050,2,4,,2,16107,4.14998,0.1189,2548.836,369.138,25.5,
1565,1,SBT2050,2,4,,2,16166,4.1497,0.11642,2550.758,369.138,25.5,
1565,1,SBT2050,2,4,,2,16225,4.15007,0.11428,2552.65,369.138,25.5,
1565,1,SBT2050,2,4,,2,16284,4.15029,0.11287,2554.512,369.138,25.5,
1565,1,SBT2050,2,4,,2,16343,4.14993,0.11022,2556.342,369.138,25.5,
1565,1,SBT2050,2,4,,2,16402,4.14979,0.10832,2558.131,369.138,25.5,
1565,1,SBT2050,2,4,,2,16461,4.15006,0.10617,2559.886,369.138,25.5,
1565,1,SBT2050,2,4,,2,16520,4.14993,0.10456,2561.611,369.138,25.5,
1565,1,SBT2050,2,4,,2,16579,4.150168,0.10264,2563.31,369.138,25.4,
1565,1,SBT2050,2,4,,2,16638,4.14975,0.10135,2564.982,369.138,25.5,
1565,1,SBT2050,2,4,,2,16697,4.15005,0.10009,2566.628,369.138,25.5,
1565,1,SBT2050,2,4,,2,16756,4.14994,0.09765,2568.244,369.138,25.5,
1565,1,SBT2050,2,4,,2,16815,4.15007,0.09588,2569.833,369.138,25.4,
1565,1,SBT2050,2,4,,2,16874,4.15014,0.0945,2571.395,369.138,25.4,
1565,1,SBT2050,2,4,,2,16933,4.15031,0.0928,2572.929,369.138,25.4,
1565,1,SBT2050,2,4,,2,16992,4.150192,0.09086,2574.434,369.138,25.4,
1565,1,SBT2050,2,4,,2,17051,4.14999,0.08922,2575.912,369.138,25.4,
1565,1,SBT2050,2,4,,2,17110,4.15001,0.08787,2577.364,369.138,25.4,
1565,1,SBT2050,2,4,,2,17169,4.15003,0.08661,2578.797,369.138,25.4,
1565,1,SBT2050,2,4,,2,17228,4.14985,0.08476,2580.205,369.138,25.4,
1565,1,SBT2050,2,4,,2,17287,4.15004,0.0837,2581.587,369.138,25.4,
1565,1,SBT2050,2,4,,2,17346,4.15005,0.0822,2582.947,369.138,25.4,
1565,1,SBT2050,2,4,,2,17405,4.15014,0.08128,2584.289,369.138,25.4,
1565,1,SBT2050,2,4,,2,17464,4.15005,0.08008,2585.611,369.138,25.4,
1565,1,SBT2050,2,4,,2,17523,4.14998,0.07856,2586.91,369.138,25.4,
1565,1,SBT2050,2,4,,2,17582,4.15013,0.07685,2588.182,369.138,25.4,
1565,1,SBT2050,2,4,,2,17641,4.14986,0.07611,2589.434,369.138,25.4,
1565,1,SBT2050,2,4,,2,17700,4.149918,0.07489,2590.666,369.138,25.3,
1565,1,SBT2050,2,4,,2,17759,4.15,0.07339,2591.876,369.138,25.3,
1565,1,SBT2050,2,4,,2,17818,4.15001,0.0725,2593.071,369.138,25.3,
1565,1,SBT2050,2,4,,2,17877,4.15013,0.0706,2594.24,369.138,25.3,
1565,1,SBT2050,2,4,,2,17936,4.1501,0.06966,2595.393,369.138,25.3,
1565,1,SBT2050,2,4,,2,17995,4.14985,0.06892,2596.525,369.138,25.3,
1565,1,SBT2050,2,4,,2,18054,4.15,0.06745,2597.639,369.138,25.3,
1565,1,SBT2050,2,4,,2,18113,4.14975,0.06669,2598.736,369.138,25.3,
1565,1,SBT2050,2,4,,2,18172,4.15005,0.06525,2599.817,369.138,25.3,
1565,1,SBT2050,2,4,,2,18231,4.149906,0.06436,2600.878,369.138,25.3,
1565,1,SBT2050,2,4,,2,18290,4.14983,0.06333,2601.924,369.138,25.3,
1565,1,SBT2050,2,4,,2,18349,4.14993,0.06269,2602.958,369.138,25.3,
1565,1,SBT2050,2,4,,2,18408,4.150156,0.06175,2603.976,369.138,25.3,
1565,1,SBT2050,2,4,,2,18467,4.149894,0.0609,2604.98,369.138,25.3,
1565,1,SBT2050,2,4,,2,18526,4.14997,0.06005,2605.973,369.138,25.3,
1565,1,SBT2050,2,4,,2,18585,4.149882,0.05896,2606.946,369.138,25.3,
1565,1,SBT2050,2,4,,2,18644,4.15022,0.05773,2607.909,369.138,25.2,
1565,1,SBT2050,2,4,,2,18703,4.149918,0.05732,2608.853,369.138,25.2,
1565,1,SBT2050,2,4,,2,18762,4.15008,0.05634,2609.785,369.138,25.2,
1565,1,SBT2050,2,4,,2,18821,4.15012,0.05576,2610.708,369.138,25.3,
1565,1,SBT2050,2,4,,2,18880,4.14995,0.05518,2611.619,369.138,25.2,
1565,1,SBT2050,2,4,,2,18939,4.15006,0.05508,2612.517,369.138,25.2,
1565,1,SBT2050,2,4,,2,18998,4.15008,0.05362,2613.403,369.138,25.2,
1565,1,SBT2050,2,4,,2,19057,4.15032,0.05297,2614.28,369.138,25.2,
1565,1,SBT2050,2,4,,2,19116,4.15006,0.05244,2615.146,369.138,25.2,
1565,1,SBT2050,2,4,,2,19175,4.15007,0.05168,2615.999,369.138,25.2,
1565,1,SBT2050,2,4,,2,19234,4.15031,0.05126,2616.844,369.138,25.2,
1565,1,SBT2050,2,4,,2,19293,4.15004,0.05015,2617.678,369.138,25.2,
1565,1,SBT2050,2,4,,2,19352,4.15012,0.05014,2618.504,369.138,25.2,
1565,1,SBT2050,2,4,,2,19411,4.15001,0.04924,2619.321,369.138,25.2,
1565,1,SBT2050,2,4,,2,19470,4.15,0.04871,2620.128,369.138,25.2,
1565,1,SBT2050,2,4,,2,19529,4.15001,0.04882,2620.926,369.138,25.2,
1565,1,SBT2050,2,4,,2,19588,4.15011,0.047923,2621.714,369.138,25.2,
1565,1,SBT2050,2,4,,2,19647,4.15032,0.046997,2622.493,369.138,25.2,
1565,1,SBT2050,2,4,,2,19706,4.15005,0.046859,2623.261,369.138,25.3,
1565,1,SBT2050,2,4,,2,19765,4.15007,0.04658,2624.023,369.138,25.3,
1565,1,SBT2050,2,4,,2,19824,4.150156,0.045394,2624.779,369.138,25.2,
1565,1,SBT2050,2,4,,2,19883,4.15007,0.044928,2625.521,369.138,25.2,
1565,1,SBT2050,2,4,,2,19942,4.150156,0.044059,2626.256,369.138,25.2,
1565,1,SBT2050,2,4,,2,20001,4.15024,0.043675,2626.978,369.138,25.2,
1565,1,SBT2050,2,4,,2,20060,4.149894,0.043519,2627.692,369.138,25.2,
1565,1,SBT2050,2,4,,2,20119,4.150156,0.042958,2628.401,369.138,25.2,
1565,1,SBT2050,2,4,,2,20178,4.15007,0.042556,2629.102,369.138,25.2,
1565,1,SBT2050,2,4,,2,20237,4.1501,0.042086,2629.796,369.138,25.2,
1565,1,SBT2050,2,4,,2,20296,4.14998,0.04148,2630.481,369.138,25.3,
1565,1,SBT2050,2,4,,2,20355,4.15006,0.041119,2631.16,369.138,25.3,
1565,1,SBT2050,2,4,,2,20414,4.15011,0.040466,2631.833,369.138,25.2,
1565,1,SBT2050,2,4,,2,20473,4.15004,0.0403,2632.498,369.138,25.2,
1565,1,SBT2050,2,4,,2,20532,4.14998,0.039944,2633.157,369.138,25.2,
1565,1,SBT2050,2,4,,2,20591,4.15005,0.039061,2633.805,369.138,25.2,
1565,1,SBT2050,2,4,,2,20650,4.1503,0.0395,2634.451,369.138,25.2,
1565,1,SBT2050,2,4,,2,20709,4.15008,0.038289,2635.091,369.138,25.2,
1565,1,SBT2050,2,4,,2,20768,4.150192,0.038462,2635.72,369.138,25.2,
1565,1,SBT2050,2,4,,2,20827,4.14994,0.038122,2636.345,369.138,25.2,
1565,1,SBT2050,2,4,,2,20886,4.15011,0.037874,2636.966,369.138,25.2,
1565,1,SBT2050,2,4,,2,20945,4.14983,0.037613,2637.58,369.138,25.2,
1565,1,SBT2050,2,4,,2,21004,4.15013,0.037396,2638.189,369.138,25.2,
1565,1,SBT2050,2,4,,2,21063,4.14975,0.036765,2638.793,369.138,25.2,
1565,1,SBT2050,2,4,,2,21122,4.15003,0.035997,2639.389,369.138,25.2,
1565,1,SBT2050,2,4,,2,21181,4.14997,0.036254,2639.982,369.138,25.2,
1565,1,SBT2050,2,4,,2,21240,4.15,0.035054,2640.566,369.138,25.2,
1565,1,SBT2050,2,4,,2,21299,4.14987,0.034943,2641.142,369.138,25.2,
1565,1,SBT2050,2,4,,2,21358,4.14995,0.034426,2641.71,369.138,25.2,
1565,1,SBT2050,2,4,,2,21417,4.149894,0.034346,2642.277,369.138,25.2,
1565,1,SBT2050,2,4,,2,21476,4.150156,0.033769,2642.835,369.138,25.2,
1565,1,SBT2050,2,4,,2,21535,4.15006,0.033684,2643.388,369.138,25.2,
1565,1,SBT2050,2,4,,2,21594,4.15003,0.033254,2643.937,369.138,25.2,
1565,1,SBT2050,2,4,,2,21653,4.14987,0.033179,2644.479,369.138,25.2,
1565,1,SBT2050,2,4,,2,21712,4.15013,0.032691,2645.018,369.138,25.2,
1565,1,SBT2050,2,4,,2,21771,4.14997,0.032662,2645.55,369.138,25.2,
1565,1,SBT2050,2,4,,2,21830,4.149894,0.032196,2646.077,369.138,25.2,
1565,1,SBT2050,2,4,,2,21889,4.14999,0.031644,2646.597,369.138,25.2,
1565,1,SBT2050,2,4,,2,21948,4.15014,0.031161,2647.111,369.138,25.2,
1565,1,SBT2050,2,4,,2,22007,4.149882,0.030922,2647.621,369.138,25.2,
1565,1,SBT2050,2,4,,2,22066,4.14999,0.030722,2648.127,369.138,25.2,
1565,1,SBT2050,2,4,,2,22125,4.149918,0.03016,2648.627,369.138,25.2,
1565,1,SBT2050,2,4,,2,22184,4.15004,0.03007,2649.121,369.138,25.2,
1565,1,SBT2050,2,4,,2,22243,4.14993,0.030223,2649.611,369.138,25.2,
1565,1,SBT2050,2,4,,2,22302,4.15014,0.029592,2650.101,369.138,25.2,
1565,1,SBT2050,2,4,,2,22361,4.14985,0.0294,2650.581,369.138,25.2,
1565,1,SBT2050,2,4,,2,22420,4.14986,0.028738,2651.056,369.138,25.2,
1565,1,SBT2050,2,4,,2,22479,4.14985,0.028661,2651.528,369.138,25.2,
1565,1,SBT2050,2,4,,2,22538,4.15006,0.028083,2651.995,369.138,25.2,
1565,1,SBT2050,2,4,,2,22597,4.15006,0.02822,2652.455,369.138,25.2,
1565,1,SBT2050,2,4,,2,22656,4.14983,0.028021,2652.912,369.138,25.2,
1565,1,SBT2050,2,4,,2,22715,4.149906,0.02717,2653.364,369.138,25.1,
1565,1,SBT2050,2,4,,2,22774,4.15014,0.026709,2653.808,369.138,25.2,
1565,1,SBT2050,2,4,,2,22833,4.150192,0.026591,2654.247,369.138,25.2,
1565,1,SBT2050,2,4,,2,22892,4.15004,0.026359,2654.683,369.138,25.2,
1565,1,SBT2050,2,4,,2,22951,4.15005,0.026122,2655.114,369.138,25.2,
1565,1,SBT2050,2,4,,2,23010,4.1501,0.025806,2655.54,369.138,25.2,
1565,1,SBT2050,2,4,,2,23069,4.15011,0.025529,2655.96,369.138,25.2,
1565,1,SBT2050,2,4,,2,23128,4.14997,0.025368,2656.38,369.138,25.1,
1565,1,SBT2050,2,4,,2,23187,4.15007,0.02567,2656.794,369.138,25.2,
1565,1,SBT2050,2,4,,2,23246,4.150168,0.02526,2657.209,369.138,25.1,
1565,1,SBT2050,2,4,,2,23305,4.15014,0.024431,2657.614,369.138,25.2,
1565,1,SBT2050,2,4,,2,23364,4.14985,0.024218,2658.015,369.138,25.2,
1565,1,SBT2050,2,4,,2,23423,4.14998,0.024249,2658.413,369.138,25.2,
1565,1,SBT2050,2,4,,2,23482,4.149882,0.023964,2658.808,369.138,25.1,
1565,1,SBT2050,2,4,,2,23541,4.15004,0.024043,2659.201,369.138,25.1,
1565,1,SBT2050,2,4,,2,23600,4.15,0.024126,2659.594,369.138,25.2,
1565,1,SBT2050,2,4,,2,23659,4.15003,0.023342,2659.979,369.138,25.2,
1565,1,SBT2050,2,4,,2,23718,4.14998,0.023471,2660.36,369.138,25.2,
1565,1,SBT2050,2,4,,2,23777,4.149918,0.022972,2660.741,369.138,25.1,
1565,1,SBT2050,2,4,,2,23836,4.15004,0.022858,2661.115,369.138,25.1,
1565,1,SBT2050,2,4,,2,23895,4.15004,0.022549,2661.488,369.138,25.1,
1565,1,SBT2050,2,4,,2,23954,4.150192,0.022497,2661.857,369.138,25.2,
1565,1,SBT2050,2,4,,2,24013,4.15006,0.022503,2662.225,369.138,25.2,
1565,1,SBT2050,2,4,,2,24072,4.14993,0.021913,2662.594,369.138,25.2,
1565,1,SBT2050,2,4,,2,24131,4.15026,0.02173,2662.953,369.138,25.1,
1565,1,SBT2050,2,4,,2,24190,4.14985,0.021786,2663.311,369.138,25.2,
1565,1,SBT2050,2,4,,2,24249,4.1498,0.02167,2663.666,369.138,25.1,
1565,1,SBT2050,2,4,,2,24308,4.149918,0.021379,2664.018,369.138,25.2,
1565,1,SBT2050,2,4,,2,24367,4.14994,0.021129,2664.371,369.138,25.2,
1565,1,SBT2050,2,4,,2,24426,4.14993,0.020907,2664.716,369.138,25.1,
1565,1,SBT2050,2,4,,2,24485,4.14994,0.020813,2665.057,369.138,25.2,
1565,1,SBT2050,2,4,,2,24544,4.14994,0.020771,2665.397,369.138,25.1,
1565,1,SBT2050,2,4,,2,24603,4.15008,0.020384,2665.737,369.138,25.1,
1565,1,SBT2050,2,4,,2,24662,4.15003,0.020601,2666.074,369.138,25.1,
1565,1,SBT2050,2,4,,2,24721,4.15013,0.020164,2666.409,369.138,25.1,
1565,1,SBT2050,2,4,,2,24780,4.15005,0.02012,2666.738,369.138,25.2,
1565,1,SBT2050,2,4,,2,24839,4.15011,0.019732,2667.064,369.138,25.2,
1565,1,SBT2050,2,4,,2,24898,4.14995,0.020308,2667.388,369.138,25.1,
1565,1,SBT2050,2,4,,2,24957,4.1501,0.019573,2667.709,369.138,25.1,
1565,1,SBT2050,2,4,,2,25016,4.15005,0.019436,2668.027,369.138,25.1,
1565,1,SBT2050,2,4,,2,25075,4.15004,0.019457,2668.343,369.138,25.1,
1565,1,SBT2050,2,4,,2,25134,4.14997,0.019189,2668.66,369.138,25.2,
1565,1,SBT2050,2,4,,2,25193,4.15006,0.019016,2668.971,369.138,25.2,
1565,1,SBT2050,2,4,,2,25252,4.15,0.018387,2669.279,369.138,25.1,
1565,1,SBT2050,2,4,,2,25311,4.14981,0.018312,2669.581,369.138,25.1,
1565,1,SBT2050,2,4,,2,25370,4.14993,0.01876,2669.883,369.138,25.1,
1565,1,SBT2050,2,4,,2,25429,4.14998,0.01824,2670.186,369.138,25.2,
1565,1,SBT2050,2,4,,2,25488,4.15011,0.018155,2670.484,369.138,25.2,
1565,1,SBT2050,2,4,,2,25547,4.15003,0.018027,2670.781,369.138,25.1,
1565,1,SBT2050,2,4,,2,25606,4.15004,0.017748,2671.074,369.138,25.1,
1565,1,SBT2050,2,4,,2,25665,4.15005,0.017478,2671.368,369.138,25.2,
1565,1,SBT2050,2,4,,2,25724,4.149882,0.017725,2671.66,369.138,25.2,
1565,1,SBT2050,2,4,,2,25783,4.14999,0.017645,2671.951,369.138,25.2,
1565,1,SBT2050,2,4,,2,25842,4.14985,0.017643,2672.237,369.138,25.1,
1565,1,SBT2050,2,4,,2,25901,4.150204,0.01731,2672.524,369.138,25.2,
1565,1,SBT2050,2,4,,2,25960,4.14995,0.017191,2672.805,369.138,25.2,
1565,1,SBT2050,2,4,,2,26019,4.14998,0.017144,2673.086,369.138,25.2,
1565,1,SBT2050,2,4,,2,26078,4.15,0.017113,2673.367,369.138,25.1,
1565,1,SBT2050,2,4,,2,26137,4.15003,0.017282,2673.646,369.138,25.1,
1565,1,SBT2050,2,4,,2,26196,4.149918,0.016433,2673.925,369.138,25.2,
1565,1,SBT2050,2,4,,2,26255,4.149894,0.016275,2674.195,369.138,25.2,
1565,1,SBT2050,2,4,,2,26314,4.15022,0.017087,2674.469,369.138,25.1,
1565,1,SBT2050,2,4,,2,26373,4.14999,0.016712,2674.737,369.138,25.1,
1565,1,SBT2050,2,4,,2,26432,4.149906,0.015922,2675.003,369.138,25.2,
1565,1,SBT2050,2,4,,2,26491,4.1501,0.015846,2675.267,369.138,25.1,
1565,1,SBT2050,2,4,,2,26550,4.15014,0.016005,2675.528,369.138,25.2,
1565,1,SBT2050,2,4,,2,26609,4.150168,0.015605,2675.786,369.138,25.1,
1565,1,SBT2050,2,4,,2,26668,4.149906,0.015799,2676.044,369.138,25.1,
1565,1,SBT2050,2,4,,2,26727,4.149906,0.015755,2676.302,369.138,25.2,
1565,1,SBT2050,2,4,,2,26786,4.15004,0.015546,2676.558,369.138,25.1,
1565,1,SBT2050,2,4,,2,26845,4.14993,0.015525,2676.811,369.138,25.1,
1565,1,SBT2050,2,4,,2,26904,4.149906,0.015459,2677.061,369.138,25.1,
1565,1,SBT2050,2,4,,2,26963,4.15013,0.015365,2677.313,369.138,25.2,
1565,1,SBT2050,2,4,,2,27022,4.15007,0.015158,2677.564,369.138,25.1,
1565,1,SBT2050,2,4,,2,27081,4.15004,0.01512,2677.813,369.138,25.1,
1565,1,SBT2050,2,4,,2,27140,4.150192,0.015267,2678.058,369.138,25.1,
1565,1,SBT2050,2,4,,2,27199,4.14967,0.014839,2678.301,369.138,25.1,
1565,1,SBT2050,2,4,,2,27258,4.149906,0.01513,2678.547,369.138,25.2,
1565,1,SBT2050,2,4,,2,27317,4.14987,0.014766,2678.785,369.138,25.2,
1565,1,SBT2050,2,4,,2,27376,4.1501,0.014015,2679.021,369.138,25.1,
1565,1,SBT2050,2,4,,2,27435,4.14972,0.01441,2679.256,369.138,25.2,
1565,1,SBT2050,2,4,,2,27494,4.15005,0.013767,2679.488,369.138,25.1,
1565,1,SBT2050,2,4,,2,27553,4.15006,0.014207,2679.718,369.138,25.1,
1565,1,SBT2050,2,4,,2,27612,4.15004,0.01404,2679.949,369.138,25.2,
1565,1,SBT2050,2,4,,2,27671,4.15014,0.014006,2680.179,369.138,25.2,
1565,1,SBT2050,2,4,,2,27730,4.14994,0.013841,2680.408,369.138,25.2,
1565,1,SBT2050,2,4,,2,27789,4.14998,0.013723,2680.634,369.138,25.2,
1565,1,SBT2050,2,4,,2,27848,4.14995,0.013817,2680.858,369.138,25.1,
1565,1,SBT2050,2,4,,2,27907,4.150204,0.013621,2681.084,369.138,25.2,
1565,1,SBT2050,2,4,,2,27966,4.149882,0.013603,2681.306,369.138,25.2,
1565,1,SBT2050,2,4,,2,28025,4.1501,0.013671,2681.529,369.138,25.1,
1565,1,SBT2050,2,4,,2,28084,4.149882,0.013152,2681.749,369.138,25.2,
1565,1,SBT2050,2,4,,2,28143,4.14995,0.013838,2681.968,369.138,25.2,
1565,1,SBT2050,2,4,,2,28202,4.15031,0.012928,2682.186,369.138,25.1,
1565,1,SBT2050,2,4,,2,28261,4.15004,0.013075,2682.4,369.138,25.1,
1565,1,SBT2050,2,4,,2,28320,4.149894,0.013536,2682.617,369.138,25.1,
1565,1,SBT2050,2,4,,2,28379,4.15005,0.012797,2682.832,369.138,25.2,
1565,1,SBT2050,2,4,,2,28438,4.14975,0.013013,2683.044,369.138,25.2,
1565,1,SBT2050,2,4,,2,28497,4.14979,0.012532,2683.252,369.138,25.1,
1565,1,SBT2050,2,4,,2,28556,4.15,0.012606,2683.462,369.138,25.2,
1565,1,SBT2050,2,4,,2,28615,4.15018,0.012512,2683.668,369.138,25.1,
1565,1,SBT2050,2,4,,2,28674,4.15003,0.012767,2683.874,369.138,25.2,
1565,1,SBT2050,2,4,,2,28733,4.15003,0.012126,2684.077,369.138,25.2,
1565,1,SBT2050,2,4,,2,28792,4.14998,0.012309,2684.28,369.138,25.1,
1565,1,SBT2050,2,4,,2,28851,4.14964,0.012186,2684.478,369.138,25.2,
1565,1,SBT2050,2,4,,2,28910,4.15001,0.012016,2684.678,369.138,25.2,
1565,1,SBT2050,2,4,,2,28969,4.14993,0.012013,2684.874,369.138,25.2,
1565,1,SBT2050,2,4,,2,29028,4.14997,0.012144,2685.072,369.138,25.2,
1565,1,SBT2050,2,4,,2,29087,4.14983,0.012241,2685.27,369.138,25.2,
1565,1,SBT2050,2,4,,2,29146,4.15,0.011807,2685.468,369.138,25.1,
1565,1,SBT2050,2,4,,2,29205,4.14995,0.011707,2685.662,369.138,25.1,
1565,1,SBT2050,2,4,,2,29264,4.15008,0.01159,2685.852,369.138,25.1,
1565,1,SBT2050,2,4,,2,29323,4.149882,0.011866,2686.045,369.138,25.1,
1565,1,SBT2050,2,4,,2,29382,4.15013,0.011974,2686.237,369.138,25.1,
1565,1,SBT2050,2,4,,2,29441,4.149906,0.011411,2686.427,369.138,25.1,
1565,1,SBT2050,2,4,,2,29500,4.1501,0.011232,2686.615,369.138,25.1,
1565,1,SBT2050,2,4,,2,29559,4.15004,0.011804,2686.802,369.138,25.1,
1565,1,SBT2050,2,4,,2,29618,4.15003,0.011492,2686.994,369.138,25.1,
1565,1,SBT2050,2,4,,2,29677,4.1501,0.011059,2687.175,369.138,25.1,
1565,1,SBT2050,2,4,,2,29736,4.14997,0.011159,2687.355,369.138,25.1,
1565,1,SBT2050,2,4,,2,29795,4.15012,0.011234,2687.534,369.138,25.1,
1565,1,SBT2050,2,4,,2,29854,4.14976,0.011049,2687.713,369.138,25.2,
1565,1,SBT2050,2,4,,2,29913,4.15022,0.010885,2687.892,369.138,25.1,
1565,1,SBT2050,2,4,,2,29972,4.1501,0.010524,2688.069,369.138,25.1,
1565,1,SBT2050,2,4,,2,30031,4.149906,0.010673,2688.247,369.138,25.1,
1565,1,SBT2050,2,4,,2,30090,4.15013,0.010918,2688.425,369.138,25.2,
1565,1,SBT2050,2,4,,2,30149,4.15,0.011041,2688.602,369.138,25.2,
1565,1,SBT2050,2,4,,2,30208,4.14983,0.010695,2688.777,369.138,25.2,
1565,1,SBT2050,2,4,,2,30267,4.15022,0.01029,2688.948,369.138,25.1,
1565,1,SBT2050,2,4,,3,30325,4.14721,0,2689.005,369.138,25.1,
1565,1,SBT2050,2,4,,3,30384,4.14646,0,2689.005,369.138,25.1,
1565,1,SBT2050,2,4,,3,30443,4.14602,0,2689.005,369.138,25.1,
1565,1,SBT2050,2,4,,3,30502,4.14568,0,2689.005,369.138,25.1,
1565,1,SBT2050,2,4,,3,30561,4.14532,0,2689.005,369.138,25.2,
1565,1,SBT2050,2,4,,3,30620,4.14513,0,2689.005,369.138,25.1,
1565,1,SBT2050,2,4,,3,30679,4.144896,0,2689.005,369.138,25.1,
1565,1,SBT2050,2,4,,3,30738,4.14432,0,2689.005,369.138,25.1,
1565,1,SBT2050,2,4,,3,30797,4.14427,0,2689.005,369.138,25.1,
1565,1,SBT2050,2,4,,3,30856,4.14412,0,2689.005,369.138,25.1,
1565,1,SBT2050,2,4,,3,30915,4.1439,0,2689.005,369.138,25.1,
1565,1,SBT2050,2,4,,3,30974,4.14359,0,2689.005,369.138,25.1,
1565,1,SBT2050,2,4,,3,31033,4.14348,0,2689.005,369.138,25.1,
1565,1,SBT2050,2,4,,3,31092,4.14344,0,2689.005,369.138,25.1,
1565,1,SBT2050,2,4,,3,31151,4.143262,0,2689.005,369.138,25.1,
1565,1,SBT2050,2,4,,3,31210,4.14321,0,2689.005,369.138,25.1,
1565,1,SBT2050,2,4,,3,31269,4.14298,0,2689.005,369.138,25.2,
1565,1,SBT2050,2,4,,3,31328,4.1429,0,2689.005,369.138,25.1,
1565,1,SBT2050,2,4,,3,31387,4.14247,0,2689.005,369.138,25.1,
1565,1,SBT2050,2,4,,3,31446,4.143004,0,2689.005,369.138,25.1,
1565,1,SBT2050,2,4,,3,31505,4.14238,0,2689.005,369.138,25.1,
1565,1,SBT2050,2,4,,3,31564,4.1424,0,2689.005,369.138,25.1,
1565,1,SBT2050,2,4,,3,31623,4.14205,0,2689.005,369.138,25.2,
1565,1,SBT2050,2,4,,3,31682,4.141946,0,2689.005,369.138,25.1,
1565,1,SBT2050,2,4,,3,31741,4.14182,0,2689.005,369.138,25.1,
1565,1,SBT2050,2,4,,3,31800,4.14169,0,2689.005,369.138,25.2,
1565,1,SBT2050,2,4,,3,31859,4.14161,0,2689.005,369.138,25.1,
1565,1,SBT2050,2,4,,3,31918,4.14157,0,2689.005,369.138,25.1,
1565,1,SBT2050,2,4,,3,31977,4.14164,0,2689.005,369.138,25.2,
1565,1,SBT2050,2,4,,3,32036,4.141316,0,2689.005,369.138,25.1,
1565,1,SBT2050,2,4,,4,32094,3.805986,-2.9358,2689.005,374.714,25.1,
1565,1,SBT2050,2,4,,4,32153,3.72601,-2.936,2689.005,422.831,26.1,
1565,1,SBT2050,2,4,,4,32212,3.7015,-2.9359,2689.005,470.948,26.8,
1565,1,SBT2050,2,4,,4,32271,3.687888,-2.9362,2689.005,519.066,27.6,
1565,1,SBT2050,2,4,,4,32330,3.67644,-2.9358,2689.005,567.183,28.1,
1565,1,SBT2050,2,4,,4,32389,3.66574,-2.9362,2689.005,615.3,28.5,
1565,1,SBT2050,2,4,,4,32448,3.65479,-2.9358,2689.005,663.417,28.8,
1565,1,SBT2050,2,4,,4,32507,3.64259,-2.9358,2689.005,711.534,29,
1565,1,SBT2050,2,4,,4,32566,3.62925,-2.9362,2689.005,759.651,29.2,
1565,1,SBT2050,2,4,,4,32625,3.61613,-2.936,2689.005,807.768,29.4,
1565,1,SBT2050,2,4,,4,32684,3.601668,-2.9358,2689.005,855.885,29.4,
1565,1,SBT2050,2,4,,4,32743,3.58657,-2.936,2689.005,904.003,29.5,
1565,1,SBT2050,2,4,,4,32802,3.57119,-2.936,2689.005,952.12,29.5,
1565,1,SBT2050,2,4,,4,32861,3.555404,-2.9357,2689.005,1000.237,29.5,
1565,1,SBT2050,2,4,,4,32920,3.53928,-2.9359,2689.005,1048.354,29.5,
1565,1,SBT2050,2,4,,4,32979,3.52313,-2.9359,2689.005,1096.471,29.6,
1565,1,SBT2050,2,4,,4,33038,3.50703,-2.9362,2689.005,1144.588,29.6,
1565,1,SBT2050,2,4,,4,33097,3.49015,-2.9357,2689.005,1192.705,29.6,
1565,1,SBT2050,2,4,,4,33156,3.47354,-2.9359,2689.005,1240.822,29.6,
1565,1,SBT2050,2,4,,4,33215,3.45682,-2.936,2689.005,1288.939,29.6,
1565,1,SBT2050,2,4,,4,33274,3.44015,-2.9358,2689.005,1337.056,29.6,
1565,1,SBT2050,2,4,,4,33333,3.42303,-2.9357,2689.005,1385.174,29.6,
1565,1,SBT2050,2,4,,4,33392,3.40628,-2.9362,2689.005,1433.291,29.7,
1565,1,SBT2050,2,4,,4,33451,3.389242,-2.9359,2689.005,1481.408,29.7,
1565,1,SBT2050,2,4,,4,33510,3.37187,-2.936,2689.005,1529.525,29.6,
1565,1,SBT2050,2,4,,4,33569,3.35446,-2.9362,2689.005,1577.642,29.7,
1565,1,SBT2050,2,4,,4,33628,3.3366,-2.9357,2689.005,1625.759,29.8,
1565,1,SBT2050,2,4,,4,33687,3.3185,-2.936,2689.005,1673.876,29.7,
1565,1,SBT2050,2,4,,4,33746,3.3,-2.9359,2689.005,1721.993,29.9,
1565,1,SBT2050,2,4,,4,33805,3.28126,-2.9361,2689.005,1770.111,29.9,
1565,1,SBT2050,2,4,,4,33864,3.261991,-2.9364,2689.005,1818.228,30,
1565,1,SBT2050,2,4,,4,33923,3.24214,-2.9361,2689.005,1866.345,30.1,
1565,1,SBT2050,2,4,,4,33982,3.2217,-2.9363,2689.005,1914.462,30.2,
1565,1,SBT2050,2,4,,4,34041,3.20016,-2.9361,2689.005,1962.579,30.3,
1565,1,SBT2050,2,4,,4,34100,3.1779,-2.9363,2689.005,2010.696,30.5,
1565,1,SBT2050,2,4,,4,34159,3.154575,-2.9355,2689.005,2058.813,30.6,
1565,1,SBT2050,2,4,,4,34218,3.12985,-2.9364,2689.005,2106.93,30.8,
1565,1,SBT2050,2,4,,4,34277,3.10406,-2.9354,2689.005,2155.047,30.9,
1565,1,SBT2050,2,4,,4,34336,3.07667,-2.9362,2689.005,2203.164,31.1,
1565,1,SBT2050,2,4,,4,34395,3.046829,-2.9359,2689.005,2251.281,31.3,
1565,1,SBT2050,2,4,,4,34454,3.01488,-2.9358,2689.005,2299.399,31.6,
1565,1,SBT2050,2,4,,4,34513,2.97989,-2.9359,2689.005,2347.516,31.9,
1565,1,SBT2050,2,4,,4,34572,2.94103,-2.9359,2689.005,2395.633,32.1,
1565,1,SBT2050,2,4,,4,34631,2.89623,-2.9359,2689.005,2443.75,32.5,
1565,1,SBT2050,2,4,,4,34690,2.84301,-2.9359,2689.005,2491.867,32.7,
1565,1,SBT2050,2,4,,4,34749,2.77469,-2.9362,2689.005,2539.984,33.2,
1565,1,SBT2050,2,4,,4,34808,2.67836,-2.9362,2689.005,2588.101,33.7,
1565,1,SBT2050,2,4,,4,34867,2.52258,-2.9363,2689.005,2636.218,34.5,
1565,1,SBT2050,2,4,,4,34926,2.49982,-2.2509,2689.005,2678.392,35.1,
1565,1,SBT2050,2,4,,4,34985,2.49986,-1.7913,2689.005,2711.329,35.1,
1565,1,SBT2050,2,4,,4,35044,2.499737,-1.4439,2689.005,2737.721,34.7,
1565,1,SBT2050,2,4,,4,35103,2.4998,-1.1788,2689.005,2759.112,33.9,
1565,1,SBT2050,2,4,,4,35162,2.499749,-0.9799,2689.005,2776.717,33.1,
1565,1,SBT2050,2,4,,4,35221,2.49982,-0.8277,2689.005,2791.469,32.4,
1565,1,SBT2050,2,4,,4,35280,2.50001,-0.7138,2689.005,2804.058,31.5,
1565,1,SBT2050,2,4,,4,35339,2.49995,-0.6259,2689.005,2815.001,30.9,
1565,1,SBT2050,2,4,,4,35398,2.499904,-0.5574,2689.005,2824.677,30.2,
1565,1,SBT2050,2,4,,4,35457,2.49987,-0.502,2689.005,2833.342,29.7,
1565,1,SBT2050,2,4,,4,35516,2.499904,-0.45865,2689.005,2841.2,29.3,
1565,1,SBT2050,2,4,,4,35575,2.49988,-0.42274,2689.005,2848.411,28.8,
1565,1,SBT2050,2,4,,4,35634,2.50013,-0.39365,2689.005,2855.095,28.4,
1565,1,SBT2050,2,4,,4,35693,2.49987,-0.36902,2689.005,2861.341,28.2,
1565,1,SBT2050,2,4,,4,35752,2.49995,-0.34771,2689.005,2867.212,27.9,
1565,1,SBT2050,2,4,,4,35811,2.49993,-0.32874,2689.005,2872.753,27.6,
1565,1,SBT2050,2,4,,4,35870,2.499892,-0.31249,2689.005,2878.005,27.5,
1565,1,SBT2050,2,4,,4,35929,2.49994,-0.29757,2689.005,2883.002,27.3,
1565,1,SBT2050,2,4,,4,35988,2.5,-0.28424,2689.005,2887.769,27.1,
1565,1,SBT2050,2,4,,4,36047,2.499892,-0.27176,2689.005,2892.323,27,
1565,1,SBT2050,2,4,,4,36106,2.50008,-0.25998,2689.005,2896.679,26.8,
1565,1,SBT2050,2,4,,4,36165,2.500035,-0.24921,2689.005,2900.849,26.8,
1565,1,SBT2050,2,4,,4,36224,2.49986,-0.23875,2689.005,2904.848,26.7,
1565,1,SBT2050,2,4,,4,36283,2.50006,-0.22944,2689.005,2908.684,26.6,
1565,1,SBT2050,2,4,,4,36342,2.49987,-0.21991,2689.005,2912.365,26.5,
1565,1,SBT2050,2,4,,4,36401,2.500047,-0.21134,2689.005,2915.898,26.5,
1565,1,SBT2050,2,4,,4,36460,2.49993,-0.20269,2689.005,2919.289,26.4,
1565,1,SBT2050,2,4,,4,36519,2.50001,-0.19505,2689.005,2922.548,26.4,
1565,1,SBT2050,2,4,,4,36578,2.5,-0.1869,2689.005,2925.677,26.3,
1565,1,SBT2050,2,4,,4,36637,2.499904,-0.17964,2689.005,2928.681,26.3,
1565,1,SBT2050,2,4,,4,36696,2.4998,-0.17253,2689.005,2931.566,26.2,
1565,1,SBT2050,2,4,,4,36755,2.50001,-0.16601,2689.005,2934.34,26.2,
1565,1,SBT2050,2,4,,4,36814,2.49995,-0.15987,2689.005,2937.01,26.1,
1565,1,SBT2050,2,4,,4,36873,2.50017,-0.15401,2689.005,2939.582,26.1,
1565,1,SBT2050,2,4,,4,36932,2.49982,-0.14873,2689.005,2942.063,26,
1565,1,SBT2050,2,4,,4,36991,2.50002,-0.14382,2689.005,2944.458,26,
1565,1,SBT2050,2,4,,4,37050,2.49993,-0.13864,2689.005,2946.772,26,
1565,1,SBT2050,2,4,,4,37109,2.49992,-0.13427,2689.005,2949.009,25.9,
1565,1,SBT2050,2,4,,4,37168,2.49993,-0.13001,2689.005,2951.174,25.9,
1565,1,SBT2050,2,4,,4,37227,2.49988,-0.12609,2689.005,2953.272,25.9,
1565,1,SBT2050,2,4,,4,37286,2.49993,-0.12218,2689.005,2955.306,25.9,
1565,1,SBT2050,2,4,,4,37345,2.49982,-0.11852,2689.005,2957.28,25.8,
1565,1,SBT2050,2,4,,4,37404,2.50012,-0.11507,2689.005,2959.195,25.8,
1565,1,SBT2050,2,4,,4,37463,2.50017,-0.11201,2689.005,2961.054,25.8,
1565,1,SBT2050,2,4,,4,37522,2.50006,-0.10849,2689.005,2962.86,25.8,
1565,1,SBT2050,2,4,,4,37581,2.49998,-0.1055,2689.005,2964.615,25.8,
1565,1,SBT2050,2,4,,4,37640,2.49996,-0.1027,2689.005,2966.32,25.7,
1565,1,SBT2050,2,4,,4,37699,2.50002,-0.09959,2689.005,2967.976,25.7,
1565,1,SBT2050,2,4,,4,37758,2.500035,-0.09682,2689.005,2969.585,25.7,
1565,1,SBT2050,2,4,,4,37817,2.49996,-0.09421,2689.005,2971.15,25.6,
1565,1,SBT2050,2,4,,4,37876,2.49986,-0.0915,2689.005,2972.672,25.7,
1565,1,SBT2050,2,4,,4,37935,2.499904,-0.08892,2689.005,2974.151,25.6,
1565,1,SBT2050,2,4,,4,37994,2.50006,-0.08656,2689.005,2975.59,25.6,
1565,1,SBT2050,2,4,,4,38053,2.500047,-0.08436,2689.005,2976.99,25.6,
1565,1,SBT2050,2,4,,4,38112,2.4998,-0.08175,2689.005,2978.352,25.6,
1565,1,SBT2050,2,4,,4,38171,2.50006,-0.07983,2689.005,2979.677,25.6,
1565,1,SBT2050,2,4,,4,38230,2.499904,-0.07757,2689.005,2980.966,25.6,
1565,1,SBT2050,2,4,,4,38289,2.499904,-0.07546,2689.005,2982.22,25.6,
1565,1,SBT2050,2,4,,4,38348,2.49982,-0.07355,2689.005,2983.44,25.6,
1565,1,SBT2050,2,4,,4,38407,2.50008,-0.0716,2689.005,2984.629,25.5,
1565,1,SBT2050,2,4,,4,38466,2.49995,-0.0697,2689.005,2985.786,25.5,
1565,1,SBT2050,2,4,,4,38525,2.50007,-0.06779,2689.005,2986.913,25.5,
1565,1,SBT2050,2,4,,4,38584,2.50008,-0.06619,2689.005,2988.011,25.5,
1565,1,SBT2050,2,4,,4,38643,2.49995,-0.06452,2689.005,2989.081,25.5,
1565,1,SBT2050,2,4,,4,38702,2.49992,-0.06297,2689.005,2990.125,25.5,
1565,1,SBT2050,2,4,,4,38761,2.49992,-0.06149,2689.005,2991.143,25.5,
1565,1,SBT2050,2,4,,4,38820,2.499904,-0.05971,2689.005,2992.134,25.4,
1565,1,SBT2050,2,4,,4,38879,2.49996,-0.0584,2689.005,2993.102,25.5,
1565,1,SBT2050,2,4,,4,38938,2.50012,-0.05708,2689.005,2994.045,25.4,
1565,1,SBT2050,2,4,,4,38997,2.50008,-0.05541,2689.005,2994.966,25.4,
1565,1,SBT2050,2,4,,4,39056,2.50008,-0.05435,2689.005,2995.864,25.4,
1565,1,SBT2050,2,4,,4,39115,2.49986,-0.05279,2689.005,2996.74,25.4,
1565,1,SBT2050,2,4,,4,39174,2.500047,-0.05153,2689.005,2997.595,25.4,
1565,1,SBT2050,2,4,,4,39233,2.50007,-0.05039,2689.005,2998.429,25.4,
1565,1,SBT2050,2,4,,4,39292,2.50012,-0.04927,2689.005,2999.243,25.4,
1565,1,SBT2050,2,4,,4,39351,2.49999,-0.04777,2689.005,3000.037,25.4,
1565,1,SBT2050,2,4,,4,39410,2.49995,-0.04685,2689.005,3000.814,25.4,
1565,1,SBT2050,2,4,,4,39469,2.49999,-0.045711,2689.005,3001.571,25.4,
1565,1,SBT2050,2,4,,4,39528,2.49995,-0.044549,2689.005,3002.312,25.4,
1565,1,SBT2050,2,4,,4,39587,2.50006,-0.043767,2689.005,3003.035,25.4,
1565,1,SBT2050,2,4,,4,39646,2.50014,-0.042605,2689.005,3003.742,25.4,
1565,1,SBT2050,2,4,,4,39705,2.500047,-0.041639,2689.005,3004.433,25.4,
1565,1,SBT2050,2,4,,4,39764,2.49995,-0.040609,2689.005,3005.108,25.4,
1565,1,SBT2050,2,4,,4,39823,2.49998,-0.039655,2689.005,3005.767,25.4,
1565,1,SBT2050,2,4,,4,39882,2.50006,-0.038821,2689.005,3006.411,25.4,
1565,1,SBT2050,2,4,,4,39941,2.500035,-0.037932,2689.005,3007.04,25.4,
1565,1,SBT2050,2,4,,4,40000,2.50009,-0.036971,2689.005,3007.653,25.3,
1565,1,SBT2050,2,4,,4,40059,2.499904,-0.036056,2689.005,3008.252,25.3,
1565,1,SBT2050,2,4,,4,40118,2.50001,-0.035304,2689.005,3008.836,25.3,
1565,1,SBT2050,2,4,,4,40177,2.50002,-0.034422,2689.005,3009.407,25.3,
1565,1,SBT2050,2,4,,4,40236,2.50002,-0.033556,2689.005,3009.964,25.3,
1565,1,SBT2050,2,4,,4,40295,2.49995,-0.032667,2689.005,3010.508,25.3,
1565,1,SBT2050,2,4,,4,40354,2.50007,-0.032069,2689.005,3011.039,25.3,
1565,1,SBT2050,2,4,,4,40413,2.49998,-0.031338,2689.005,3011.557,25.3,
1565,1,SBT2050,2,4,,4,40472,2.499892,-0.030556,2689.005,3012.064,25.3,
1565,1,SBT2050,2,4,,4,40531,2.49988,-0.029667,2689.005,3012.559,25.3,
1565,1,SBT2050,2,4,,4,40590,2.49973,-0.029167,2689.005,3013.044,25.3,
1565,1,SBT2050,2,4,,4,40649,2.49999,-0.028762,2689.005,3013.517,25.3,
1565,1,SBT2050,2,4,,4,40708,2.50002,-0.028246,2689.005,3013.98,25.3,
1565,1,SBT2050,2,4,,4,40767,2.50013,-0.02743,2689.005,3014.433,25.3,
1565,1,SBT2050,2,4,,4,40826,2.49992,-0.026649,2689.005,3014.876,25.2,
1565,1,SBT2050,2,4,,4,40885,2.500178,-0.026173,2689.005,3015.308,25.3,
1565,1,SBT2050,2,4,,4,40944,2.50009,-0.025471,2689.005,3015.731,25.3,
1565,1,SBT2050,2,4,,4,41003,2.49995,-0.024875,2689.005,3016.144,25.3,
1565,1,SBT2050,2,4,,4,41062,2.500035,-0.02435,2689.005,3016.548,25.2,
1565,1,SBT2050,2,4,,4,41121,2.50007,-0.023859,2689.005,3016.942,25.3,
1565,1,SBT2050,2,4,,4,41180,2.49999,-0.023147,2689.005,3017.327,25.2,
1565,1,SBT2050,2,4,,4,41239,2.50013,-0.022649,2689.005,3017.704,25.2,
1565,1,SBT2050,2,4,,4,41298,2.49994,-0.022216,2689.005,3018.072,25.3,
1565,1,SBT2050,2,4,,4,41357,2.50006,-0.021676,2689.005,3018.431,25.3,
1565,1,SBT2050,2,4,,4,41416,2.50011,-0.02132,2689.005,3018.781,25.2,
1565,1,SBT2050,2,4,,4,41475,2.50015,-0.020575,2689.005,3019.123,25.2,
1565,1,SBT2050,2,4,,4,41534,2.50006,-0.02011,2689.005,3019.457,25.3,
1565,1,SBT2050,2,4,,4,41593,2.5,-0.019552,2689.005,3019.783,25.2,
1565,1,SBT2050,2,4,,4,41652,2.49982,-0.019075,2689.005,3020.1,25.2,
1565,1,SBT2050,2,4,,4,41711,2.50012,-0.01868,2689.005,3020.41,25.2,
1565,1,SBT2050,2,4,,4,41770,2.50011,-0.018146,2689.005,3020.712,25.3,
1565,1,SBT2050,2,4,,4,41829,2.49988,-0.017827,2689.005,3021.007,25.2,
1565,1,SBT2050,2,4,,4,41888,2.49993,-0.017253,2689.005,3021.294,25.2,
1565,1,SBT2050,2,4,,4,41947,2.49998,-0.01696,2689.005,3021.574,25.2,
1565,1,SBT2050,2,4,,4,42006,2.49987,-0.016418,2689.005,3021.846,25.2,
1565,1,SBT2050,2,4,,4,42065,2.49998,-0.015916,2689.005,3022.113,25.3,
1565,1,SBT2050,2,4,,4,42124,2.49998,-0.015589,2689.005,3022.373,25.2,
1565,1,SBT2050,2,4,,4,42183,2.499761,-0.015204,2689.005,3022.626,25.2,
1565,1,SBT2050,2,4,,4,42242,2.500345,-0.015076,2689.005,3022.873,25.2,
1565,1,SBT2050,2,4,,4,42301,2.50006,-0.014592,2689.005,3023.113,25.2,
1565,1,SBT2050,2,4,,4,42360,2.499904,-0.014182,2689.005,3023.348,25.2,
1565,1,SBT2050,2,4,,4,42419,2.50009,-0.013758,2689.005,3023.576,25.2,
1565,1,SBT2050,2,4,,4,42478,2.50009,-0.013404,2689.005,3023.799,25.3,
1565,1,SBT2050,2,4,,4,42537,2.49993,-0.012914,2689.005,3024.016,25.2,
1565,1,SBT2050,2,4,,4,42596,2.49992,-0.012733,2689.005,3024.227,25.2,
1565,1,SBT2050,2,4,,4,42655,2.50006,-0.012334,2689.005,3024.432,25.2,
1565,1,SBT2050,2,4,,4,42714,2.50009,-0.011975,2689.005,3024.632,25.2,
1565,1,SBT2050,2,4,,4,42773,2.49999,-0.01177,2689.005,3024.826,25.2,
1565,1,SBT2050,2,4,,4,42832,2.50006,-0.011396,2689.005,3025.015,25.2,
1565,1,SBT2050,2,4,,4,42891,2.49994,-0.010945,2689.005,3025.199,25.2,
1565,1,SBT2050,2,4,,4,42950,2.499737,-0.010701,2689.005,3025.377,25.2,
1565,1,SBT2050,2,4,,4,43009,2.500047,-0.010454,2689.005,3025.551,25.2,
1565,1,SBT2050,2,4,,5,43067,2.51406,0,2689.005,3025.67,25.2,
1565,1,SBT2050,2,4,,5,43126,2.545132,0,2689.005,3025.67,25.2,
1565,1,SBT2050,2,4,,5,43185,2.56974,0,2689.005,3025.67,25.2,
1565,1,SBT2050,2,4,,5,43244,2.59155,0,2689.005,3025.67,25.2,
1565,1,SBT2050,2,4,,5,43303,2.61072,0,2689.005,3025.67,25.2,
1565,1,SBT2050,2,4,,5,43362,2.627488,0,2689.005,3025.67,25.2,
1565,1,SBT2050,2,4,,5,43421,2.64224,0,2689.005,3025.67,25.2,
1565,1,SBT2050,2,4,,5,43480,2.65527,0,2689.005,3025.67,25.3,
1565,1,SBT2050,2,4,,5,43539,2.666898,0,2689.005,3025.67,25.2,
1565,1,SBT2050,2,4,,5,43598,2.67735,0,2689.005,3025.67,25.2,
1565,1,SBT2050,2,4,,5,43657,2.68656,0,2689.005,3025.67,25.2,
1565,1,SBT2050,2,4,,5,43716,2.69484,0,2689.005,3025.67,25.2,
1565,1,SBT2050,2,4,,5,43775,2.70286,0,2689.005,3025.67,25.2,
1565,1,SBT2050,2,4,,5,43834,2.70984,0,2689.005,3025.67,25.2,
1565,1,SBT2050,2,4,,5,43893,2.7162,0,2689.005,3025.67,25.2,
1565,1,SBT2050,2,4,,5,43952,2.72208,0,2689.005,3025.67,25.2,
1565,1,SBT2050,2,4,,5,44011,2.72742,0,2689.005,3025.67,25.2,
1565,1,SBT2050,2,4,,5,44070,2.7326,0,2689.005,3025.67,25.2,
1565,1,SBT2050,2,4,,5,44129,2.736988,0,2689.005,3025.67,25.2,
1565,1,SBT2050,2,4,,5,44188,2.74139,0,2689.005,3025.67,25.2,
1565,1,SBT2050,2,4,,5,44247,2.74488,0,2689.005,3025.67,25.2,
1565,1,SBT2050,2,4,,5,44306,2.74856,0,2689.005,3025.67,25.2,
1565,1,SBT2050,2,4,,5,44365,2.75229,0,2689.005,3025.67,25.2,
1565,1,SBT2050,2,4,,5,44424,2.75537,0,2689.005,3025.67,25.2,
1565,1,SBT2050,2,4,,5,44483,2.7585,0,2689.005,3025.67,25.1,
1565,1,SBT2050,2,4,,5,44542,2.7611,0,2689.005,3025.67,25.2,
1565,1,SBT2050,2,4,,5,44601,2.76368,0,2689.005,3025.67,25.2,
1565,1,SBT2050,2,4,,5,44660,2.76644,0,2689.005,3025.67,25.1,
1565,1,SBT2050,2,4,,5,44719,2.769,0,2689.005,3025.67,25.2,
1565,1,SBT2050,2,4,,5,44778,2.77107,0,2689.005,3025.67,25.1,
1565,1,SBT2050,2,4,,5,44837,2.77337,0,2689.005,3025.67,25.2,
1565,1,SBT2050,2,4,,5,44850.537,2.77362,-0.0001,2689.005,3025.67,,