File: 1C/Test1501.csv
Request Year:,2018,,,,,,,,,,,,
Test:,1501,,,,,,,,,,,,
Test Description:,,,,,,,,,,,,,
TestRegime Name:,Aging_Performance,,,,,,,,,,,,
TestRegime Suffix:,SHP_LC,,,,,,,,,,,,
TestRegime CellSize:,18650,,,,,,,,,,,,
TestRegime Version:,1,,,,,,,,,,,,
Number Of Cells:,1,,,,,,,,,,,,
LotID:,,,,,,,,,,,,,
Lot Description:,,,,,,,,,,,,,
Date Made:,1/21/2003 12:00 AM,,,,,,,,,,,,
Origin:,Other,,,,,,,,,,,,
Requestor:,Admin,,,,,,,,,,,,
Product ID:,Default product,,,,,,,,,,,,
Storage Temp:,R.T./AMB,,,,,,,,,,,,
Storage Delay:,0 days,,,,,,,,,,,,
Test Temp:,R.T./AMB,,,,,,,,,,,,
Start Time:,4/15/2018 1:05 PM,,,,,,,,,,,,
End Time:,4/15/2018 10:39 PM,,,,,,,,,,,,
Operator Instructions:,,,,,,,,,,,,,
Test,Cell,Rack,Shelf,Position,Cell ID,Step,Total Time (Seconds),Voltage (V),Current (A),Charge Capacity (mAh),Discharge Capacity (mAh),TC1 (Â°C),
1501,1,SBT2050,2,4,,0,1,3.35654,0,0,0,25.1,
1501,1,SBT2050,2,4,,0,46,3.35643,0,0,0,25.1,
1501,1,SBT2050,2,4,,0,91,3.35662,0,0,0,25.1,
1501,1,SBT2050,2,4,,0,136,3.356732,0,0,0,25.1,
1501,1,SBT2050,2,4,,0,181,3.3567,0,0,0,25.1,
1501,1,SBT2050,2,4,,0,226,3.35679,0,0,0,25.1,
1501,1,SBT2050,2,4,,0,271,3.356964,0,0,0,25,
1501,1,SBT2050,2,4,,1,316,2.66945,-2.9361,0,13.047,25.1,
1501,1,SBT2050,2,4,,1,361,2.49975,-1.715,0,40.899,26.8,
1501,1,SBT2050,2,4,,1,406,2.49986,-1.4269,0,60.307,27.7,
1501,1,SBT2050,2,4,,1,451,2.49989,-1.2477,0,76.969,28.3,
1501,1,SBT2050,2,4,,1,496,2.49965,-1.1079,0,91.674,28.7,
1501,1,SBT2050,2,4,,1,541,2.50004,-0.9853,0,104.746,28.8,
1501,1,SBT2050,2,4,,1,586,2.50004,-0.8819,0,116.394,28.8,
1501,1,SBT2050,2,4,,1,631,2.49985,-0.7947,0,126.854,28.8,
1501,1,SBT2050,2,4,,1,676,2.499972,-0.7204,0,136.314,28.8,
1501,1,SBT2050,2,4,,1,721,2.49991,-0.656,0,144.911,28.6,
1501,1,SBT2050,2,4,,1,766,2.499841,-0.5994,0,152.754,28.5,
1501,1,SBT2050,2,4,,1,811,2.4999,-0.55,0,159.932,28.3,
1501,1,SBT2050,2,4,,1,856,2.49989,-0.5051,0,166.524,28.2,
1501,1,SBT2050,2,4,,1,901,2.49975,-0.4656,0,172.591,28,
1501,1,SBT2050,2,4,,1,946,2.49986,-0.43074,0,178.188,27.8,
1501,1,SBT2050,2,4,,1,991,2.49981,-0.39967,0,183.376,27.7,
1501,1,SBT2050,2,4,,1,1036,2.49989,-0.37231,0,188.198,27.5,
1501,1,SBT2050,2,4,,1,1081,2.49986,-0.34834,0,192.698,27.4,
1501,1,SBT2050,2,4,,1,1126,2.499984,-0.32593,0,196.909,27.2,
1501,1,SBT2050,2,4,,1,1171,2.5,-0.30587,0,200.855,27.1,
1501,1,SBT2050,2,4,,1,1216,2.50001,-0.28756,0,204.56,27,
1501,1,SBT2050,2,4,,1,1261,2.49989,-0.27122,0,208.052,26.9,
1501,1,SBT2050,2,4,,1,1306,2.49988,-0.25665,0,211.351,26.7,
1501,1,SBT2050,2,4,,1,1351,2.49996,-0.24315,0,214.475,26.6,
1501,1,SBT2050,2,4,,1,1396,2.49988,-0.23093,0,217.44,26.5,
1501,1,SBT2050,2,4,,1,1441,2.49994,-0.22007,0,220.257,26.4,
1501,1,SBT2050,2,4,,1,1486,2.49991,-0.2095,0,222.938,26.4,
1501,1,SBT2050,2,4,,1,1531,2.499817,-0.19927,0,225.494,26.3,
1501,1,SBT2050,2,4,,1,1576,2.499841,-0.19089,0,227.935,26.2,
1501,1,SBT2050,2,4,,1,1621,2.49979,-0.18274,0,230.269,26.2,
1501,1,SBT2050,2,4,,1,1666,2.499841,-0.1751,0,232.505,26.1,
1501,1,SBT2050,2,4,,1,1711,2.50006,-0.16823,0,234.648,26.1,
1501,1,SBT2050,2,4,,1,1756,2.49992,-0.16118,0,236.705,26,
1501,1,SBT2050,2,4,,1,1801,2.49989,-0.15462,0,238.677,26,
1501,1,SBT2050,2,4,,1,1846,2.49996,-0.14842,0,240.57,26,
1501,1,SBT2050,2,4,,1,1891,2.49988,-0.14263,0,242.388,25.9,
1501,1,SBT2050,2,4,,1,1936,2.49992,-0.13749,0,244.137,25.8,
1501,1,SBT2050,2,4,,1,1981,2.500115,-0.13219,0,245.821,25.8,
1501,1,SBT2050,2,4,,1,2026,2.49996,-0.12717,0,247.442,25.8,
1501,1,SBT2050,2,4,,1,2071,2.49986,-0.12261,0,249.004,25.7,
1501,1,SBT2050,2,4,,1,2116,2.49989,-0.11817,0,250.508,25.6,
1501,1,SBT2050,2,4,,1,2161,2.50007,-0.11412,0,251.959,25.6,
1501,1,SBT2050,2,4,,1,2206,2.4999,-0.11001,0,253.359,25.5,
1501,1,SBT2050,2,4,,1,2251,2.49979,-0.10597,0,254.709,25.5,
1501,1,SBT2050,2,4,,1,2296,2.49981,-0.10222,0,256.011,25.4,
1501,1,SBT2050,2,4,,1,2341,2.49971,-0.0988,0,257.269,25.4,
1501,1,SBT2050,2,4,,1,2386,2.49995,-0.09525,0,258.482,25.4,
1501,1,SBT2050,2,4,,1,2431,2.4999,-0.09199,0,259.653,25.4,
1501,1,SBT2050,2,4,,1,2476,2.49985,-0.08884,0,260.784,25.4,
1501,1,SBT2050,2,4,,1,2521,2.49995,-0.08573,0,261.875,25.4,
1501,1,SBT2050,2,4,,1,2566,2.50006,-0.08287,0,262.928,25.4,
1501,1,SBT2050,2,4,,1,2611,2.500115,-0.07985,0,263.944,25.4,
1501,1,SBT2050,2,4,,1,2656,2.49988,-0.07697,0,264.924,25.4,
1501,1,SBT2050,2,4,,1,2701,2.4999,-0.07428,0,265.87,25.3,
1501,1,SBT2050,2,4,,1,2746,2.50008,-0.07167,0,266.782,25.3,
1501,1,SBT2050,2,4,,1,2791,2.50007,-0.06917,0,267.662,25.3,
1501,1,SBT2050,2,4,,1,2836,2.50014,-0.06673,0,268.511,25.3,
1501,1,SBT2050,2,4,,1,2881,2.50007,-0.06444,0,269.33,25.3,
1501,1,SBT2050,2,4,,1,2926,2.4999,-0.06207,0,270.12,25.3,
1501,1,SBT2050,2,4,,1,2971,2.49986,-0.05992,0,270.882,25.2,
1501,1,SBT2050,2,4,,1,3016,2.49992,-0.0578,0,271.618,25.2,
1501,1,SBT2050,2,4,,1,3061,2.4999,-0.0558,0,272.327,25.2,
1501,1,SBT2050,2,4,,1,3106,2.50001,-0.05383,0,273.013,25.2,
1501,1,SBT2050,2,4,,1,3151,2.49994,-0.05204,0,273.674,25.2,
1501,1,SBT2050,2,4,,1,3196,2.50001,-0.05004,0,274.312,25.2,
1501,1,SBT2050,2,4,,1,3241,2.50001,-0.04843,0,274.926,25.2,
1501,1,SBT2050,2,4,,1,3286,2.49979,-0.0466,0,275.52,25.2,
1501,1,SBT2050,2,4,,1,3331,2.49985,-0.045008,0,276.093,25.2,
1501,1,SBT2050,2,4,,1,3376,2.50014,-0.043433,0,276.646,25.2,
1501,1,SBT2050,2,4,,1,3421,2.49994,-0.041916,0,277.181,25.2,
1501,1,SBT2050,2,4,,1,3466,2.49994,-0.040312,0,277.696,25.1,
1501,1,SBT2050,2,4,,1,3511,2.499817,-0.039001,0,278.195,25.1,
1501,1,SBT2050,2,4,,1,3556,2.49973,-0.037704,0,278.677,25.1,
1501,1,SBT2050,2,4,,1,3601,2.50009,-0.036761,0,279.143,25.1,
1501,1,SBT2050,2,4,,1,3646,2.5001,-0.035696,0,279.595,25.1,
1501,1,SBT2050,2,4,,1,3691,2.4999,-0.034364,0,280.032,25.1,
1501,1,SBT2050,2,4,,1,3736,2.49995,-0.033304,0,280.455,25.1,
1501,1,SBT2050,2,4,,1,3781,2.50007,-0.032262,0,280.865,25.1,
1501,1,SBT2050,2,4,,1,3826,2.5,-0.031233,0,281.262,25.1,
1501,1,SBT2050,2,4,,1,3871,2.49991,-0.030281,0,281.646,25.1,
1501,1,SBT2050,2,4,,1,3916,2.49989,-0.029167,0,282.019,25.1,
1501,1,SBT2050,2,4,,1,3961,2.50002,-0.028458,0,282.381,25.1,
1501,1,SBT2050,2,4,,1,4006,2.50006,-0.027673,0,282.732,25.1,
1501,1,SBT2050,2,4,,1,4051,2.49989,-0.026821,0,283.072,25.1,
1501,1,SBT2050,2,4,,1,4096,2.50003,-0.025871,0,283.402,25.1,
1501,1,SBT2050,2,4,,1,4141,2.50008,-0.02516,0,283.722,25,
1501,1,SBT2050,2,4,,1,4186,2.50007,-0.024529,0,284.032,25,
1501,1,SBT2050,2,4,,1,4231,2.5,-0.023812,0,284.333,25,
1501,1,SBT2050,2,4,,1,4276,2.50001,-0.023041,0,284.625,25.1,
1501,1,SBT2050,2,4,,1,4321,2.50004,-0.022345,0,284.908,25.1,
1501,1,SBT2050,2,4,,1,4366,2.500127,-0.021629,0,285.182,25.1,
1501,1,SBT2050,2,4,,1,4411,2.499972,-0.021052,0,285.449,25,
1501,1,SBT2050,2,4,,1,4456,2.499829,-0.020335,0,285.706,25,
1501,1,SBT2050,2,4,,1,4501,2.49995,-0.01959,0,285.957,25.1,
1501,1,SBT2050,2,4,,1,4546,2.50001,-0.019199,0,286.199,25.1,
1501,1,SBT2050,2,4,,1,4591,2.50001,-0.018507,0,286.434,25.1,
1501,1,SBT2050,2,4,,1,4636,2.50003,-0.017823,0,286.662,25.1,
1501,1,SBT2050,2,4,,1,4681,2.49986,-0.017259,0,286.883,25.1,
1501,1,SBT2050,2,4,,1,4726,2.4999,-0.016843,0,287.097,25.1,
1501,1,SBT2050,2,4,,1,4771,2.50001,-0.016469,0,287.305,25.1,
1501,1,SBT2050,2,4,,1,4816,2.50006,-0.015912,0,287.507,25.1,
1501,1,SBT2050,2,4,,1,4861,2.499984,-0.015431,0,287.703,25.1,
1501,1,SBT2050,2,4,,1,4906,2.50008,-0.015022,0,287.892,25,
1501,1,SBT2050,2,4,,1,4951,2.49994,-0.014475,0,288.075,25,
1501,1,SBT2050,2,4,,1,4996,2.499972,-0.014007,0,288.253,25,
1501,1,SBT2050,2,4,,1,5041,2.49995,-0.013556,0,288.424,25,
1501,1,SBT2050,2,4,,1,5086,2.50015,-0.013136,0,288.591,24.9,
1501,1,SBT2050,2,4,,1,5131,2.49992,-0.012657,0,288.752,24.9,
1501,1,SBT2050,2,4,,1,5176,2.50002,-0.012229,0,288.907,24.9,
1501,1,SBT2050,2,4,,1,5221,2.50006,-0.011894,0,289.058,24.9,
1501,1,SBT2050,2,4,,1,5266,2.5,-0.011592,0,289.204,24.9,
1501,1,SBT2050,2,4,,1,5311,2.50015,-0.011214,0,289.345,24.9,
1501,1,SBT2050,2,4,,1,5356,2.499841,-0.010626,0,289.482,25,
1501,1,SBT2050,2,4,,1,5401,2.50008,-0.010577,0,289.614,25,
1501,1,SBT2050,2,4,,2,5445,3.173405,2.9362,8.737,289.709,25,
1501,1,SBT2050,2,4,,2,5490,3.4551,2.9359,45.437,289.709,25.3,
1501,1,SBT2050,2,4,,2,5535,3.58112,2.9356,82.136,289.709,25.7,
1501,1,SBT2050,2,4,,2,5580,3.63694,2.9361,118.835,289.709,26.1,
1501,1,SBT2050,2,4,,2,5625,3.65243,2.9359,155.534,289.709,26.6,
1501,1,SBT2050,2,4,,2,5670,3.66521,2.9361,192.234,289.709,27.1,
1501,1,SBT2050,2,4,,2,5715,3.67857,2.9357,228.933,289.709,27.6,
1501,1,SBT2050,2,4,,2,5760,3.69154,2.9359,265.632,289.709,27.9,
1501,1,SBT2050,2,4,,2,5805,3.70402,2.9356,302.332,289.709,28.2,
1501,1,SBT2050,2,4,,2,5850,3.715264,2.9359,339.031,289.709,28.5,
1501,1,SBT2050,2,4,,2,5895,3.72537,2.9358,375.73,289.709,28.6,
1501,1,SBT2050,2,4,,2,5940,3.73364,2.9358,412.429,289.709,28.8,
1501,1,SBT2050,2,4,,2,5985,3.74059,2.9361,449.128,289.709,29,
1501,1,SBT2050,2,4,,2,6030,3.747,2.9359,485.828,289.709,29,
1501,1,SBT2050,2,4,,2,6075,3.7535,2.9358,522.527,289.709,29.2,
1501,1,SBT2050,2,4,,2,6120,3.760374,2.9363,559.226,289.709,29.2,
1501,1,SBT2050,2,4,,2,6165,3.76767,2.9356,595.926,289.709,29.1,
1501,1,SBT2050,2,4,,2,6210,3.77514,2.936,632.625,289.709,29.2,
1501,1,SBT2050,2,4,,2,6255,3.782826,2.9357,669.324,289.709,29.2,
1501,1,SBT2050,2,4,,2,6300,3.79062,2.9357,706.023,289.709,29.2,
1501,1,SBT2050,2,4,,2,6345,3.798268,2.936,742.723,289.709,29.2,
1501,1,SBT2050,2,4,,2,6390,3.80616,2.9358,779.422,289.709,29.2,
1501,1,SBT2050,2,4,,2,6435,3.81405,2.9362,816.121,289.709,29.3,
1501,1,SBT2050,2,4,,2,6480,3.82235,2.9359,852.82,289.709,29.3,
1501,1,SBT2050,2,4,,2,6525,3.83072,2.9356,889.519,289.709,29.2,
1501,1,SBT2050,2,4,,2,6570,3.83954,2.9358,926.219,289.709,29.1,
1501,1,SBT2050,2,4,,2,6615,3.84827,2.9356,962.918,289.709,29.2,
1501,1,SBT2050,2,4,,2,6660,3.85805,2.9357,999.617,289.709,29.2,
1501,1,SBT2050,2,4,,2,6705,3.86775,2.9359,1036.316,289.709,29.1,
1501,1,SBT2050,2,4,,2,6750,3.878268,2.9356,1073.016,289.709,29.3,
1501,1,SBT2050,2,4,,2,6795,3.88822,2.9359,1109.715,289.709,29.3,
1501,1,SBT2050,2,4,,2,6840,3.8995,2.9364,1146.414,289.709,29.3,
1501,1,SBT2050,2,4,,2,6885,3.910574,2.9362,1183.113,289.709,29.3,
1501,1,SBT2050,2,4,,2,6930,3.92254,2.9358,1219.812,289.709,29.3,
1501,1,SBT2050,2,4,,2,6975,3.93451,2.9358,1256.512,289.709,29.3,
1501,1,SBT2050,2,4,,2,7020,3.94697,2.9362,1293.211,289.709,29.4,
1501,1,SBT2050,2,4,,2,7065,3.95968,2.9358,1329.91,289.709,29.4,
1501,1,SBT2050,2,4,,2,7110,3.9728,2.9361,1366.609,289.709,29.5,
1501,1,SBT2050,2,4,,2,7155,3.9857,2.9352,1403.309,289.709,29.6,
1501,1,SBT2050,2,4,,2,7200,3.99921,2.9362,1440.008,289.709,29.5,
1501,1,SBT2050,2,4,,2,7245,4.01278,2.9361,1476.707,289.709,29.6,
1501,1,SBT2050,2,4,,2,7290,4.02616,2.935,1513.406,289.709,29.7,
1501,1,SBT2050,2,4,,2,7335,4.03974,2.9361,1550.106,289.709,29.6,
1501,1,SBT2050,2,4,,2,7380,4.05331,2.9359,1586.805,289.709,29.7,
1501,1,SBT2050,2,4,,2,7425,4.06741,2.9359,1623.504,289.709,29.8,
1501,1,SBT2050,2,4,,2,7470,4.08159,2.9358,1660.203,289.709,29.8,
1501,1,SBT2050,2,4,,2,7515,4.0952,2.9362,1696.902,289.709,29.9,
1501,1,SBT2050,2,4,,2,7560,4.10911,2.936,1733.602,289.709,29.9,
1501,1,SBT2050,2,4,,2,7605,4.12371,2.9362,1770.301,289.709,29.9,
1501,1,SBT2050,2,4,,2,7650,4.13809,2.9363,1807,289.709,29.9,
1501,1,SBT2050,2,4,,2,7695,4.15006,2.8812,1843.63,289.709,30.1,
1501,1,SBT2050,2,4,,2,7740,4.1501,2.6872,1878.336,289.709,30.1,
1501,1,SBT2050,2,4,,2,7785,4.150112,2.5293,1910.92,289.709,30,
1501,1,SBT2050,2,4,,2,7830,4.15021,2.3819,1941.602,289.709,29.9,
1501,1,SBT2050,2,4,,2,7875,4.150124,2.2415,1970.494,289.709,29.7,
1501,1,SBT2050,2,4,,2,7920,4.15005,2.1108,1997.691,289.709,29.4,
1501,1,SBT2050,2,4,,2,7965,4.1502,1.9873,2023.294,289.709,29.3,
1501,1,SBT2050,2,4,,2,8010,4.14966,1.8724,2047.404,289.709,29,
1501,1,SBT2050,2,4,,2,8055,4.14999,1.7651,2070.131,289.709,28.8,
1501,1,SBT2050,2,4,,2,8100,4.15014,1.6641,2091.567,289.709,28.6,
1501,1,SBT2050,2,4,,2,8145,4.15024,1.5716,2111.788,289.709,28.4,
1501,1,SBT2050,2,4,,2,8190,4.15015,1.485,2130.889,289.709,28.1,
1501,1,SBT2050,2,4,,2,8235,4.15003,1.4054,2148.95,289.709,27.9,
1501,1,SBT2050,2,4,,2,8280,4.14992,1.3329,2166.056,289.709,27.7,
1501,1,SBT2050,2,4,,2,8325,4.150088,1.2649,2182.282,289.709,27.6,
1501,1,SBT2050,2,4,,2,8370,4.150088,1.1981,2197.682,289.709,27.5,
1501,1,SBT2050,2,4,,2,8415,4.15002,1.1412,2212.304,289.709,27.3,
1501,1,SBT2050,2,4,,2,8460,4.150386,1.0857,2226.216,289.709,27.2,
1501,1,SBT2050,2,4,,2,8505,4.15002,1.0348,2239.465,289.709,27,
1501,1,SBT2050,2,4,,2,8550,4.149826,0.9846,2252.074,289.709,26.9,
1501,1,SBT2050,2,4,,2,8595,4.14999,0.9401,2264.111,289.709,26.8,
1501,1,SBT2050,2,4,,2,8640,4.15005,0.8982,2275.602,289.709,26.7,
1501,1,SBT2050,2,4,,2,8685,4.150076,0.8593,2286.586,289.709,26.6,
1501,1,SBT2050,2,4,,2,8730,4.15005,0.823,2297.095,289.709,26.4,
1501,1,SBT2050,2,4,,2,8775,4.14993,0.7876,2307.164,289.709,26.4,
1501,1,SBT2050,2,4,,2,8820,4.15004,0.7568,2316.817,289.709,26.3,
1501,1,SBT2050,2,4,,2,8865,4.14999,0.7254,2326.078,289.709,26.2,
1501,1,SBT2050,2,4,,2,8910,4.14985,0.6963,2334.966,289.709,26.2,
1501,1,SBT2050,2,4,,2,8955,4.150088,0.6694,2343.501,289.709,26.1,
1501,1,SBT2050,2,4,,2,9000,4.15014,0.6446,2351.706,289.709,26,
1501,1,SBT2050,2,4,,2,9045,4.150076,0.6181,2359.594,289.709,26,
1501,1,SBT2050,2,4,,2,9090,4.15,0.596,2367.182,289.709,25.9,
1501,1,SBT2050,2,4,,2,9135,4.15015,0.5747,2374.498,289.709,25.8,
1501,1,SBT2050,2,4,,2,9180,4.15,0.5554,2381.555,289.709,25.8,
1501,1,SBT2050,2,4,,2,9225,4.1501,0.535,2388.363,289.709,25.8,
1501,1,SBT2050,2,4,,2,9270,4.150124,0.5165,2394.93,289.709,25.7,
1501,1,SBT2050,2,4,,2,9315,4.15002,0.4993,2401.275,289.709,25.7,
1501,1,SBT2050,2,4,,2,9360,4.14999,0.4822,2407.408,289.709,25.6,
1501,1,SBT2050,2,4,,2,9405,4.15002,0.46728,2413.336,289.709,25.6,
1501,1,SBT2050,2,4,,2,9450,4.15014,0.45132,2419.078,289.709,25.5,
1501,1,SBT2050,2,4,,2,9495,4.14996,0.43775,2424.635,289.709,25.5,
1501,1,SBT2050,2,4,,2,9540,4.15015,0.42445,2430.019,289.709,25.5,
1501,1,SBT2050,2,4,,2,9585,4.15018,0.41117,2435.239,289.709,25.5,
1501,1,SBT2050,2,4,,2,9630,4.150124,0.39912,2440.296,289.709,25.5,
1501,1,SBT2050,2,4,,2,9675,4.15017,0.38692,2445.204,289.709,25.4,
1501,1,SBT2050,2,4,,2,9720,4.14985,0.37518,2449.97,289.709,25.4,
1501,1,SBT2050,2,4,,2,9765,4.15002,0.36495,2454.595,289.709,25.4,
1501,1,SBT2050,2,4,,2,9810,4.14995,0.35467,2459.096,289.709,25.4,
1501,1,SBT2050,2,4,,2,9855,4.150124,0.34529,2463.47,289.709,25.3,
1501,1,SBT2050,2,4,,2,9900,4.14996,0.33581,2467.727,289.709,25.4,
1501,1,SBT2050,2,4,,2,9945,4.15004,0.32637,2471.867,289.709,25.4,
1501,1,SBT2050,2,4,,2,9990,4.15028,0.31765,2475.893,289.709,25.3,
1501,1,SBT2050,2,4,,2,10035,4.149826,0.30988,2479.821,289.709,25.3,
1501,1,SBT2050,2,4,,2,10080,4.15021,0.30234,2483.645,289.709,25.3,
1501,1,SBT2050,2,4,,2,10125,4.150124,0.29469,2487.371,289.709,25.3,
1501,1,SBT2050,2,4,,2,10170,4.15014,0.28706,2491.01,289.709,25.3,
1501,1,SBT2050,2,4,,2,10215,4.1501,0.28059,2494.558,289.709,25.2,
1501,1,SBT2050,2,4,,2,10260,4.150112,0.27417,2498.027,289.709,25.2,
1501,1,SBT2050,2,4,,2,10305,4.14996,0.26823,2501.421,289.709,25.3,
1501,1,SBT2050,2,4,,2,10350,4.15005,0.2625,2504.729,289.709,25.3,
1501,1,SBT2050,2,4,,2,10395,4.150362,0.25607,2507.97,289.709,25.3,
1501,1,SBT2050,2,4,,2,10440,4.1502,0.25056,2511.14,289.709,25.3,
1501,1,SBT2050,2,4,,2,10485,4.15021,0.24516,2514.238,289.709,25.3,
1501,1,SBT2050,2,4,,2,10530,4.15025,0.2397,2517.264,289.709,25.3,
1501,1,SBT2050,2,4,,2,10575,4.15002,0.23465,2520.229,289.709,25.3,
1501,1,SBT2050,2,4,,2,10620,4.15005,0.22947,2523.136,289.709,25.3,
1501,1,SBT2050,2,4,,2,10665,4.15018,0.22469,2525.975,289.709,25.3,
1501,1,SBT2050,2,4,,2,10710,4.14998,0.22051,2528.756,289.709,25.2,
1501,1,SBT2050,2,4,,2,10755,4.15006,0.21535,2531.478,289.709,25.2,
1501,1,SBT2050,2,4,,2,10800,4.14999,0.21026,2534.141,289.709,25.2,
1501,1,SBT2050,2,4,,2,10845,4.15027,0.20647,2536.75,289.709,25.1,
1501,1,SBT2050,2,4,,2,10890,4.15024,0.20332,2539.312,289.709,25.1,
1501,1,SBT2050,2,4,,2,10935,4.15,0.19857,2541.826,289.709,25.1,
1501,1,SBT2050,2,4,,2,10980,4.15,0.19457,2544.286,289.709,25,
1501,1,SBT2050,2,4,,2,11025,4.14989,0.1907,2546.692,289.709,25,
1501,1,SBT2050,2,4,,2,11070,4.14997,0.18761,2549.057,289.709,25,
1501,1,SBT2050,2,4,,2,11115,4.14996,0.18326,2551.375,289.709,25.1,
1501,1,SBT2050,2,4,,2,11160,4.15005,0.17977,2553.646,289.709,25.1,
1501,1,SBT2050,2,4,,2,11205,4.15006,0.17673,2555.875,289.709,25.1,
1501,1,SBT2050,2,4,,2,11250,4.15006,0.17406,2558.068,289.709,25.1,
1501,1,SBT2050,2,4,,2,11295,4.14996,0.17033,2560.216,289.709,25.1,
1501,1,SBT2050,2,4,,2,11340,4.14987,0.16745,2562.326,289.709,25.1,
1501,1,SBT2050,2,4,,2,11385,4.15005,0.1641,2564.4,289.709,25.1,
1501,1,SBT2050,2,4,,2,11430,4.15003,0.16092,2566.43,289.709,25.1,
1501,1,SBT2050,2,4,,2,11475,4.15016,0.15863,2568.428,289.709,25.1,
1501,1,SBT2050,2,4,,2,11520,4.14995,0.1559,2570.389,289.709,25,
1501,1,SBT2050,2,4,,2,11565,4.14975,0.15326,2572.317,289.709,25.1,
1501,1,SBT2050,2,4,,2,11610,4.15,0.14996,2574.21,289.709,25.1,
1501,1,SBT2050,2,4,,2,11655,4.15029,0.14736,2576.076,289.709,25.1,
1501,1,SBT2050,2,4,,2,11700,4.14995,0.14469,2577.901,289.709,25.1,
1501,1,SBT2050,2,4,,2,11745,4.15005,0.14295,2579.699,289.709,25.1,
1501,1,SBT2050,2,4,,2,11790,4.1501,0.141,2581.475,289.709,25.1,
1501,1,SBT2050,2,4,,2,11835,4.1503,0.13804,2583.217,289.709,25,
1501,1,SBT2050,2,4,,2,11880,4.149838,0.13552,2584.926,289.709,25.1,
1501,1,SBT2050,2,4,,2,11925,4.15005,0.13334,2586.608,289.709,25.1,
1501,1,SBT2050,2,4,,2,11970,4.15005,0.13101,2588.259,289.709,25,
1501,1,SBT2050,2,4,,2,12015,4.150076,0.12891,2589.88,289.709,25.1,
1501,1,SBT2050,2,4,,2,12060,4.15,0.12691,2591.478,289.709,25.1,
1501,1,SBT2050,2,4,,2,12105,4.15017,0.12447,2593.055,289.709,25,
1501,1,SBT2050,2,4,,2,12150,4.14986,0.12338,2594.599,289.709,25.1,
1501,1,SBT2050,2,4,,2,12195,4.14991,0.12058,2596.12,289.709,25,
1501,1,SBT2050,2,4,,2,12240,4.149826,0.11851,2597.613,289.709,25.1,
1501,1,SBT2050,2,4,,2,12285,4.15024,0.11615,2599.08,289.709,25,
1501,1,SBT2050,2,4,,2,12330,4.15015,0.11434,2600.523,289.709,25.1,
1501,1,SBT2050,2,4,,2,12375,4.14996,0.11239,2601.94,289.709,25,
1501,1,SBT2050,2,4,,2,12420,4.14996,0.11052,2603.334,289.709,25.1,
1501,1,SBT2050,2,4,,2,12465,4.15004,0.10899,2604.711,289.709,25.1,
1501,1,SBT2050,2,4,,2,12510,4.15002,0.10745,2606.065,289.709,25,
1501,1,SBT2050,2,4,,2,12555,4.14993,0.10604,2607.399,289.709,25,
1501,1,SBT2050,2,4,,2,12600,4.149814,0.10448,2608.715,289.709,25,
1501,1,SBT2050,2,4,,2,12645,4.14996,0.10247,2610.007,289.709,25,
1501,1,SBT2050,2,4,,2,12690,4.14991,0.10138,2611.281,289.709,25,
1501,1,SBT2050,2,4,,2,12735,4.14993,0.09972,2612.539,289.709,25,
1501,1,SBT2050,2,4,,2,12780,4.15024,0.09835,2613.778,289.709,25,
1501,1,SBT2050,2,4,,2,12825,4.15018,0.0965,2614.997,289.709,25,
1501,1,SBT2050,2,4,,2,12870,4.14995,0.09523,2616.197,289.709,25,
1501,1,SBT2050,2,4,,2,12915,4.15014,0.09382,2617.381,289.709,25,
1501,1,SBT2050,2,4,,2,12960,4.15018,0.09253,2618.545,289.709,25,
1501,1,SBT2050,2,4,,2,13005,4.15003,0.09141,2619.697,289.709,25,
1501,1,SBT2050,2,4,,2,13050,4.150124,0.08985,2620.829,289.709,25,
1501,1,SBT2050,2,4,,2,13095,4.15017,0.08857,2621.945,289.709,25,
1501,1,SBT2050,2,4,,2,13140,4.15002,0.08725,2623.044,289.709,25,
1501,1,SBT2050,2,4,,2,13185,4.14993,0.08627,2624.129,289.709,25,
1501,1,SBT2050,2,4,,2,13230,4.15005,0.0848,2625.197,289.709,25,
1501,1,SBT2050,2,4,,2,13275,4.14995,0.08439,2626.252,289.709,25,
1501,1,SBT2050,2,4,,2,13320,4.14996,0.08251,2627.291,289.709,25,
1501,1,SBT2050,2,4,,2,13365,4.15015,0.08216,2628.316,289.709,25,
1501,1,SBT2050,2,4,,2,13410,4.14987,0.08045,2629.326,289.709,25,
1501,1,SBT2050,2,4,,2,13455,4.14999,0.07907,2630.325,289.709,25,
1501,1,SBT2050,2,4,,2,13500,4.14998,0.07789,2631.306,289.709,25,
1501,1,SBT2050,2,4,,2,13545,4.15024,0.07685,2632.273,289.709,25.1,
1501,1,SBT2050,2,4,,2,13590,4.14974,0.07607,2633.228,289.709,25.1,
1501,1,SBT2050,2,4,,2,13635,4.150088,0.07485,2634.172,289.709,25.1,
1501,1,SBT2050,2,4,,2,13680,4.149826,0.07403,2635.103,289.709,25.1,
1501,1,SBT2050,2,4,,2,13725,4.14975,0.07287,2636.019,289.709,25.1,
1501,1,SBT2050,2,4,,2,13770,4.14999,0.07128,2636.92,289.709,25,
1501,1,SBT2050,2,4,,2,13815,4.15004,0.07061,2637.808,289.709,25,
1501,1,SBT2050,2,4,,2,13860,4.15006,0.0697,2638.685,289.709,25,
1501,1,SBT2050,2,4,,2,13905,4.14998,0.06894,2639.551,289.709,25,
1501,1,SBT2050,2,4,,2,13950,4.15018,0.06755,2640.404,289.709,25,
1501,1,SBT2050,2,4,,2,13995,4.14996,0.06674,2641.245,289.709,24.9,
1501,1,SBT2050,2,4,,2,14040,4.15005,0.06591,2642.076,289.709,24.9,
1501,1,SBT2050,2,4,,2,14085,4.15005,0.06523,2642.896,289.709,24.9,
1501,1,SBT2050,2,4,,2,14130,4.15002,0.06439,2643.706,289.709,24.9,
1501,1,SBT2050,2,4,,2,14175,4.150112,0.06356,2644.502,289.709,24.9,
1501,1,SBT2050,2,4,,2,14220,4.14996,0.06274,2645.289,289.709,25,
1501,1,SBT2050,2,4,,2,14265,4.14997,0.06253,2646.071,289.709,24.9,
1501,1,SBT2050,2,4,,2,14310,4.14991,0.06121,2646.843,289.709,25,
1501,1,SBT2050,2,4,,2,14355,4.14972,0.06068,2647.607,289.709,25,
1501,1,SBT2050,2,4,,2,14400,4.15003,0.06007,2648.358,289.709,25,
1501,1,SBT2050,2,4,,2,14445,4.150124,0.05874,2649.103,289.709,25,
1501,1,SBT2050,2,4,,2,14490,4.150124,0.05813,2649.835,289.709,24.9,
1501,1,SBT2050,2,4,,2,14535,4.15017,0.0573,2650.559,289.709,25,
1501,1,SBT2050,2,4,,2,14580,4.15018,0.05645,2651.272,289.709,25,
1501,1,SBT2050,2,4,,2,14625,4.14989,0.05604,2651.974,289.709,25,
1501,1,SBT2050,2,4,,2,14670,4.14998,0.05575,2652.669,289.709,25,
1501,1,SBT2050,2,4,,2,14715,4.150076,0.05462,2653.358,289.709,25,
1501,1,SBT2050,2,4,,2,14760,4.14997,0.05396,2654.042,289.709,25,
1501,1,SBT2050,2,4,,2,14805,4.14986,0.05386,2654.713,289.709,25,
1501,1,SBT2050,2,4,,2,14850,4.150124,0.05307,2655.379,289.709,25,
1501,1,SBT2050,2,4,,2,14895,4.14992,0.05255,2656.037,289.709,25,
1501,1,SBT2050,2,4,,2,14940,4.14995,0.05125,2656.687,289.709,25,
1501,1,SBT2050,2,4,,2,14985,4.15004,0.05107,2657.33,289.709,25,
1501,1,SBT2050,2,4,,2,15030,4.15017,0.05008,2657.963,289.709,25,
1501,1,SBT2050,2,4,,2,15075,4.14999,0.04998,2658.588,289.709,25,
1501,1,SBT2050,2,4,,2,15120,4.15,0.04902,2659.206,289.709,25,
1501,1,SBT2050,2,4,,2,15165,4.14979,0.04848,2659.815,289.709,25,
1501,1,SBT2050,2,4,,2,15210,4.15,0.04793,2660.418,289.709,25,
1501,1,SBT2050,2,4,,2,15255,4.15004,0.04709,2661.015,289.709,25,
1501,1,SBT2050,2,4,,2,15300,4.14998,0.046511,2661.6,289.709,25,
1501,1,SBT2050,2,4,,2,15345,4.14992,0.046713,2662.186,289.709,25,
1501,1,SBT2050,2,4,,2,15390,4.14989,0.045516,2662.764,289.709,25,
1501,1,SBT2050,2,4,,2,15435,4.1501,0.045107,2663.329,289.709,25,
1501,1,SBT2050,2,4,,2,15480,4.1501,0.0448,2663.891,289.709,25,
1501,1,SBT2050,2,4,,2,15525,4.15006,0.04381,2664.444,289.709,24.9,
1501,1,SBT2050,2,4,,2,15570,4.15,0.043209,2664.992,289.709,24.9,
1501,1,SBT2050,2,4,,2,15615,4.149838,0.042734,2665.53,289.709,24.9,
1501,1,SBT2050,2,4,,2,15660,4.1499,0.042668,2666.059,289.709,25,
1501,1,SBT2050,2,4,,2,15705,4.14986,0.041924,2666.585,289.709,25,
1501,1,SBT2050,2,4,,2,15750,4.15003,0.041328,2667.102,289.709,25,
1501,1,SBT2050,2,4,,2,15795,4.15016,0.040678,2667.617,289.709,24.9,
1501,1,SBT2050,2,4,,2,15840,4.14971,0.040904,2668.127,289.709,25,
1501,1,SBT2050,2,4,,2,15885,4.150076,0.039669,2668.632,289.709,24.9,
1501,1,SBT2050,2,4,,2,15930,4.14989,0.03944,2669.129,289.709,24.9,
1501,1,SBT2050,2,4,,2,15975,4.14998,0.039067,2669.621,289.709,24.9,
1501,1,SBT2050,2,4,,2,16020,4.1502,0.038634,2670.106,289.709,24.9,
1501,1,SBT2050,2,4,,2,16065,4.14975,0.038322,2670.587,289.709,24.9,
1501,1,SBT2050,2,4,,2,16110,4.1502,0.037492,2671.061,289.709,24.9,
1501,1,SBT2050,2,4,,2,16155,4.15022,0.03698,2671.528,289.709,24.9,
1501,1,SBT2050,2,4,,2,16200,4.15022,0.036876,2671.99,289.709,24.9,
1501,1,SBT2050,2,4,,2,16245,4.14977,0.036886,2672.448,289.709,24.9,
1501,1,SBT2050,2,4,,2,16290,4.14992,0.036653,2672.906,289.709,24.9,
1501,1,SBT2050,2,4,,2,16335,4.15,0.035607,2673.354,289.709,25,
1501,1,SBT2050,2,4,,2,16380,4.15015,0.035402,2673.798,289.709,25,
1501,1,SBT2050,2,4,,2,16425,4.14992,0.035018,2674.237,289.709,25,
1501,1,SBT2050,2,4,,2,16470,4.15021,0.034436,2674.67,289.709,25,
1501,1,SBT2050,2,4,,2,16515,4.14996,0.034444,2675.099,289.709,25,
1501,1,SBT2050,2,4,,2,16560,4.15005,0.033734,2675.527,289.709,24.9,
1501,1,SBT2050,2,4,,2,16605,4.14996,0.033588,2675.949,289.709,24.9,
1501,1,SBT2050,2,4,,2,16650,4.15003,0.033242,2676.369,289.709,24.9,
1501,1,SBT2050,2,4,,2,16695,4.15005,0.033361,2676.784,289.709,24.8,
1501,1,SBT2050,2,4,,2,16740,4.14995,0.032159,2677.19,289.709,24.8,
1501,1,SBT2050,2,4,,2,16785,4.150076,0.03219,2677.591,289.709,24.8,
1501,1,SBT2050,2,4,,2,16830,4.15015,0.032349,2677.994,289.709,24.8,
1501,1,SBT2050,2,4,,2,16875,4.15003,0.031615,2678.392,289.709,24.8,
1501,1,SBT2050,2,4,,2,16920,4.14977,0.031396,2678.781,289.709,24.8,
1501,1,SBT2050,2,4,,2,16965,4.15017,0.030618,2679.168,289.709,24.9,
1501,1,SBT2050,2,4,,2,17010,4.15018,0.030841,2679.551,289.709,24.9,
1501,1,SBT2050,2,4,,2,17055,4.150088,0.030606,2679.933,289.709,24.9,
1501,1,SBT2050,2,4,,2,17100,4.15005,0.029819,2680.31,289.709,24.9,
1501,1,SBT2050,2,4,,2,17145,4.15006,0.030043,2680.681,289.709,24.9,
1501,1,SBT2050,2,4,,2,17190,4.1499,0.029502,2681.049,289.709,24.9,
1501,1,SBT2050,2,4,,2,17235,4.15003,0.028831,2681.415,289.709,24.9,
1501,1,SBT2050,2,4,,2,17280,4.15006,0.028615,2681.776,289.709,24.9,
1501,1,SBT2050,2,4,,2,17325,4.14996,0.028615,2682.136,289.709,24.9,
1501,1,SBT2050,2,4,,2,17370,4.1499,0.028021,2682.49,289.709,24.9,
1501,1,SBT2050,2,4,,2,17415,4.14992,0.02793,2682.843,289.709,24.9,
1501,1,SBT2050,2,4,,2,17460,4.15004,0.027927,2683.191,289.709,25,
1501,1,SBT2050,2,4,,2,17505,4.14998,0.027454,2683.536,289.709,24.9,
1501,1,SBT2050,2,4,,2,17550,4.15017,0.027207,2683.879,289.709,24.9,
1501,1,SBT2050,2,4,,2,17595,4.14985,0.026829,2684.217,289.709,24.9,
1501,1,SBT2050,2,4,,2,17640,4.14998,0.026873,2684.552,289.709,24.9,
1501,1,SBT2050,2,4,,2,17685,4.14977,0.026813,2684.885,289.709,24.9,
1501,1,SBT2050,2,4,,2,17730,4.14997,0.026385,2685.215,289.709,24.9,
1501,1,SBT2050,2,4,,2,17775,4.14997,0.026505,2685.544,289.709,24.9,
1501,1,SBT2050,2,4,,2,17820,4.149802,0.025508,2685.868,289.709,24.9,
1501,1,SBT2050,2,4,,2,17865,4.15015,0.025693,2686.189,289.709,24.9,
1501,1,SBT2050,2,4,,2,17910,4.15014,0.025152,2686.509,289.709,24.9,
1501,1,SBT2050,2,4,,2,17955,4.14996,0.025413,2686.823,289.709,24.9,
1501,1,SBT2050,2,4,,2,18000,4.15004,0.024607,2687.136,289.709,24.9,
1501,1,SBT2050,2,4,,2,18045,4.15002,0.025381,2687.447,289.709,24.9,
1501,1,SBT2050,2,4,,2,18090,4.15002,0.024342,2687.755,289.709,24.9,
1501,1,SBT2050,2,4,,2,18135,4.15004,0.024314,2688.062,289.709,24.9,
1501,1,SBT2050,2,4,,2,18180,4.1501,0.024149,2688.36,289.709,24.9,
1501,1,SBT2050,2,4,,2,18225,4.15006,0.023454,2688.657,289.709,24.9,
1501,1,SBT2050,2,4,,2,18270,4.1502,0.023482,2688.95,289.709,24.9,
1501,1,SBT2050,2,4,,2,18315,4.14995,0.023282,2689.243,289.709,24.9,
1501,1,SBT2050,2,4,,2,18360,4.15005,0.023001,2689.535,289.709,24.9,
1501,1,SBT2050,2,4,,2,18405,4.15025,0.022494,2689.823,289.709,24.9,
1501,1,SBT2050,2,4,,2,18450,4.14977,0.022799,2690.107,289.709,24.9,
1501,1,SBT2050,2,4,,2,18495,4.150076,0.022728,2690.392,289.709,24.9,
1501,1,SBT2050,2,4,,2,18540,4.14996,0.022059,2690.671,289.709,25,
1501,1,SBT2050,2,4,,2,18585,4.15,0.022186,2690.947,289.709,25,
1501,1,SBT2050,2,4,,2,18630,4.15005,0.022405,2691.227,289.709,25,
1501,1,SBT2050,2,4,,2,18675,4.1501,0.021765,2691.498,289.709,24.9,
1501,1,SBT2050,2,4,,2,18720,4.14999,0.021343,2691.767,289.709,24.9,
1501,1,SBT2050,2,4,,2,18765,4.14996,0.020911,2692.032,289.709,24.9,
1501,1,SBT2050,2,4,,2,18810,4.15,0.021152,2692.297,289.709,24.9,
1501,1,SBT2050,2,4,,2,18855,4.1501,0.020607,2692.558,289.709,24.9,
1501,1,SBT2050,2,4,,2,18900,4.14997,0.021719,2692.823,289.709,25,
1501,1,SBT2050,2,4,,2,18945,4.15024,0.020333,2693.085,289.709,25,
1501,1,SBT2050,2,4,,2,18990,4.15,0.02031,2693.342,289.709,25,
1501,1,SBT2050,2,4,,2,19035,4.14989,0.02002,2693.595,289.709,25,
1501,1,SBT2050,2,4,,2,19080,4.14998,0.0195,2693.846,289.709,25,
1501,1,SBT2050,2,4,,2,19125,4.149826,0.019779,2694.095,289.709,25,
1501,1,SBT2050,2,4,,2,19170,4.14992,0.019523,2694.342,289.709,25,
1501,1,SBT2050,2,4,,2,19215,4.149826,0.019772,2694.586,289.709,25,
1501,1,SBT2050,2,4,,2,19260,4.14997,0.019304,2694.831,289.709,25,
1501,1,SBT2050,2,4,,2,19305,4.15,0.019154,2695.074,289.709,25,
1501,1,SBT2050,2,4,,2,19350,4.14996,0.019426,2695.315,289.709,25,
1501,1,SBT2050,2,4,,2,19395,4.14996,0.018989,2695.557,289.709,25,
1501,1,SBT2050,2,4,,2,19440,4.14993,0.018918,2695.792,289.709,25,
1501,1,SBT2050,2,4,,2,19485,4.150076,0.018217,2696.028,289.709,25,
1501,1,SBT2050,2,4,,2,19530,4.15,0.018713,2696.257,289.709,24.9,
1501,1,SBT2050,2,4,,2,19575,4.15016,0.018649,2696.493,289.709,24.9,
1501,1,SBT2050,2,4,,2,19620,4.14995,0.01802,2696.722,289.709,24.9,
1501,1,SBT2050,2,4,,2,19665,4.14991,0.018118,2696.949,289.709,24.9,
1501,1,SBT2050,2,4,,2,19710,4.150088,0.018099,2697.176,289.709,24.9,
1501,1,SBT2050,2,4,,2,19755,4.15005,0.017754,2697.399,289.709,24.9,
1501,1,SBT2050,2,4,,2,19800,4.14996,0.017559,2697.619,289.709,24.9,
1501,1,SBT2050,2,4,,2,19845,4.14991,0.01727,2697.836,289.709,24.9,
1501,1,SBT2050,2,4,,2,19890,4.14993,0.017111,2698.053,289.709,24.9,
1501,1,SBT2050,2,4,,2,19935,4.14996,0.017562,2698.271,289.709,24.9,
1501,1,SBT2050,2,4,,2,19980,4.15004,0.017023,2698.487,289.709,25,
1501,1,SBT2050,2,4,,2,20025,4.14991,0.016885,2698.7,289.709,25,
1501,1,SBT2050,2,4,,2,20070,4.15002,0.016636,2698.91,289.709,24.9,
1501,1,SBT2050,2,4,,2,20115,4.15002,0.01669,2699.121,289.709,24.9,
1501,1,SBT2050,2,4,,2,20160,4.150076,0.016788,2699.331,289.709,24.9,
1501,1,SBT2050,2,4,,2,20205,4.14996,0.016136,2699.537,289.709,24.9,
1501,1,SBT2050,2,4,,2,20250,4.1501,0.01625,2699.741,289.709,25,
1501,1,SBT2050,2,4,,2,20295,4.14997,0.0168,2699.949,289.709,24.9,
1501,1,SBT2050,2,4,,2,20340,4.14992,0.015638,2700.152,289.709,24.9,
1501,1,SBT2050,2,4,,2,20385,4.14995,0.015907,2700.348,289.709,24.9,
1501,1,SBT2050,2,4,,2,20430,4.149814,0.016095,2700.546,289.709,24.9,
1501,1,SBT2050,2,4,,2,20475,4.15014,0.015282,2700.743,289.709,24.9,
1501,1,SBT2050,2,4,,2,20520,4.14998,0.015382,2700.937,289.709,24.9,
1501,1,SBT2050,2,4,,2,20565,4.15004,0.015614,2701.131,289.709,25,
1501,1,SBT2050,2,4,,2,20610,4.15014,0.015038,2701.324,289.709,25,
1501,1,SBT2050,2,4,,2,20655,4.14974,0.01525,2701.516,289.709,25,
1501,1,SBT2050,2,4,,2,20700,4.15004,0.015009,2701.706,289.709,25,
1501,1,SBT2050,2,4,,2,20745,4.14997,0.014951,2701.894,289.709,24.9,
1501,1,SBT2050,2,4,,2,20790,4.15002,0.015153,2702.079,289.709,24.9,
1501,1,SBT2050,2,4,,2,20835,4.149814,0.015054,2702.266,289.709,24.9,
1501,1,SBT2050,2,4,,2,20880,4.14999,0.01437,2702.45,289.709,24.9,
1501,1,SBT2050,2,4,,2,20925,4.14995,0.014502,2702.63,289.709,24.9,
1501,1,SBT2050,2,4,,2,20970,4.150112,0.014659,2702.811,289.709,25,
1501,1,SBT2050,2,4,,2,21015,4.14989,0.014132,2702.993,289.709,24.9,
1501,1,SBT2050,2,4,,2,21060,4.15004,0.014012,2703.17,289.709,25,
1501,1,SBT2050,2,4,,2,21105,4.14997,0.014091,2703.348,289.709,24.9,
1501,1,SBT2050,2,4,,2,21150,4.150076,0.014106,2703.523,289.709,24.9,
1501,1,SBT2050,2,4,,2,21195,4.150076,0.013877,2703.699,289.709,24.9,
1501,1,SBT2050,2,4,,2,21240,4.14998,0.013809,2703.87,289.709,24.9,
1501,1,SBT2050,2,4,,2,21285,4.15014,0.013692,2704.042,289.709,25,
1501,1,SBT2050,2,4,,2,21330,4.15003,0.013498,2704.213,289.709,24.9,
1501,1,SBT2050,2,4,,2,21375,4.149838,0.013585,2704.382,289.709,25,
1501,1,SBT2050,2,4,,2,21420,4.14985,0.013815,2704.551,289.709,25,
1501,1,SBT2050,2,4,,2,21465,4.149826,0.013245,2704.719,289.709,24.9,
1501,1,SBT2050,2,4,,2,21510,4.14985,0.013325,2704.885,289.709,24.9,
1501,1,SBT2050,2,4,,2,21555,4.15004,0.013623,2705.051,289.709,24.9,
1501,1,SBT2050,2,4,,2,21600,4.14975,0.013081,2705.218,289.709,25,
1501,1,SBT2050,2,4,,2,21645,4.15015,0.013609,2705.383,289.709,25,
1501,1,SBT2050,2,4,,2,21690,4.15022,0.013465,2705.549,289.709,25,
1501,1,SBT2050,2,4,,2,21735,4.150076,0.012746,2705.711,289.709,25,
1501,1,SBT2050,2,4,,2,21780,4.150124,0.01252,2705.87,289.709,25,
1501,1,SBT2050,2,4,,2,21825,4.150088,0.012635,2706.028,289.709,25,
1501,1,SBT2050,2,4,,2,21870,4.15003,0.012602,2706.186,289.709,25,
1501,1,SBT2050,2,4,,2,21915,4.14989,0.012649,2706.345,289.709,25,
1501,1,SBT2050,2,4,,2,21960,4.14997,0.012675,2706.504,289.709,25,
1501,1,SBT2050,2,4,,2,22005,4.14996,0.012423,2706.662,289.709,25,
1501,1,SBT2050,2,4,,2,22050,4.14989,0.012038,2706.815,289.709,25,
1501,1,SBT2050,2,4,,2,22095,4.15,0.012575,2706.968,289.709,25,
1501,1,SBT2050,2,4,,2,22140,4.14991,0.011772,2707.119,289.709,25,
1501,1,SBT2050,2,4,,2,22185,4.150124,0.012332,2707.27,289.709,24.9,
1501,1,SBT2050,2,4,,2,22230,4.15002,0.01151,2707.419,289.709,24.9,
1501,1,SBT2050,2,4,,2,22275,4.14999,0.011766,2707.567,289.709,24.9,
1501,1,SBT2050,2,4,,2,22320,4.1499,0.01114,2707.715,289.709,24.9,
1501,1,SBT2050,2,4,,2,22365,4.14973,0.011843,2707.858,289.709,24.9,
1501,1,SBT2050,2,4,,2,22410,4.15004,0.011205,2708.002,289.709,24.9,
1501,1,SBT2050,2,4,,2,22455,4.15016,0.011549,2708.145,289.709,24.9,
1501,1,SBT2050,2,4,,2,22500,4.15014,0.01136,2708.286,289.709,24.9,
1501,1,SBT2050,2,4,,2,22545,4.15027,0.011047,2708.429,289.709,24.9,
1501,1,SBT2050,2,4,,2,22590,4.150124,0.0111,2708.571,289.709,24.9,
1501,1,SBT2050,2,4,,2,22635,4.150088,0.011516,2708.713,289.709,24.9,
1501,1,SBT2050,2,4,,2,22680,4.15023,0.011138,2708.854,289.709,24.9,
1501,1,SBT2050,2,4,,2,22725,4.15016,0.010994,2708.993,289.709,24.9,
1501,1,SBT2050,2,4,,2,22770,4.14991,0.011003,2709.133,289.709,24.9,
1501,1,SBT2050,2,4,,2,22815,4.14997,0.011021,2709.269,289.709,24.9,
1501,1,SBT2050,2,4,,2,22860,4.14991,0.010662,2709.403,289.709,24.9,
1501,1,SBT2050,2,4,,2,22905,4.150124,0.010612,2709.535,289.709,24.9,
1501,1,SBT2050,2,4,,2,22950,4.150088,0.010939,2709.671,289.709,24.9,
1501,1,SBT2050,2,4,,2,22995,4.15015,0.010456,2709.806,289.709,24.9,
1501,1,SBT2050,2,4,,3,23039,4.148202,0,2709.876,289.709,24.9,
1501,1,SBT2050,2,4,,3,23084,4.14717,0,2709.876,289.709,24.9,
1501,1,SBT2050,2,4,,3,23129,4.14724,0,2709.876,289.709,24.9,
1501,1,SBT2050,2,4,,3,23174,4.14681,0,2709.876,289.709,24.9,
1501,1,SBT2050,2,4,,3,23219,4.14666,0,2709.876,289.709,24.9,
1501,1,SBT2050,2,4,,3,23264,4.14614,0,2709.876,289.709,24.9,
1501,1,SBT2050,2,4,,3,23309,4.14613,0,2709.876,289.709,24.9,
1501,1,SBT2050,2,4,,3,23354,4.14571,0,2709.876,289.709,24.9,
1501,1,SBT2050,2,4,,3,23399,4.14541,0,2709.876,289.709,24.9,
1501,1,SBT2050,2,4,,3,23444,4.145592,0,2709.876,289.709,24.9,
1501,1,SBT2050,2,4,,3,23489,4.145706,0,2709.876,289.709,24.9,
1501,1,SBT2050,2,4,,3,23534,4.14542,0,2709.876,289.709,24.9,
1501,1,SBT2050,2,4,,3,23579,4.14521,0,2709.876,289.709,24.9,
1501,1,SBT2050,2,4,,3,23624,4.145,0,2709.876,289.709,24.9,
1501,1,SBT2050,2,4,,3,23669,4.14467,0,2709.876,289.709,24.9,
1501,1,SBT2050,2,4,,3,23714,4.14507,0,2709.876,289.709,24.9,
1501,1,SBT2050,2,4,,3,23759,4.14464,0,2709.876,289.709,24.9,
1501,1,SBT2050,2,4,,3,23804,4.14448,0,2709.876,289.709,24.9,
1501,1,SBT2050,2,4,,3,23849,4.14438,0,2709.876,289.709,24.9,
1501,1,SBT2050,2,4,,3,23894,4.1444,0,2709.876,289.709,24.9,
1501,1,SBT2050,2,4,,3,23939,4.14427,0,2709.876,289.709,24.9,
1501,1,SBT2050,2,4,,3,23984,4.14442,0,2709.876,289.709,24.9,
1501,1,SBT2050,2,4,,3,24029,4.1444,0,2709.876,289.709,24.9,
1501,1,SBT2050,2,4,,3,24074,4.14455,0,2709.876,289.709,24.9,
1501,1,SBT2050,2,4,,3,24119,4.14415,0,2709.876,289.709,24.9,
1501,1,SBT2050,2,4,,3,24164,4.14396,0,2709.876,289.709,24.9,
1501,1,SBT2050,2,4,,3,24209,4.14384,0,2709.876,289.709,24.9,
1501,1,SBT2050,2,4,,3,24254,4.1438,0,2709.876,289.709,24.9,
1501,1,SBT2050,2,4,,3,24299,4.14384,0,2709.876,289.709,24.9,
1501,1,SBT2050,2,4,,3,24344,4.14395,0,2709.876,289.709,24.9,
1501,1,SBT2050,2,4,,3,24389,4.14354,0,2709.876,289.709,24.9,
1501,1,SBT2050,2,4,,3,24434,4.14366,0,2709.876,289.709,24.9,
1501,1,SBT2050,2,4,,3,24479,4.14376,0,2709.876,289.709,24.9,
1501,1,SBT2050,2,4,,3,24524,4.14368,0,2709.876,289.709,24.9,
1501,1,SBT2050,2,4,,3,24569,4.14358,0,2709.876,289.709,24.9,
1501,1,SBT2050,2,4,,3,24614,4.14344,0,2709.876,289.709,25,
1501,1,SBT2050,2,4,,3,24659,4.143502,0,2709.876,289.709,25,
1501,1,SBT2050,2,4,,3,24704,4.14319,0,2709.876,289.709,25,
1501,1,SBT2050,2,4,,3,24749,4.1431,0,2709.876,289.709,24.9,
1501,1,SBT2050,2,4,,3,24794,4.14323,0,2709.876,289.709,25,
1501,1,SBT2050,2,4,,4,24838,3.82793,-2.9362,2709.876,305.408,25.1,
1501,1,SBT2050,2,4,,4,24883,3.77614,-2.9358,2709.876,342.108,25.7,
1501,1,SBT2050,2,4,,4,24928,3.75467,-2.9354,2709.876,378.807,26.3,
1501,1,SBT2050,2,4,,4,24973,3.742486,-2.9357,2709.876,415.506,26.7,
1501,1,SBT2050,2,4,,4,25018,3.733936,-2.9359,2709.876,452.206,27.1,
1501,1,SBT2050,2,4,,4,25063,3.72644,-2.9361,2709.876,488.905,27.5,
1501,1,SBT2050,2,4,,4,25108,3.7193,-2.9358,2709.876,525.605,27.8,
1501,1,SBT2050,2,4,,4,25153,3.71201,-2.9359,2709.876,562.304,27.9,
1501,1,SBT2050,2,4,,4,25198,3.704118,-2.9362,2709.876,599.004,28.2,
1501,1,SBT2050,2,4,,4,25243,3.69561,-2.9366,2709.876,635.703,28.3,
1501,1,SBT2050,2,4,,4,25288,3.68661,-2.936,2709.876,672.403,28.5,
1501,1,SBT2050,2,4,,4,25333,3.67743,-2.9357,2709.876,709.102,28.6,
1501,1,SBT2050,2,4,,4,25378,3.66741,-2.9361,2709.876,745.802,28.6,
1501,1,SBT2050,2,4,,4,25423,3.65732,-2.9359,2709.876,782.502,28.7,
1501,1,SBT2050,2,4,,4,25468,3.64581,-2.9357,2709.876,819.201,28.7,
1501,1,SBT2050,2,4,,4,25513,3.63524,-2.9357,2709.876,855.9,28.7,
1501,1,SBT2050,2,4,,4,25558,3.62385,-2.9359,2709.876,892.6,28.6,
1501,1,SBT2050,2,4,,4,25603,3.61221,-2.9362,2709.876,929.299,28.7,
1501,1,SBT2050,2,4,,4,25648,3.60024,-2.936,2709.876,965.999,28.7,
1501,1,SBT2050,2,4,,4,25693,3.58839,-2.9357,2709.876,1002.698,28.7,
1501,1,SBT2050,2,4,,4,25738,3.57654,-2.9361,2709.876,1039.398,28.8,
1501,1,SBT2050,2,4,,4,25783,3.56412,-2.9358,2709.876,1076.097,28.8,
1501,1,SBT2050,2,4,,4,25828,3.5515,-2.9357,2709.876,1112.797,28.8,
1501,1,SBT2050,2,4,,4,25873,3.53937,-2.9359,2709.876,1149.496,28.7,
1501,1,SBT2050,2,4,,4,25918,3.52648,-2.9361,2709.876,1186.196,28.7,
1501,1,SBT2050,2,4,,4,25963,3.514028,-2.9362,2709.876,1222.896,28.8,
1501,1,SBT2050,2,4,,4,26008,3.501402,-2.936,2709.876,1259.595,28.8,
1501,1,SBT2050,2,4,,4,26053,3.48867,-2.9361,2709.876,1296.295,28.8,
1501,1,SBT2050,2,4,,4,26098,3.47582,-2.9362,2709.876,1332.994,28.8,
1501,1,SBT2050,2,4,,4,26143,3.46304,-2.936,2709.876,1369.694,28.8,
1501,1,SBT2050,2,4,,4,26188,3.45016,-2.9362,2709.876,1406.393,28.8,
1501,1,SBT2050,2,4,,4,26233,3.43773,-2.936,2709.876,1443.093,28.8,
1501,1,SBT2050,2,4,,4,26278,3.42495,-2.9358,2709.876,1479.793,28.8,
1501,1,SBT2050,2,4,,4,26323,3.41229,-2.9355,2709.876,1516.492,28.9,
1501,1,SBT2050,2,4,,4,26368,3.3999,-2.9358,2709.876,1553.192,28.9,
1501,1,SBT2050,2,4,,4,26413,3.38713,-2.9357,2709.876,1589.891,28.9,
1501,1,SBT2050,2,4,,4,26458,3.37494,-2.9362,2709.876,1626.59,28.9,
1501,1,SBT2050,2,4,,4,26503,3.36246,-2.9359,2709.876,1663.29,29,
1501,1,SBT2050,2,4,,4,26548,3.34964,-2.9364,2709.876,1699.99,28.9,
1501,1,SBT2050,2,4,,4,26593,3.33675,-2.9356,2709.876,1736.689,29,
1501,1,SBT2050,2,4,,4,26638,3.32402,-2.9359,2709.876,1773.389,29.1,
1501,1,SBT2050,2,4,,4,26683,3.31081,-2.936,2709.876,1810.088,29.1,
1501,1,SBT2050,2,4,,4,26728,3.29737,-2.9359,2709.876,1846.788,29.2,
1501,1,SBT2050,2,4,,4,26773,3.28354,-2.9359,2709.876,1883.487,29.2,
1501,1,SBT2050,2,4,,4,26818,3.26952,-2.9356,2709.876,1920.187,29.3,
1501,1,SBT2050,2,4,,4,26863,3.254921,-2.936,2709.876,1956.886,29.3,
1501,1,SBT2050,2,4,,4,26908,3.23983,-2.9361,2709.876,1993.586,29.4,
1501,1,SBT2050,2,4,,4,26953,3.22403,-2.9357,2709.876,2030.285,29.5,
1501,1,SBT2050,2,4,,4,26998,3.20773,-2.9356,2709.876,2066.985,29.6,
1501,1,SBT2050,2,4,,4,27043,3.1908,-2.9359,2709.876,2103.684,29.7,
1501,1,SBT2050,2,4,,4,27088,3.1726,-2.9359,2709.876,2140.384,29.8,
1501,1,SBT2050,2,4,,4,27133,3.15356,-2.9359,2709.876,2177.083,30,
1501,1,SBT2050,2,4,,4,27178,3.1333,-2.9366,2709.876,2213.783,30,
1501,1,SBT2050,2,4,,4,27223,3.111763,-2.936,2709.876,2250.482,30.2,
1501,1,SBT2050,2,4,,4,27268,3.08819,-2.9359,2709.876,2287.182,30.4,
1501,1,SBT2050,2,4,,4,27313,3.06357,-2.9361,2709.876,2323.881,30.6,
1501,1,SBT2050,2,4,,4,27358,3.036746,-2.9363,2709.876,2360.581,30.8,
1501,1,SBT2050,2,4,,4,27403,3.00793,-2.9357,2709.876,2397.28,31,
1501,1,SBT2050,2,4,,4,27448,2.97595,-2.936,2709.876,2433.98,31.2,
1501,1,SBT2050,2,4,,4,27493,2.940209,-2.9358,2709.876,2470.679,31.5,
1501,1,SBT2050,2,4,,4,27538,2.899355,-2.9356,2709.876,2507.379,31.7,
1501,1,SBT2050,2,4,,4,27583,2.851841,-2.936,2709.876,2544.079,31.9,
1501,1,SBT2050,2,4,,4,27628,2.79499,-2.9362,2709.876,2580.778,32.3,
1501,1,SBT2050,2,4,,4,27673,2.72647,-2.9356,2709.876,2617.477,32.6,
1501,1,SBT2050,2,4,,4,27718,2.63872,-2.9359,2709.876,2654.177,33.3,
1501,1,SBT2050,2,4,,4,27763,2.51381,-2.9358,2709.876,2690.876,33.8,
1501,1,SBT2050,2,4,,4,27808,2.49981,-2.359,2709.876,2723.699,34.3,
1501,1,SBT2050,2,4,,4,27853,2.49989,-1.9727,2709.876,2750.666,34.6,
1501,1,SBT2050,2,4,,4,27898,2.4999,-1.6617,2709.876,2773.309,34.5,
1501,1,SBT2050,2,4,,4,27943,2.49989,-1.4082,2709.876,2792.438,34.1,
1501,1,SBT2050,2,4,,4,27988,2.4998,-1.1991,2709.876,2808.687,33.7,
1501,1,SBT2050,2,4,,4,28033,2.49987,-1.029,2709.876,2822.582,33.1,
1501,1,SBT2050,2,4,,4,28078,2.49994,-0.8892,2709.876,2834.547,32.5,
1501,1,SBT2050,2,4,,4,28123,2.499766,-0.7751,2709.876,2844.925,31.9,
1501,1,SBT2050,2,4,,4,28168,2.49975,-0.6808,2709.876,2854.005,31.4,
1501,1,SBT2050,2,4,,4,28213,2.49985,-0.6057,2709.876,2862.028,30.8,
1501,1,SBT2050,2,4,,4,28258,2.49979,-0.545,2709.876,2869.206,30.1,
1501,1,SBT2050,2,4,,4,28303,2.49973,-0.4952,2709.876,2875.695,29.7,
1501,1,SBT2050,2,4,,4,28348,2.49994,-0.45242,2709.876,2881.607,29.3,
1501,1,SBT2050,2,4,,4,28393,2.49985,-0.41789,2709.876,2887.042,29,
1501,1,SBT2050,2,4,,4,28438,2.499766,-0.38931,2709.876,2892.082,28.6,
1501,1,SBT2050,2,4,,4,28483,2.499909,-0.36462,2709.876,2896.791,28.3,
1501,1,SBT2050,2,4,,4,28528,2.50009,-0.34378,2709.876,2901.216,28,
1501,1,SBT2050,2,4,,4,28573,2.499921,-0.32536,2709.876,2905.395,27.8,
1501,1,SBT2050,2,4,,4,28618,2.49987,-0.30845,2709.876,2909.355,27.5,
1501,1,SBT2050,2,4,,4,28663,2.499909,-0.29338,2709.876,2913.116,27.3,
1501,1,SBT2050,2,4,,4,28708,2.4999,-0.27975,2709.876,2916.695,27.1,
1501,1,SBT2050,2,4,,4,28753,2.499909,-0.26696,2709.876,2920.108,27,
1501,1,SBT2050,2,4,,4,28798,2.49984,-0.25473,2709.876,2923.366,26.9,
1501,1,SBT2050,2,4,,4,28843,2.49965,-0.24362,2709.876,2926.482,26.8,
1501,1,SBT2050,2,4,,4,28888,2.499909,-0.23319,2709.876,2929.461,26.7,
1501,1,SBT2050,2,4,,4,28933,2.499909,-0.22308,2709.876,2932.312,26.5,
1501,1,SBT2050,2,4,,4,28978,2.49986,-0.21357,2709.876,2935.041,26.5,
1501,1,SBT2050,2,4,,4,29023,2.50009,-0.20464,2709.876,2937.657,26.4,
1501,1,SBT2050,2,4,,4,29068,2.49996,-0.19661,2709.876,2940.165,26.4,
1501,1,SBT2050,2,4,,4,29113,2.49985,-0.18854,2709.876,2942.572,26.2,
1501,1,SBT2050,2,4,,4,29158,2.50009,-0.18092,2709.876,2944.882,26.2,
1501,1,SBT2050,2,4,,4,29203,2.49997,-0.17355,2709.876,2947.097,26.1,
1501,1,SBT2050,2,4,,4,29248,2.4998,-0.16632,2709.876,2949.222,26.1,
1501,1,SBT2050,2,4,,4,29293,2.49987,-0.15974,2709.876,2951.26,26,
1501,1,SBT2050,2,4,,4,29338,2.49987,-0.15347,2709.876,2953.217,25.9,
1501,1,SBT2050,2,4,,4,29383,2.49994,-0.14738,2709.876,2955.096,25.9,
1501,1,SBT2050,2,4,,4,29428,2.4998,-0.1411,2709.876,2956.901,25.9,
1501,1,SBT2050,2,4,,4,29473,2.49983,-0.13578,2709.876,2958.633,25.8,
1501,1,SBT2050,2,4,,4,29518,2.49985,-0.13017,2709.876,2960.295,25.8,
1501,1,SBT2050,2,4,,4,29563,2.49998,-0.12482,2709.876,2961.89,25.8,
1501,1,SBT2050,2,4,,4,29608,2.500076,-0.12011,2709.876,2963.422,25.7,
1501,1,SBT2050,2,4,,4,29653,2.49997,-0.11506,2709.876,2964.892,25.7,
1501,1,SBT2050,2,4,,4,29698,2.49989,-0.11062,2709.876,2966.303,25.7,
1501,1,SBT2050,2,4,,4,29743,2.49998,-0.10611,2709.876,2967.657,25.7,
1501,1,SBT2050,2,4,,4,29788,2.5,-0.10159,2709.876,2968.955,25.6,
1501,1,SBT2050,2,4,,4,29833,2.5002,-0.09745,2709.876,2970.198,25.6,
1501,1,SBT2050,2,4,,4,29878,2.5,-0.09318,2709.876,2971.39,25.6,
1501,1,SBT2050,2,4,,4,29923,2.49984,-0.0894,2709.876,2972.532,25.6,
1501,1,SBT2050,2,4,,4,29968,2.499909,-0.08589,2709.876,2973.627,25.6,
1501,1,SBT2050,2,4,,4,30013,2.50014,-0.08251,2709.876,2974.678,25.6,
1501,1,SBT2050,2,4,,4,30058,2.499766,-0.07898,2709.876,2975.687,25.5,
1501,1,SBT2050,2,4,,4,30103,2.50015,-0.07626,2709.876,2976.656,25.5,
1501,1,SBT2050,2,4,,4,30148,2.4998,-0.07303,2709.876,2977.586,25.4,
1501,1,SBT2050,2,4,,4,30193,2.50003,-0.07021,2709.876,2978.482,25.4,
1501,1,SBT2050,2,4,,4,30238,2.49986,-0.0675,2709.876,2979.343,25.3,
1501,1,SBT2050,2,4,,4,30283,2.499909,-0.06517,2709.876,2980.173,25.3,
1501,1,SBT2050,2,4,,4,30328,2.49989,-0.06285,2709.876,2980.973,25.2,
1501,1,SBT2050,2,4,,4,30373,2.50004,-0.06067,2709.876,2981.744,25.2,
1501,1,SBT2050,2,4,,4,30418,2.50009,-0.0585,2709.876,2982.488,25.2,
1501,1,SBT2050,2,4,,4,30463,2.5001,-0.05639,2709.876,2983.207,25.2,
1501,1,SBT2050,2,4,,4,30508,2.499909,-0.05447,2709.876,2983.901,25.2,
1501,1,SBT2050,2,4,,4,30553,2.499909,-0.0525,2709.876,2984.571,25.2,
1501,1,SBT2050,2,4,,4,30598,2.49996,-0.05103,2709.876,2985.22,25.3,
1501,1,SBT2050,2,4,,4,30643,2.49997,-0.0493,2709.876,2985.848,25.2,
1501,1,SBT2050,2,4,,4,30688,2.500064,-0.04783,2709.876,2986.455,25.3,
1501,1,SBT2050,2,4,,4,30733,2.499921,-0.046302,2709.876,2987.043,25.3,
1501,1,SBT2050,2,4,,4,30778,2.49997,-0.044647,2709.876,2987.612,25.2,
1501,1,SBT2050,2,4,,4,30823,2.500064,-0.043424,2709.876,2988.164,25.2,
1501,1,SBT2050,2,4,,4,30868,2.50012,-0.041968,2709.876,2988.697,25.2,
1501,1,SBT2050,2,4,,4,30913,2.49985,-0.040632,2709.876,2989.214,25.2,
1501,1,SBT2050,2,4,,4,30958,2.49998,-0.039494,2709.876,2989.714,25.2,
1501,1,SBT2050,2,4,,4,31003,2.500076,-0.038082,2709.876,2990.198,25.2,
1501,1,SBT2050,2,4,,4,31048,2.500064,-0.036809,2709.876,2990.665,25.2,
1501,1,SBT2050,2,4,,4,31093,2.49984,-0.035499,2709.876,2991.118,25.2,
1501,1,SBT2050,2,4,,4,31138,2.499909,-0.034411,2709.876,2991.555,25.2,
1501,1,SBT2050,2,4,,4,31183,2.50003,-0.033187,2709.876,2991.978,25.2,
1501,1,SBT2050,2,4,,4,31228,2.49997,-0.032142,2709.876,2992.386,25.1,
1501,1,SBT2050,2,4,,4,31273,2.499933,-0.030988,2709.876,2992.78,25.1,
1501,1,SBT2050,2,4,,4,31318,2.49999,-0.030003,2709.876,2993.16,25.1,
1501,1,SBT2050,2,4,,4,31363,2.500064,-0.028917,2709.876,2993.528,25.1,
1501,1,SBT2050,2,4,,4,31408,2.50011,-0.027799,2709.876,2993.883,25.1,
1501,1,SBT2050,2,4,,4,31453,2.49999,-0.026921,2709.876,2994.224,25.2,
1501,1,SBT2050,2,4,,4,31498,2.49999,-0.025926,2709.876,2994.554,25.1,
1501,1,SBT2050,2,4,,4,31543,2.499921,-0.024746,2709.876,2994.871,25.1,
1501,1,SBT2050,2,4,,4,31588,2.50003,-0.023924,2709.876,2995.176,25.1,
1501,1,SBT2050,2,4,,4,31633,2.499921,-0.023108,2709.876,2995.47,25.1,
1501,1,SBT2050,2,4,,4,31678,2.49984,-0.02219,2709.876,2995.753,25.1,
1501,1,SBT2050,2,4,,4,31723,2.50027,-0.021664,2709.876,2996.026,25.1,
1501,1,SBT2050,2,4,,4,31768,2.49997,-0.020579,2709.876,2996.288,25.1,
1501,1,SBT2050,2,4,,4,31813,2.49999,-0.019806,2709.876,2996.54,25.1,
1501,1,SBT2050,2,4,,4,31858,2.50018,-0.019012,2709.876,2996.783,25.2,
1501,1,SBT2050,2,4,,4,31903,2.49999,-0.018272,2709.876,2997.016,25.1,
1501,1,SBT2050,2,4,,4,31948,2.49996,-0.017473,2709.876,2997.241,25.2,
1501,1,SBT2050,2,4,,4,31993,2.49999,-0.017036,2709.876,2997.457,25.2,
1501,1,SBT2050,2,4,,4,32038,2.49999,-0.01635,2709.876,2997.665,25.2,
1501,1,SBT2050,2,4,,4,32083,2.50004,-0.015868,2709.876,2997.865,25.2,
1501,1,SBT2050,2,4,,4,32128,2.500052,-0.015263,2709.876,2998.058,25.2,
1501,1,SBT2050,2,4,,4,32173,2.50003,-0.014545,2709.876,2998.243,25.1,
1501,1,SBT2050,2,4,,4,32218,2.50004,-0.013957,2709.876,2998.421,25.1,
1501,1,SBT2050,2,4,,4,32263,2.49998,-0.013208,2709.876,2998.592,25,
1501,1,SBT2050,2,4,,4,32308,2.49999,-0.012878,2709.876,2998.757,25.1,
1501,1,SBT2050,2,4,,4,32353,2.50003,-0.012458,2709.876,2998.916,25,
1501,1,SBT2050,2,4,,4,32398,2.50004,-0.012169,2709.876,2999.069,25,
1501,1,SBT2050,2,4,,4,32443,2.499921,-0.011522,2709.876,2999.217,25,
1501,1,SBT2050,2,4,,4,32488,2.50011,-0.01107,2709.876,2999.359,25.1,
1501,1,SBT2050,2,4,,4,32533,2.50011,-0.010902,2709.876,2999.496,25.1,
1501,1,SBT2050,2,4,,4,32578,2.500076,-0.010427,2709.876,2999.628,25.1,
1501,1,SBT2050,2,4,,5,32622,2.51688,0,2709.876,2999.694,25.1,
1501,1,SBT2050,2,4,,5,32667,2.54021,0,2709.876,2999.694,25,
1501,1,SBT2050,2,4,,5,32712,2.559206,0,2709.876,2999.694,25,
1501,1,SBT2050,2,4,,5,32757,2.57611,0,2709.876,2999.694,25,
1501,1,SBT2050,2,4,,5,32802,2.591186,0,2709.876,2999.694,24.9,
1501,1,SBT2050,2,4,,5,32847,2.6048,0,2709.876,2999.694,24.9,
1501,1,SBT2050,2,4,,5,32892,2.616956,0,2709.876,2999.694,24.9,
1501,1,SBT2050,2,4,,5,32937,2.62835,0,2709.876,2999.694,24.8,
1501,1,SBT2050,2,4,,5,32982,2.63843,0,2709.876,2999.694,24.8,
1501,1,SBT2050,2,4,,5,33027,2.647467,0,2709.876,2999.694,24.9,
1501,1,SBT2050,2,4,,5,33072,2.65568,0,2709.876,2999.694,24.9,
1501,1,SBT2050,2,4,,5,33117,2.66336,0,2709.876,2999.694,25,
1501,1,SBT2050,2,4,,5,33162,2.67034,0,2709.876,2999.694,25,
1501,1,SBT2050,2,4,,5,33207,2.67691,0,2709.876,2999.694,25,
1501,1,SBT2050,2,4,,5,33252,2.68314,0,2709.876,2999.694,25,
1501,1,SBT2050,2,4,,5,33297,2.68869,0,2709.876,2999.694,25,
1501,1,SBT2050,2,4,,5,33342,2.693808,0,2709.876,2999.694,25,
1501,1,SBT2050,2,4,,5,33387,2.69906,0,2709.876,2999.694,25,
1501,1,SBT2050,2,4,,5,33432,2.70351,0,2709.876,2999.694,25,
1501,1,SBT2050,2,4,,5,33477,2.70797,0,2709.876,2999.694,25,
1501,1,SBT2050,2,4,,5,33522,2.71196,0,2709.876,2999.694,24.9,
1501,1,SBT2050,2,4,,5,33567,2.71618,0,2709.876,2999.694,25,
1501,1,SBT2050,2,4,,5,33612,2.72016,0,2709.876,2999.694,25,
1501,1,SBT2050,2,4,,5,33657,2.72375,0,2709.876,2999.694,25,
1501,1,SBT2050,2,4,,5,33702,2.72682,0,2709.876,2999.694,25,
1501,1,SBT2050,2,4,,5,33747,2.73029,0,2709.876,2999.694,25,
1501,1,SBT2050,2,4,,5,33792,2.733422,0,2709.876,2999.694,25,
1501,1,SBT2050,2,4,,5,33837,2.73649,0,2709.876,2999.694,25,
1501,1,SBT2050,2,4,,5,33882,2.7394,0,2709.876,2999.694,25,
1501,1,SBT2050,2,4,,5,33927,2.741853,0,2709.876,2999.694,25,
1501,1,SBT2050,2,4,,5,33972,2.74488,0,2709.876,2999.694,25,
1501,1,SBT2050,2,4,,5,34017,2.74709,0,2709.876,2999.694,25,
1501,1,SBT2050,2,4,,5,34062,2.749594,0,2709.876,2999.694,24.9,
1501,1,SBT2050,2,4,,5,34107,2.75206,0,2709.876,2999.694,24.9,
1501,1,SBT2050,2,4,,5,34152,2.75421,0,2709.876,2999.694,24.9,
1501,1,SBT2050,2,4,,5,34197,2.75682,0,2709.876,2999.694,25,
1501,1,SBT2050,2,4,,5,34242,2.75844,0,2709.876,2999.694,25,
1501,1,SBT2050,2,4,,5,34287,2.76042,0,2709.876,2999.694,25,
1501,1,SBT2050,2,4,,5,34332,2.76246,0,2709.876,2999.694,25,
1501,1,SBT2050,2,4,,5,34377,2.76453,0,2709.876,2999.694,25,
1501,1,SBT2050,2,4,,5,34400.861,2.76525,-0.000101,2709.876,2999.694,,