File: 1C/Test1443.csv
Request Year:,2018,,,,,,,,,,,,
Test:,1443,,,,,,,,,,,,
Test Description:,,,,,,,,,,,,,
TestRegime Name:,Aging_Performance,,,,,,,,,,,,
TestRegime Suffix:,SHP_LC,,,,,,,,,,,,
TestRegime CellSize:,18650,,,,,,,,,,,,
TestRegime Version:,1,,,,,,,,,,,,
Number Of Cells:,1,,,,,,,,,,,,
LotID:,,,,,,,,,,,,,
Lot Description:,,,,,,,,,,,,,
Date Made:,1/21/2003 12:00 AM,,,,,,,,,,,,
Origin:,Other,,,,,,,,,,,,
Requestor:,Admin,,,,,,,,,,,,
Product ID:,Default product,,,,,,,,,,,,
Storage Temp:,R.T./AMB,,,,,,,,,,,,
Storage Delay:,0 days,,,,,,,,,,,,
Test Temp:,R.T./AMB,,,,,,,,,,,,
Start Time:,4/4/2018 3:22 PM,,,,,,,,,,,,
End Time:,4/4/2018 11:18 PM,,,,,,,,,,,,
Operator Instructions:,,,,,,,,,,,,,
Test,Cell,Rack,Shelf,Position,Cell ID,Step,Total Time (Seconds),Voltage (V),Current (A),Charge Capacity (mAh),Discharge Capacity (mAh),TC1 (Â°C),
1443,1,SBT2050,2,4,,0,1,3.35099,0,0,0,25.1,
1443,1,SBT2050,2,4,,0,39,3.35096,0,0,0,25.1,
1443,1,SBT2050,2,4,,0,77,3.35075,0,0,0,25,
1443,1,SBT2050,2,4,,0,115,3.35072,0,0,0,25,
1443,1,SBT2050,2,4,,0,153,3.3508,0,0,0,25.1,
1443,1,SBT2050,2,4,,0,191,3.350691,0,0,0,25,
1443,1,SBT2050,2,4,,0,229,3.35066,0,0,0,25.1,
1443,1,SBT2050,2,4,,0,267,3.350718,0,0,0,25,
1443,1,SBT2050,2,4,,1,305,2.92031,-2.9362,0,4.076,25,
1443,1,SBT2050,2,4,,1,343,2.49943,-2.0178,0,32.133,26.2,
1443,1,SBT2050,2,4,,1,381,2.499646,-1.5945,0,50.792,27.2,
1443,1,SBT2050,2,4,,1,419,2.49984,-1.3903,0,66.487,27.9,
1443,1,SBT2050,2,4,,1,457,2.49978,-1.2436,0,80.358,28.4,
1443,1,SBT2050,2,4,,1,495,2.49982,-1.122,0,92.825,28.7,
1443,1,SBT2050,2,4,,1,533,2.49996,-1.0121,0,104.072,28.8,
1443,1,SBT2050,2,4,,1,571,2.49987,-0.9154,0,114.227,28.9,
1443,1,SBT2050,2,4,,1,609,2.49972,-0.8323,0,123.437,28.9,
1443,1,SBT2050,2,4,,1,647,2.4999,-0.76,0,131.83,28.8,
1443,1,SBT2050,2,4,,1,685,2.49987,-0.6947,0,139.5,28.7,
1443,1,SBT2050,2,4,,1,723,2.499944,-0.6368,0,146.523,28.6,
1443,1,SBT2050,2,4,,1,761,2.49984,-0.5846,0,152.965,28.5,
1443,1,SBT2050,2,4,,1,799,2.49985,-0.5378,0,158.883,28.3,
1443,1,SBT2050,2,4,,1,837,2.49998,-0.4948,0,164.329,28.2,
1443,1,SBT2050,2,4,,1,875,2.4999,-0.45599,0,169.345,28,
1443,1,SBT2050,2,4,,1,913,2.49988,-0.42246,0,173.978,27.8,
1443,1,SBT2050,2,4,,1,951,2.49986,-0.39215,0,178.272,27.7,
1443,1,SBT2050,2,4,,1,989,2.49996,-0.36479,0,182.263,27.5,
1443,1,SBT2050,2,4,,1,1027,2.49999,-0.34036,0,185.981,27.4,
1443,1,SBT2050,2,4,,1,1065,2.49998,-0.31783,0,189.451,27.2,
1443,1,SBT2050,2,4,,1,1103,2.4999,-0.29748,0,192.696,27.1,
1443,1,SBT2050,2,4,,1,1141,2.49971,-0.27889,0,195.737,26.9,
1443,1,SBT2050,2,4,,1,1179,2.49996,-0.26229,0,198.593,26.8,
1443,1,SBT2050,2,4,,1,1217,2.49988,-0.24724,0,201.283,26.7,
1443,1,SBT2050,2,4,,1,1255,2.49997,-0.23384,0,203.822,26.5,
1443,1,SBT2050,2,4,,1,1293,2.49996,-0.22114,0,206.223,26.5,
1443,1,SBT2050,2,4,,1,1331,2.50002,-0.2093,0,208.494,26.4,
1443,1,SBT2050,2,4,,1,1369,2.49999,-0.198,0,210.642,26.3,
1443,1,SBT2050,2,4,,1,1407,2.49978,-0.18784,0,212.678,26.2,
1443,1,SBT2050,2,4,,1,1445,2.49977,-0.17809,0,214.608,26.1,
1443,1,SBT2050,2,4,,1,1483,2.49988,-0.1692,0,216.44,26,
1443,1,SBT2050,2,4,,1,1521,2.49967,-0.16069,0,218.181,26,
1443,1,SBT2050,2,4,,1,1559,2.49974,-0.15287,0,219.837,25.9,
1443,1,SBT2050,2,4,,1,1597,2.50002,-0.14557,0,221.41,25.9,
1443,1,SBT2050,2,4,,1,1635,2.4999,-0.13823,0,222.906,25.8,
1443,1,SBT2050,2,4,,1,1673,2.49999,-0.13162,0,224.33,25.8,
1443,1,SBT2050,2,4,,1,1711,2.49999,-0.12544,0,225.685,25.7,
1443,1,SBT2050,2,4,,1,1749,2.4999,-0.1196,0,226.977,25.7,
1443,1,SBT2050,2,4,,1,1787,2.49997,-0.11396,0,228.209,25.7,
1443,1,SBT2050,2,4,,1,1825,2.49988,-0.10873,0,229.383,25.6,
1443,1,SBT2050,2,4,,1,1863,2.49985,-0.10366,0,230.503,25.6,
1443,1,SBT2050,2,4,,1,1901,2.49992,-0.0989,0,231.572,25.5,
1443,1,SBT2050,2,4,,1,1939,2.49992,-0.09426,0,232.591,25.5,
1443,1,SBT2050,2,4,,1,1977,2.49987,-0.08992,0,233.563,25.4,
1443,1,SBT2050,2,4,,1,2015,2.49991,-0.08569,0,234.491,25.4,
1443,1,SBT2050,2,4,,1,2053,2.49996,-0.08189,0,235.376,25.4,
1443,1,SBT2050,2,4,,1,2091,2.50003,-0.07812,0,236.221,25.3,
1443,1,SBT2050,2,4,,1,2129,2.49998,-0.07449,0,237.026,25.3,
1443,1,SBT2050,2,4,,1,2167,2.49999,-0.07073,0,237.792,25.3,
1443,1,SBT2050,2,4,,1,2205,2.49982,-0.06731,0,238.521,25.2,
1443,1,SBT2050,2,4,,1,2243,2.49997,-0.06382,0,239.213,25.2,
1443,1,SBT2050,2,4,,1,2281,2.50003,-0.06077,0,239.871,25.2,
1443,1,SBT2050,2,4,,1,2319,2.5,-0.05765,0,240.496,25.2,
1443,1,SBT2050,2,4,,1,2357,2.49985,-0.05473,0,241.089,25.2,
1443,1,SBT2050,2,4,,1,2395,2.4999,-0.05201,0,241.652,25.2,
1443,1,SBT2050,2,4,,1,2433,2.49986,-0.04919,0,242.186,25.2,
1443,1,SBT2050,2,4,,1,2471,2.49981,-0.046614,0,242.693,25.2,
1443,1,SBT2050,2,4,,1,2509,2.500075,-0.04438,0,243.174,25.1,
1443,1,SBT2050,2,4,,1,2547,2.50005,-0.04211,0,243.629,25.1,
1443,1,SBT2050,2,4,,1,2585,2.49978,-0.039742,0,244.061,25.2,
1443,1,SBT2050,2,4,,1,2623,2.49981,-0.03786,0,244.472,25.1,
1443,1,SBT2050,2,4,,1,2661,2.4999,-0.035915,0,244.861,25.1,
1443,1,SBT2050,2,4,,1,2699,2.4999,-0.034057,0,245.231,25.1,
1443,1,SBT2050,2,4,,1,2737,2.50011,-0.032218,0,245.581,25.1,
1443,1,SBT2050,2,4,,1,2775,2.49996,-0.030566,0,245.912,25.1,
1443,1,SBT2050,2,4,,1,2813,2.499944,-0.028883,0,246.227,25.1,
1443,1,SBT2050,2,4,,1,2851,2.50004,-0.027531,0,246.524,25.1,
1443,1,SBT2050,2,4,,1,2889,2.5,-0.025862,0,246.805,25,
1443,1,SBT2050,2,4,,1,2927,2.50003,-0.024441,0,247.071,25,
1443,1,SBT2050,2,4,,1,2965,2.49998,-0.023149,0,247.322,25,
1443,1,SBT2050,2,4,,1,3003,2.49998,-0.021852,0,247.559,25,
1443,1,SBT2050,2,4,,1,3041,2.500075,-0.020529,0,247.783,25,
1443,1,SBT2050,2,4,,1,3079,2.49997,-0.019413,0,247.994,25,
1443,1,SBT2050,2,4,,1,3117,2.49998,-0.018545,0,248.195,25,
1443,1,SBT2050,2,4,,1,3155,2.49992,-0.017574,0,248.384,25,
1443,1,SBT2050,2,4,,1,3193,2.49988,-0.016611,0,248.564,25,
1443,1,SBT2050,2,4,,1,3231,2.5,-0.015701,0,248.735,25,
1443,1,SBT2050,2,4,,1,3269,2.50011,-0.015147,0,248.898,24.9,
1443,1,SBT2050,2,4,,1,3307,2.49992,-0.014238,0,249.052,24.9,
1443,1,SBT2050,2,4,,1,3345,2.49986,-0.013616,0,249.2,25,
1443,1,SBT2050,2,4,,1,3383,2.500087,-0.013028,0,249.34,24.9,
1443,1,SBT2050,2,4,,1,3421,2.50003,-0.012509,0,249.475,24.9,
1443,1,SBT2050,2,4,,1,3459,2.50005,-0.011942,0,249.605,24.9,
1443,1,SBT2050,2,4,,1,3497,2.49988,-0.011496,0,249.729,25,
1443,1,SBT2050,2,4,,1,3535,2.49997,-0.011176,0,249.849,24.9,
1443,1,SBT2050,2,4,,1,3573,2.50002,-0.010831,0,249.964,24.9,
1443,1,SBT2050,2,4,,1,3611,2.500075,-0.010478,0,250.075,24.9,
1443,1,SBT2050,2,4,,2,3648,3.23436,2.9363,14.73,250.129,25,
1443,1,SBT2050,2,4,,2,3686,3.44007,2.9359,45.72,250.129,25.2,
1443,1,SBT2050,2,4,,2,3724,3.54803,2.9357,76.711,250.129,25.6,
1443,1,SBT2050,2,4,,2,3762,3.60746,2.9357,107.702,250.129,25.9,
1443,1,SBT2050,2,4,,2,3800,3.62591,2.9357,138.692,250.129,26.2,
1443,1,SBT2050,2,4,,2,3838,3.63602,2.9356,169.683,250.129,26.6,
1443,1,SBT2050,2,4,,2,3876,3.64647,2.9363,200.673,250.129,27,
1443,1,SBT2050,2,4,,2,3914,3.65674,2.9362,231.664,250.129,27.4,
1443,1,SBT2050,2,4,,2,3952,3.6669,2.936,262.654,250.129,27.6,
1443,1,SBT2050,2,4,,2,3990,3.676324,2.9362,293.645,250.129,27.9,
1443,1,SBT2050,2,4,,2,4028,3.68564,2.9358,324.635,250.129,28,
1443,1,SBT2050,2,4,,2,4066,3.69397,2.9363,355.626,250.129,28.2,
1443,1,SBT2050,2,4,,2,4104,3.701544,2.9361,386.616,250.129,28.3,
1443,1,SBT2050,2,4,,2,4142,3.70839,2.9359,417.607,250.129,28.5,
1443,1,SBT2050,2,4,,2,4180,3.7136,2.9359,448.598,250.129,28.5,
1443,1,SBT2050,2,4,,2,4218,3.71897,2.9363,479.588,250.129,28.7,
1443,1,SBT2050,2,4,,2,4256,3.7243,2.9362,510.579,250.129,28.7,
1443,1,SBT2050,2,4,,2,4294,3.73026,2.9358,541.569,250.129,28.7,
1443,1,SBT2050,2,4,,2,4332,3.73599,2.9358,572.56,250.129,28.7,
1443,1,SBT2050,2,4,,2,4370,3.74178,2.9359,603.55,250.129,28.7,
1443,1,SBT2050,2,4,,2,4408,3.74783,2.9356,634.541,250.129,28.7,
1443,1,SBT2050,2,4,,2,4446,3.75449,2.9359,665.531,250.129,28.7,
1443,1,SBT2050,2,4,,2,4484,3.76098,2.9361,696.522,250.129,28.8,
1443,1,SBT2050,2,4,,2,4522,3.76761,2.9359,727.512,250.129,28.7,
1443,1,SBT2050,2,4,,2,4560,3.77423,2.9359,758.503,250.129,28.7,
1443,1,SBT2050,2,4,,2,4598,3.78068,2.9358,789.493,250.129,28.7,
1443,1,SBT2050,2,4,,2,4636,3.787604,2.9362,820.484,250.129,28.7,
1443,1,SBT2050,2,4,,2,4674,3.7943,2.9359,851.474,250.129,28.7,
1443,1,SBT2050,2,4,,2,4712,3.80147,2.9357,882.465,250.129,28.6,
1443,1,SBT2050,2,4,,2,4750,3.80825,2.9356,913.455,250.129,28.7,
1443,1,SBT2050,2,4,,2,4788,3.81602,2.9362,944.446,250.129,28.6,
1443,1,SBT2050,2,4,,2,4826,3.82344,2.9354,975.436,250.129,28.7,
1443,1,SBT2050,2,4,,2,4864,3.83138,2.9357,1006.427,250.129,28.7,
1443,1,SBT2050,2,4,,2,4902,3.83951,2.936,1037.418,250.129,28.7,
1443,1,SBT2050,2,4,,2,4940,3.84822,2.9356,1068.408,250.129,28.7,
1443,1,SBT2050,2,4,,2,4978,3.85662,2.9358,1099.399,250.129,28.7,
1443,1,SBT2050,2,4,,2,5016,3.86548,2.9359,1130.389,250.129,28.7,
1443,1,SBT2050,2,4,,2,5054,3.87445,2.936,1161.38,250.129,28.7,
1443,1,SBT2050,2,4,,2,5092,3.88465,2.9359,1192.37,250.129,28.8,
1443,1,SBT2050,2,4,,2,5130,3.89408,2.9362,1223.361,250.129,28.8,
1443,1,SBT2050,2,4,,2,5168,3.90425,2.9357,1254.351,250.129,28.8,
1443,1,SBT2050,2,4,,2,5206,3.91462,2.9362,1285.342,250.129,28.9,
1443,1,SBT2050,2,4,,2,5244,3.92477,2.9364,1316.332,250.129,28.9,
1443,1,SBT2050,2,4,,2,5282,3.93549,2.9362,1347.323,250.129,29,
1443,1,SBT2050,2,4,,2,5320,3.94614,2.9356,1378.313,250.129,29,
1443,1,SBT2050,2,4,,2,5358,3.9571,2.9357,1409.304,250.129,29,
1443,1,SBT2050,2,4,,2,5396,3.96786,2.9357,1440.294,250.129,29.1,
1443,1,SBT2050,2,4,,2,5434,3.97884,2.9359,1471.285,250.129,29.1,
1443,1,SBT2050,2,4,,2,5472,3.98985,2.9358,1502.275,250.129,29.2,
1443,1,SBT2050,2,4,,2,5510,4.00103,2.9361,1533.266,250.129,29.2,
1443,1,SBT2050,2,4,,2,5548,4.012,2.9361,1564.256,250.129,29.2,
1443,1,SBT2050,2,4,,2,5586,4.023562,2.9361,1595.246,250.129,29.2,
1443,1,SBT2050,2,4,,2,5624,4.03439,2.9357,1626.237,250.129,29.2,
1443,1,SBT2050,2,4,,2,5662,4.04563,2.9356,1657.227,250.129,29.3,
1443,1,SBT2050,2,4,,2,5700,4.05693,2.9357,1688.218,250.129,29.3,
1443,1,SBT2050,2,4,,2,5738,4.068224,2.9363,1719.208,250.129,29.4,
1443,1,SBT2050,2,4,,2,5776,4.07966,2.9359,1750.199,250.129,29.3,
1443,1,SBT2050,2,4,,2,5814,4.09104,2.9357,1781.189,250.129,29.4,
1443,1,SBT2050,2,4,,2,5852,4.10258,2.9363,1812.18,250.129,29.4,
1443,1,SBT2050,2,4,,2,5890,4.11395,2.9362,1843.171,250.129,29.4,
1443,1,SBT2050,2,4,,2,5928,4.12577,2.9363,1874.161,250.129,29.5,
1443,1,SBT2050,2,4,,2,5966,4.137172,2.9358,1905.152,250.129,29.5,
1443,1,SBT2050,2,4,,2,6004,4.14924,2.9359,1936.142,250.129,29.5,
1443,1,SBT2050,2,4,,2,6042,4.15016,2.7513,1966.143,250.129,29.6,
1443,1,SBT2050,2,4,,2,6080,4.14988,2.6013,1994.362,250.129,29.5,
1443,1,SBT2050,2,4,,2,6118,4.15013,2.464,2021.084,250.129,29.4,
1443,1,SBT2050,2,4,,2,6156,4.15002,2.3337,2046.402,250.129,29.4,
1443,1,SBT2050,2,4,,2,6194,4.149944,2.2102,2070.38,250.129,29.2,
1443,1,SBT2050,2,4,,2,6232,4.15003,2.0922,2093.087,250.129,29.1,
1443,1,SBT2050,2,4,,2,6270,4.15005,1.9817,2114.582,250.129,28.9,
1443,1,SBT2050,2,4,,2,6308,4.1501,1.8747,2134.925,250.129,28.8,
1443,1,SBT2050,2,4,,2,6346,4.1503,1.7762,2154.194,250.129,28.6,
1443,1,SBT2050,2,4,,2,6384,4.150218,1.686,2172.449,250.129,28.4,
1443,1,SBT2050,2,4,,2,6422,4.15029,1.5974,2189.767,250.129,28.3,
1443,1,SBT2050,2,4,,2,6460,4.15036,1.5167,2206.201,250.129,28.1,
1443,1,SBT2050,2,4,,2,6498,4.15,1.4412,2221.809,250.129,27.9,
1443,1,SBT2050,2,4,,2,6536,4.15019,1.3726,2236.648,250.129,27.7,
1443,1,SBT2050,2,4,,2,6574,4.15004,1.3033,2250.764,250.129,27.6,
1443,1,SBT2050,2,4,,2,6612,4.14998,1.2432,2264.209,250.129,27.4,
1443,1,SBT2050,2,4,,2,6650,4.15002,1.1872,2277.029,250.129,27.3,
1443,1,SBT2050,2,4,,2,6688,4.15006,1.1338,2289.272,250.129,27.2,
1443,1,SBT2050,2,4,,2,6726,4.149932,1.0845,2300.971,250.129,27.1,
1443,1,SBT2050,2,4,,2,6764,4.14999,1.0385,2312.165,250.129,26.9,
1443,1,SBT2050,2,4,,2,6802,4.15003,0.9931,2322.882,250.129,26.8,
1443,1,SBT2050,2,4,,2,6840,4.1501,0.9524,2333.15,250.129,26.7,
1443,1,SBT2050,2,4,,2,6878,4.15019,0.9133,2343.001,250.129,26.6,
1443,1,SBT2050,2,4,,2,6916,4.15016,0.8775,2352.457,250.129,26.5,
1443,1,SBT2050,2,4,,2,6954,4.15013,0.8449,2361.551,250.129,26.4,
1443,1,SBT2050,2,4,,2,6992,4.1501,0.8103,2370.279,250.129,26.4,
1443,1,SBT2050,2,4,,2,7030,4.14991,0.7823,2378.685,250.129,26.3,
1443,1,SBT2050,2,4,,2,7068,4.15011,0.7537,2386.785,250.129,26.2,
1443,1,SBT2050,2,4,,2,7106,4.14991,0.7252,2394.587,250.129,26.2,
1443,1,SBT2050,2,4,,2,7144,4.15016,0.7006,2402.11,250.129,26.1,
1443,1,SBT2050,2,4,,2,7182,4.15002,0.6773,2409.372,250.129,26.1,
1443,1,SBT2050,2,4,,2,7220,4.149956,0.6526,2416.382,250.129,26,
1443,1,SBT2050,2,4,,2,7258,4.15018,0.6306,2423.151,250.129,26,
1443,1,SBT2050,2,4,,2,7296,4.150206,0.6102,2429.699,250.129,25.9,
1443,1,SBT2050,2,4,,2,7334,4.15003,0.5889,2436.032,250.129,25.9,
1443,1,SBT2050,2,4,,2,7372,4.15,0.5698,2442.151,250.129,25.8,
1443,1,SBT2050,2,4,,2,7410,4.1501,0.5526,2448.076,250.129,25.8,
1443,1,SBT2050,2,4,,2,7448,4.15003,0.5358,2453.816,250.129,25.7,
1443,1,SBT2050,2,4,,2,7486,4.15004,0.5202,2459.378,250.129,25.7,
1443,1,SBT2050,2,4,,2,7524,4.1501,0.5034,2464.771,250.129,25.6,
1443,1,SBT2050,2,4,,2,7562,4.15005,0.4891,2470.002,250.129,25.6,
1443,1,SBT2050,2,4,,2,7600,4.14998,0.47497,2475.083,250.129,25.6,
1443,1,SBT2050,2,4,,2,7638,4.15006,0.46077,2480.019,250.129,25.5,
1443,1,SBT2050,2,4,,2,7676,4.1499,0.44712,2484.808,250.129,25.5,
1443,1,SBT2050,2,4,,2,7714,4.15019,0.43559,2489.459,250.129,25.5,
1443,1,SBT2050,2,4,,2,7752,4.149932,0.4224,2493.994,250.129,25.5,
1443,1,SBT2050,2,4,,2,7790,4.15016,0.41153,2498.395,250.129,25.4,
1443,1,SBT2050,2,4,,2,7828,4.15002,0.40036,2502.68,250.129,25.4,
1443,1,SBT2050,2,4,,2,7866,4.15013,0.39048,2506.854,250.129,25.4,
1443,1,SBT2050,2,4,,2,7904,4.1501,0.37942,2510.917,250.129,25.4,
1443,1,SBT2050,2,4,,2,7942,4.15005,0.37081,2514.877,250.129,25.4,
1443,1,SBT2050,2,4,,2,7980,4.149968,0.36111,2518.736,250.129,25.4,
1443,1,SBT2050,2,4,,2,8018,4.14999,0.35258,2522.504,250.129,25.4,
1443,1,SBT2050,2,4,,2,8056,4.14991,0.34469,2526.184,250.129,25.3,
1443,1,SBT2050,2,4,,2,8094,4.14988,0.33444,2529.762,250.129,25.3,
1443,1,SBT2050,2,4,,2,8132,4.15006,0.32647,2533.251,250.129,25.3,
1443,1,SBT2050,2,4,,2,8170,4.14998,0.32031,2536.665,250.129,25.3,
1443,1,SBT2050,2,4,,2,8208,4.15025,0.31248,2540.003,250.129,25.3,
1443,1,SBT2050,2,4,,2,8246,4.149944,0.30473,2543.254,250.129,25.2,
1443,1,SBT2050,2,4,,2,8284,4.14991,0.29704,2546.428,250.129,25.3,
1443,1,SBT2050,2,4,,2,8322,4.15006,0.2916,2549.538,250.129,25.3,
1443,1,SBT2050,2,4,,2,8360,4.150206,0.28475,2552.577,250.129,25.3,
1443,1,SBT2050,2,4,,2,8398,4.14988,0.27921,2555.555,250.129,25.2,
1443,1,SBT2050,2,4,,2,8436,4.15006,0.27312,2558.465,250.129,25.2,
1443,1,SBT2050,2,4,,2,8474,4.14977,0.2664,2561.314,250.129,25.2,
1443,1,SBT2050,2,4,,2,8512,4.15011,0.26167,2564.104,250.129,25.2,
1443,1,SBT2050,2,4,,2,8550,4.15015,0.25614,2566.838,250.129,25.2,
1443,1,SBT2050,2,4,,2,8588,4.149968,0.25068,2569.511,250.129,25.1,
1443,1,SBT2050,2,4,,2,8626,4.15005,0.24633,2572.133,250.129,25.2,
1443,1,SBT2050,2,4,,2,8664,4.149968,0.24154,2574.701,250.129,25.2,
1443,1,SBT2050,2,4,,2,8702,4.15018,0.23687,2577.226,250.129,25.2,
1443,1,SBT2050,2,4,,2,8740,4.15004,0.2316,2579.697,250.129,25.1,
1443,1,SBT2050,2,4,,2,8778,4.15006,0.22697,2582.122,250.129,25.1,
1443,1,SBT2050,2,4,,2,8816,4.15035,0.22273,2584.499,250.129,25.1,
1443,1,SBT2050,2,4,,2,8854,4.15019,0.21957,2586.837,250.129,25.1,
1443,1,SBT2050,2,4,,2,8892,4.15008,0.2149,2589.133,250.129,25.2,
1443,1,SBT2050,2,4,,2,8930,4.14979,0.21119,2591.382,250.129,25.1,
1443,1,SBT2050,2,4,,2,8968,4.15012,0.20634,2593.592,250.129,25.2,
1443,1,SBT2050,2,4,,2,9006,4.15016,0.20538,2595.764,250.129,25.1,
1443,1,SBT2050,2,4,,2,9044,4.15009,0.19993,2597.901,250.129,25.1,
1443,1,SBT2050,2,4,,2,9082,4.15004,0.19712,2599.996,250.129,25.1,
1443,1,SBT2050,2,4,,2,9120,4.14999,0.19335,2602.054,250.129,25.1,
1443,1,SBT2050,2,4,,2,9158,4.150242,0.18966,2604.077,250.129,25.1,
1443,1,SBT2050,2,4,,2,9196,4.15015,0.18663,2606.061,250.129,25.1,
1443,1,SBT2050,2,4,,2,9234,4.15003,0.18333,2608.013,250.129,25.1,
1443,1,SBT2050,2,4,,2,9272,4.15012,0.17967,2609.927,250.129,25,
1443,1,SBT2050,2,4,,2,9310,4.15011,0.17719,2611.811,250.129,25.1,
1443,1,SBT2050,2,4,,2,9348,4.15,0.17441,2613.666,250.129,25.1,
1443,1,SBT2050,2,4,,2,9386,4.15009,0.17088,2615.487,250.129,25.1,
1443,1,SBT2050,2,4,,2,9424,4.15012,0.1683,2617.278,250.129,25,
1443,1,SBT2050,2,4,,2,9462,4.149956,0.1667,2619.049,250.129,25,
1443,1,SBT2050,2,4,,2,9500,4.15012,0.16266,2620.784,250.129,25.1,
1443,1,SBT2050,2,4,,2,9538,4.15,0.15962,2622.486,250.129,25,
1443,1,SBT2050,2,4,,2,9576,4.14992,0.15839,2624.165,250.129,25,
1443,1,SBT2050,2,4,,2,9614,4.15016,0.15457,2625.812,250.129,25,
1443,1,SBT2050,2,4,,2,9652,4.15005,0.15244,2627.433,250.129,25,
1443,1,SBT2050,2,4,,2,9690,4.15005,0.14956,2629.028,250.129,25,
1443,1,SBT2050,2,4,,2,9728,4.15005,0.14761,2630.598,250.129,25,
1443,1,SBT2050,2,4,,2,9766,4.15037,0.14591,2632.152,250.129,25,
1443,1,SBT2050,2,4,,2,9804,4.150218,0.14226,2633.674,250.129,25,
1443,1,SBT2050,2,4,,2,9842,4.14999,0.14054,2635.168,250.129,25.1,
1443,1,SBT2050,2,4,,2,9880,4.15016,0.1386,2636.642,250.129,25.1,
1443,1,SBT2050,2,4,,2,9918,4.15008,0.136,2638.092,250.129,25.1,
1443,1,SBT2050,2,4,,2,9956,4.1499,0.13381,2639.515,250.129,25.1,
1443,1,SBT2050,2,4,,2,9994,4.149968,0.1319,2640.918,250.129,25.1,
1443,1,SBT2050,2,4,,2,10032,4.149932,0.13086,2642.306,250.129,25,
1443,1,SBT2050,2,4,,2,10070,4.150206,0.12755,2643.668,250.129,25.1,
1443,1,SBT2050,2,4,,2,10108,4.149956,0.12566,2645.005,250.129,25,
1443,1,SBT2050,2,4,,2,10146,4.15,0.12391,2646.322,250.129,25,
1443,1,SBT2050,2,4,,2,10184,4.149932,0.12258,2647.618,250.129,25,
1443,1,SBT2050,2,4,,2,10222,4.149956,0.12058,2648.899,250.129,25,
1443,1,SBT2050,2,4,,2,10260,4.14992,0.11889,2650.163,250.129,25,
1443,1,SBT2050,2,4,,2,10298,4.15009,0.11686,2651.41,250.129,25,
1443,1,SBT2050,2,4,,2,10336,4.15012,0.11463,2652.629,250.129,25,
1443,1,SBT2050,2,4,,2,10374,4.15018,0.11294,2653.832,250.129,24.9,
1443,1,SBT2050,2,4,,2,10412,4.14977,0.11071,2655.017,250.129,24.9,
1443,1,SBT2050,2,4,,2,10450,4.14992,0.1096,2656.177,250.129,25,
1443,1,SBT2050,2,4,,2,10488,4.15018,0.10833,2657.327,250.129,25,
1443,1,SBT2050,2,4,,2,10526,4.1499,0.10648,2658.46,250.129,24.9,
1443,1,SBT2050,2,4,,2,10564,4.15031,0.10487,2659.575,250.129,25,
1443,1,SBT2050,2,4,,2,10602,4.14975,0.10363,2660.677,250.129,25,
1443,1,SBT2050,2,4,,2,10640,4.149944,0.10208,2661.761,250.129,24.9,
1443,1,SBT2050,2,4,,2,10678,4.15002,0.10094,2662.833,250.129,25,
1443,1,SBT2050,2,4,,2,10716,4.15017,0.09978,2663.89,250.129,25,
1443,1,SBT2050,2,4,,2,10754,4.15008,0.09852,2664.938,250.129,25,
1443,1,SBT2050,2,4,,2,10792,4.14991,0.09638,2665.965,250.129,25,
1443,1,SBT2050,2,4,,2,10830,4.15009,0.09447,2666.974,250.129,25,
1443,1,SBT2050,2,4,,2,10868,4.149956,0.09423,2667.973,250.129,25,
1443,1,SBT2050,2,4,,2,10906,4.14984,0.09185,2668.951,250.129,25,
1443,1,SBT2050,2,4,,2,10944,4.15005,0.09112,2669.914,250.129,25,
1443,1,SBT2050,2,4,,2,10982,4.14998,0.08953,2670.866,250.129,25,
1443,1,SBT2050,2,4,,2,11020,4.14979,0.08866,2671.805,250.129,25,
1443,1,SBT2050,2,4,,2,11058,4.15,0.08712,2672.736,250.129,25,
1443,1,SBT2050,2,4,,2,11096,4.14998,0.08622,2673.65,250.129,25,
1443,1,SBT2050,2,4,,2,11134,4.14998,0.085,2674.554,250.129,25,
1443,1,SBT2050,2,4,,2,11172,4.14985,0.08339,2675.44,250.129,25,
1443,1,SBT2050,2,4,,2,11210,4.15017,0.08187,2676.317,250.129,25,
1443,1,SBT2050,2,4,,2,11248,4.15019,0.08072,2677.179,250.129,25,
1443,1,SBT2050,2,4,,2,11286,4.15027,0.07993,2678.028,250.129,25.1,
1443,1,SBT2050,2,4,,2,11324,4.149968,0.07984,2678.872,250.129,25,
1443,1,SBT2050,2,4,,2,11362,4.15012,0.07755,2679.704,250.129,25,
1443,1,SBT2050,2,4,,2,11400,4.149968,0.07652,2680.518,250.129,25,
1443,1,SBT2050,2,4,,2,11438,4.14975,0.07599,2681.322,250.129,25,
1443,1,SBT2050,2,4,,2,11476,4.14991,0.07535,2682.115,250.129,25,
1443,1,SBT2050,2,4,,2,11514,4.149944,0.07405,2682.903,250.129,25,
1443,1,SBT2050,2,4,,2,11552,4.15016,0.07238,2683.677,250.129,25.1,
1443,1,SBT2050,2,4,,2,11590,4.150218,0.07135,2684.439,250.129,25.1,
1443,1,SBT2050,2,4,,2,11628,4.15002,0.07011,2685.187,250.129,25.1,
1443,1,SBT2050,2,4,,2,11666,4.149968,0.06964,2685.927,250.129,25.1,
1443,1,SBT2050,2,4,,2,11704,4.15002,0.06961,2686.663,250.129,25.1,
1443,1,SBT2050,2,4,,2,11742,4.15008,0.06782,2687.391,250.129,25,
1443,1,SBT2050,2,4,,2,11780,4.14986,0.06738,2688.102,250.129,25,
1443,1,SBT2050,2,4,,2,11818,4.149968,0.06677,2688.813,250.129,25.1,
1443,1,SBT2050,2,4,,2,11856,4.150206,0.06435,2689.503,250.129,25.1,
1443,1,SBT2050,2,4,,2,11894,4.14988,0.06389,2690.183,250.129,25.1,
1443,1,SBT2050,2,4,,2,11932,4.15005,0.06304,2690.853,250.129,25,
1443,1,SBT2050,2,4,,2,11970,4.1498,0.06263,2691.514,250.129,25,
1443,1,SBT2050,2,4,,2,12008,4.15,0.06154,2692.169,250.129,25,
1443,1,SBT2050,2,4,,2,12046,4.14982,0.06126,2692.814,250.129,25,
1443,1,SBT2050,2,4,,2,12084,4.149968,0.05972,2693.453,250.129,25,
1443,1,SBT2050,2,4,,2,12122,4.15003,0.05818,2694.074,250.129,25,
1443,1,SBT2050,2,4,,2,12160,4.15005,0.058,2694.688,250.129,25,
1443,1,SBT2050,2,4,,2,12198,4.15006,0.05728,2695.296,250.129,25,
1443,1,SBT2050,2,4,,2,12236,4.15012,0.05621,2695.9,250.129,24.9,
1443,1,SBT2050,2,4,,2,12274,4.15009,0.05636,2696.495,250.129,24.9,
1443,1,SBT2050,2,4,,2,12312,4.149968,0.05525,2697.079,250.129,24.9,
1443,1,SBT2050,2,4,,2,12350,4.15004,0.05402,2697.654,250.129,24.9,
1443,1,SBT2050,2,4,,2,12388,4.15018,0.05354,2698.221,250.129,24.9,
1443,1,SBT2050,2,4,,2,12426,4.15002,0.05327,2698.784,250.129,24.9,
1443,1,SBT2050,2,4,,2,12464,4.1503,0.05217,2699.342,250.129,24.9,
1443,1,SBT2050,2,4,,2,12502,4.15017,0.05164,2699.889,250.129,25,
1443,1,SBT2050,2,4,,2,12540,4.14999,0.05125,2700.433,250.129,24.9,
1443,1,SBT2050,2,4,,2,12578,4.149944,0.05042,2700.968,250.129,25,
1443,1,SBT2050,2,4,,2,12616,4.15004,0.05042,2701.502,250.129,24.9,
1443,1,SBT2050,2,4,,2,12654,4.15004,0.04876,2702.028,250.129,25,
1443,1,SBT2050,2,4,,2,12692,4.15016,0.04847,2702.544,250.129,24.9,
1443,1,SBT2050,2,4,,2,12730,4.149956,0.04808,2703.053,250.129,25,
1443,1,SBT2050,2,4,,2,12768,4.14998,0.047268,2703.557,250.129,25,
1443,1,SBT2050,2,4,,2,12806,4.15023,0.046426,2704.053,250.129,24.9,
1443,1,SBT2050,2,4,,2,12844,4.15008,0.045898,2704.539,250.129,24.9,
1443,1,SBT2050,2,4,,2,12882,4.15016,0.044895,2705.019,250.129,24.9,
1443,1,SBT2050,2,4,,2,12920,4.14999,0.045053,2705.496,250.129,24.9,
1443,1,SBT2050,2,4,,2,12958,4.14999,0.044544,2705.967,250.129,24.9,
1443,1,SBT2050,2,4,,2,12996,4.14998,0.043872,2706.432,250.129,24.9,
1443,1,SBT2050,2,4,,2,13034,4.14991,0.043518,2706.893,250.129,24.9,
1443,1,SBT2050,2,4,,2,13072,4.150242,0.042224,2707.345,250.129,24.9,
1443,1,SBT2050,2,4,,2,13110,4.149944,0.042505,2707.792,250.129,24.9,
1443,1,SBT2050,2,4,,2,13148,4.15005,0.04159,2708.233,250.129,25,
1443,1,SBT2050,2,4,,2,13186,4.15023,0.041492,2708.671,250.129,25,
1443,1,SBT2050,2,4,,2,13224,4.15002,0.040745,2709.104,250.129,25,
1443,1,SBT2050,2,4,,2,13262,4.14991,0.040501,2709.534,250.129,25,
1443,1,SBT2050,2,4,,2,13300,4.14999,0.039512,2709.957,250.129,25,
1443,1,SBT2050,2,4,,2,13338,4.1501,0.03911,2710.371,250.129,25,
1443,1,SBT2050,2,4,,2,13376,4.15004,0.03874,2710.782,250.129,25,
1443,1,SBT2050,2,4,,2,13414,4.15029,0.038133,2711.188,250.129,25,
1443,1,SBT2050,2,4,,2,13452,4.14998,0.037971,2711.591,250.129,25,
1443,1,SBT2050,2,4,,2,13490,4.14979,0.03739,2711.987,250.129,25,
1443,1,SBT2050,2,4,,2,13528,4.14992,0.037099,2712.381,250.129,25,
1443,1,SBT2050,2,4,,2,13566,4.15002,0.036541,2712.769,250.129,25,
1443,1,SBT2050,2,4,,2,13604,4.15004,0.035975,2713.152,250.129,25,
1443,1,SBT2050,2,4,,2,13642,4.15002,0.0358,2713.531,250.129,25,
1443,1,SBT2050,2,4,,2,13680,4.15016,0.034717,2713.907,250.129,25,
1443,1,SBT2050,2,4,,2,13718,4.1501,0.034576,2714.277,250.129,25,
1443,1,SBT2050,2,4,,2,13756,4.1501,0.034011,2714.64,250.129,25,
1443,1,SBT2050,2,4,,2,13794,4.14986,0.034557,2715.003,250.129,25,
1443,1,SBT2050,2,4,,2,13832,4.149944,0.03408,2715.366,250.129,25,
1443,1,SBT2050,2,4,,2,13870,4.14998,0.03351,2715.721,250.129,24.9,
1443,1,SBT2050,2,4,,2,13908,4.15009,0.03299,2716.071,250.129,24.9,
1443,1,SBT2050,2,4,,2,13946,4.14991,0.032237,2716.417,250.129,24.9,
1443,1,SBT2050,2,4,,2,13984,4.149944,0.032092,2716.758,250.129,24.9,
1443,1,SBT2050,2,4,,2,14022,4.15013,0.030865,2717.091,250.129,24.9,
1443,1,SBT2050,2,4,,2,14060,4.15017,0.031154,2717.419,250.129,24.9,
1443,1,SBT2050,2,4,,2,14098,4.15003,0.031305,2717.747,250.129,24.9,
1443,1,SBT2050,2,4,,2,14136,4.15003,0.030555,2718.072,250.129,24.9,
1443,1,SBT2050,2,4,,2,14174,4.15009,0.030058,2718.396,250.129,24.9,
1443,1,SBT2050,2,4,,2,14212,4.149956,0.030231,2718.713,250.129,24.9,
1443,1,SBT2050,2,4,,2,14250,4.15006,0.029671,2719.027,250.129,24.9,
1443,1,SBT2050,2,4,,2,14288,4.1498,0.028963,2719.336,250.129,24.9,
1443,1,SBT2050,2,4,,2,14326,4.15003,0.028765,2719.641,250.129,24.9,
1443,1,SBT2050,2,4,,2,14364,4.15006,0.028505,2719.944,250.129,24.9,
1443,1,SBT2050,2,4,,2,14402,4.15015,0.028345,2720.244,250.129,24.9,
1443,1,SBT2050,2,4,,2,14440,4.15003,0.027553,2720.543,250.129,24.9,
1443,1,SBT2050,2,4,,2,14478,4.149968,0.029043,2720.839,250.129,24.9,
1443,1,SBT2050,2,4,,2,14516,4.15023,0.027299,2721.134,250.129,24.9,
1443,1,SBT2050,2,4,,2,14554,4.1501,0.027769,2721.423,250.129,24.9,
1443,1,SBT2050,2,4,,2,14592,4.149968,0.026361,2721.707,250.129,24.9,
1443,1,SBT2050,2,4,,2,14630,4.15006,0.026389,2721.988,250.129,24.9,
1443,1,SBT2050,2,4,,2,14668,4.15002,0.026187,2722.265,250.129,24.9,
1443,1,SBT2050,2,4,,2,14706,4.149968,0.025847,2722.542,250.129,24.9,
1443,1,SBT2050,2,4,,2,14744,4.15002,0.025988,2722.815,250.129,24.9,
1443,1,SBT2050,2,4,,2,14782,4.149944,0.02578,2723.09,250.129,24.9,
1443,1,SBT2050,2,4,,2,14820,4.15018,0.025571,2723.359,250.129,24.9,
1443,1,SBT2050,2,4,,2,14858,4.1501,0.025899,2723.628,250.129,24.9,
1443,1,SBT2050,2,4,,2,14896,4.14987,0.024564,2723.897,250.129,24.9,
1443,1,SBT2050,2,4,,2,14934,4.15006,0.024591,2724.155,250.129,24.9,
1443,1,SBT2050,2,4,,2,14972,4.15006,0.024092,2724.416,250.129,24.9,
1443,1,SBT2050,2,4,,2,15010,4.15015,0.0244,2724.668,250.129,24.9,
1443,1,SBT2050,2,4,,2,15048,4.14992,0.023802,2724.922,250.129,24.9,
1443,1,SBT2050,2,4,,2,15086,4.150242,0.023323,2725.174,250.129,24.9,
1443,1,SBT2050,2,4,,2,15124,4.15009,0.023214,2725.419,250.129,24.9,
1443,1,SBT2050,2,4,,2,15162,4.15028,0.022706,2725.665,250.129,24.9,
1443,1,SBT2050,2,4,,2,15200,4.15013,0.02256,2725.903,250.129,24.9,
1443,1,SBT2050,2,4,,2,15238,4.15012,0.022624,2726.143,250.129,24.9,
1443,1,SBT2050,2,4,,2,15276,4.14974,0.023114,2726.382,250.129,25,
1443,1,SBT2050,2,4,,2,15314,4.14987,0.022,2726.616,250.129,25,
1443,1,SBT2050,2,4,,2,15352,4.15002,0.021924,2726.849,250.129,24.9,
1443,1,SBT2050,2,4,,2,15390,4.150206,0.021372,2727.079,250.129,24.9,
1443,1,SBT2050,2,4,,2,15428,4.15003,0.021694,2727.308,250.129,25,
1443,1,SBT2050,2,4,,2,15466,4.14991,0.021064,2727.535,250.129,24.9,
1443,1,SBT2050,2,4,,2,15504,4.15015,0.021292,2727.758,250.129,24.9,
1443,1,SBT2050,2,4,,2,15542,4.14984,0.020714,2727.98,250.129,24.9,
1443,1,SBT2050,2,4,,2,15580,4.149956,0.020591,2728.198,250.129,24.9,
1443,1,SBT2050,2,4,,2,15618,4.15012,0.020314,2728.414,250.129,24.9,
1443,1,SBT2050,2,4,,2,15656,4.15,0.020021,2728.627,250.129,24.9,
1443,1,SBT2050,2,4,,2,15694,4.149968,0.019852,2728.837,250.129,24.9,
1443,1,SBT2050,2,4,,2,15732,4.15005,0.019346,2729.048,250.129,24.9,
1443,1,SBT2050,2,4,,2,15770,4.1499,0.019391,2729.253,250.129,24.9,
1443,1,SBT2050,2,4,,2,15808,4.15008,0.019749,2729.463,250.129,24.9,
1443,1,SBT2050,2,4,,2,15846,4.15008,0.019576,2729.671,250.129,24.9,
1443,1,SBT2050,2,4,,2,15884,4.15025,0.018709,2729.871,250.129,24.9,
1443,1,SBT2050,2,4,,2,15922,4.15,0.018633,2730.07,250.129,24.9,
1443,1,SBT2050,2,4,,2,15960,4.14988,0.018421,2730.266,250.129,24.9,
1443,1,SBT2050,2,4,,2,15998,4.15003,0.018924,2730.464,250.129,24.9,
1443,1,SBT2050,2,4,,2,16036,4.14984,0.018551,2730.66,250.129,24.9,
1443,1,SBT2050,2,4,,2,16074,4.15,0.018073,2730.851,250.129,24.8,
1443,1,SBT2050,2,4,,2,16112,4.15004,0.017996,2731.041,250.129,24.9,
1443,1,SBT2050,2,4,,2,16150,4.14999,0.017882,2731.229,250.129,24.9,
1443,1,SBT2050,2,4,,2,16188,4.14998,0.017139,2731.416,250.129,24.9,
1443,1,SBT2050,2,4,,2,16226,4.149932,0.017533,2731.601,250.129,24.9,
1443,1,SBT2050,2,4,,2,16264,4.15016,0.016503,2731.781,250.129,24.9,
1443,1,SBT2050,2,4,,2,16302,4.15003,0.017209,2731.96,250.129,24.9,
1443,1,SBT2050,2,4,,2,16340,4.15013,0.016751,2732.14,250.129,24.9,
1443,1,SBT2050,2,4,,2,16378,4.150242,0.016283,2732.316,250.129,24.9,
1443,1,SBT2050,2,4,,2,16416,4.14991,0.016772,2732.491,250.129,24.9,
1443,1,SBT2050,2,4,,2,16454,4.14992,0.016655,2732.665,250.129,24.9,
1443,1,SBT2050,2,4,,2,16492,4.14991,0.016955,2732.842,250.129,24.9,
1443,1,SBT2050,2,4,,2,16530,4.14992,0.01623,2733.012,250.129,24.9,
1443,1,SBT2050,2,4,,2,16568,4.14988,0.016242,2733.18,250.129,24.9,
1443,1,SBT2050,2,4,,2,16606,4.14991,0.015938,2733.349,250.129,24.9,
1443,1,SBT2050,2,4,,2,16644,4.149968,0.015719,2733.516,250.129,24.9,
1443,1,SBT2050,2,4,,2,16682,4.14975,0.015822,2733.683,250.129,24.9,
1443,1,SBT2050,2,4,,2,16720,4.14988,0.015897,2733.848,250.129,24.9,
1443,1,SBT2050,2,4,,2,16758,4.14985,0.015831,2734.014,250.129,24.9,
1443,1,SBT2050,2,4,,2,16796,4.15019,0.014767,2734.177,250.129,24.9,
1443,1,SBT2050,2,4,,2,16834,4.15011,0.014914,2734.337,250.129,24.9,
1443,1,SBT2050,2,4,,2,16872,4.15008,0.016094,2734.5,250.129,24.9,
1443,1,SBT2050,2,4,,2,16910,4.15012,0.01522,2734.664,250.129,24.9,
1443,1,SBT2050,2,4,,2,16948,4.15004,0.014682,2734.825,250.129,24.9,
1443,1,SBT2050,2,4,,2,16986,4.15003,0.014284,2734.981,250.129,24.9,
1443,1,SBT2050,2,4,,2,17024,4.1501,0.014296,2735.131,250.129,24.9,
1443,1,SBT2050,2,4,,2,17062,4.14975,0.014224,2735.281,250.129,24.9,
1443,1,SBT2050,2,4,,2,17100,4.149968,0.01417,2735.431,250.129,24.9,
1443,1,SBT2050,2,4,,2,17138,4.14984,0.013999,2735.581,250.129,24.9,
1443,1,SBT2050,2,4,,2,17176,4.149932,0.013938,2735.729,250.129,24.9,
1443,1,SBT2050,2,4,,2,17214,4.15018,0.013787,2735.876,250.129,24.9,
1443,1,SBT2050,2,4,,2,17252,4.15003,0.014123,2736.02,250.129,25,
1443,1,SBT2050,2,4,,2,17290,4.15004,0.014645,2736.172,250.129,24.9,
1443,1,SBT2050,2,4,,2,17328,4.14991,0.013192,2736.313,250.129,24.9,
1443,1,SBT2050,2,4,,2,17366,4.15003,0.013103,2736.453,250.129,24.9,
1443,1,SBT2050,2,4,,2,17404,4.14999,0.012922,2736.592,250.129,24.9,
1443,1,SBT2050,2,4,,2,17442,4.149944,0.013024,2736.731,250.129,24.9,
1443,1,SBT2050,2,4,,2,17480,4.15004,0.01325,2736.869,250.129,24.9,
1443,1,SBT2050,2,4,,2,17518,4.15005,0.012904,2737.006,250.129,24.9,
1443,1,SBT2050,2,4,,2,17556,4.15018,0.012526,2737.141,250.129,24.9,
1443,1,SBT2050,2,4,,2,17594,4.1501,0.012635,2737.276,250.129,24.9,
1443,1,SBT2050,2,4,,2,17632,4.14985,0.012895,2737.409,250.129,24.9,
1443,1,SBT2050,2,4,,2,17670,4.15011,0.012783,2737.543,250.129,24.9,
1443,1,SBT2050,2,4,,2,17708,4.149968,0.012933,2737.677,250.129,24.9,
1443,1,SBT2050,2,4,,2,17746,4.14991,0.012575,2737.809,250.129,24.9,
1443,1,SBT2050,2,4,,2,17784,4.149932,0.011502,2737.939,250.129,24.9,
1443,1,SBT2050,2,4,,2,17822,4.14991,0.012203,2738.066,250.129,24.9,
1443,1,SBT2050,2,4,,2,17860,4.1501,0.011851,2738.194,250.129,24.9,
1443,1,SBT2050,2,4,,2,17898,4.150218,0.011739,2738.32,250.129,24.9,
1443,1,SBT2050,2,4,,2,17936,4.149968,0.011818,2738.445,250.129,24.9,
1443,1,SBT2050,2,4,,2,17974,4.15006,0.012842,2738.576,250.129,24.9,
1443,1,SBT2050,2,4,,2,18012,4.149932,0.011839,2738.7,250.129,24.9,
1443,1,SBT2050,2,4,,2,18050,4.15009,0.011696,2738.823,250.129,24.9,
1443,1,SBT2050,2,4,,2,18088,4.14978,0.011366,2738.943,250.129,24.9,
1443,1,SBT2050,2,4,,2,18126,4.15004,0.01148,2739.064,250.129,24.9,
1443,1,SBT2050,2,4,,2,18164,4.15002,0.011276,2739.188,250.129,24.9,
1443,1,SBT2050,2,4,,2,18202,4.149968,0.010767,2739.303,250.129,24.9,
1443,1,SBT2050,2,4,,2,18240,4.15015,0.01148,2739.42,250.129,24.9,
1443,1,SBT2050,2,4,,2,18278,4.15011,0.01092,2739.538,250.129,24.9,
1443,1,SBT2050,2,4,,2,18316,4.149968,0.011631,2739.658,250.129,24.9,
1443,1,SBT2050,2,4,,2,18354,4.14999,0.011593,2739.778,250.129,24.9,
1443,1,SBT2050,2,4,,2,18392,4.14985,0.010832,2739.892,250.129,24.9,
1443,1,SBT2050,2,4,,2,18430,4.14982,0.010518,2740.006,250.129,24.9,
1443,1,SBT2050,2,4,,2,18468,4.149968,0.010732,2740.121,250.129,24.9,
1443,1,SBT2050,2,4,,2,18506,4.15015,0.010685,2740.233,250.129,24.9,
1443,1,SBT2050,2,4,,2,18544,4.15025,0.010811,2740.346,250.129,24.9,
1443,1,SBT2050,2,4,,2,18582,4.15005,0.01038,2740.458,250.129,24.9,
1443,1,SBT2050,2,4,,2,18620,4.14991,0.010457,2740.57,250.129,24.9,
1443,1,SBT2050,2,4,,3,18657,4.14796,0,2740.579,250.129,24.9,
1443,1,SBT2050,2,4,,3,18695,4.14774,0,2740.579,250.129,24.9,
1443,1,SBT2050,2,4,,3,18733,4.14772,0,2740.579,250.129,24.9,
1443,1,SBT2050,2,4,,3,18771,4.14762,0,2740.579,250.129,24.9,
1443,1,SBT2050,2,4,,3,18809,4.14759,0,2740.579,250.129,24.9,
1443,1,SBT2050,2,4,,3,18847,4.14735,0,2740.579,250.129,25,
1443,1,SBT2050,2,4,,3,18885,4.1472,0,2740.579,250.129,24.9,
1443,1,SBT2050,2,4,,3,18923,4.14693,0,2740.579,250.129,24.9,
1443,1,SBT2050,2,4,,3,18961,4.14705,0,2740.579,250.129,25,
1443,1,SBT2050,2,4,,3,18999,4.14678,0,2740.579,250.129,24.9,
1443,1,SBT2050,2,4,,3,19037,4.146766,0,2740.579,250.129,25,
1443,1,SBT2050,2,4,,3,19075,4.14667,0,2740.579,250.129,25,
1443,1,SBT2050,2,4,,3,19113,4.14648,0,2740.579,250.129,25,
1443,1,SBT2050,2,4,,3,19151,4.14668,0,2740.579,250.129,25,
1443,1,SBT2050,2,4,,3,19189,4.14621,0,2740.579,250.129,25,
1443,1,SBT2050,2,4,,3,19227,4.14602,0,2740.579,250.129,25,
1443,1,SBT2050,2,4,,3,19265,4.146296,0,2740.579,250.129,24.9,
1443,1,SBT2050,2,4,,3,19303,4.14606,0,2740.579,250.129,24.9,
1443,1,SBT2050,2,4,,3,19341,4.14575,0,2740.579,250.129,24.9,
1443,1,SBT2050,2,4,,3,19379,4.14592,0,2740.579,250.129,24.9,
1443,1,SBT2050,2,4,,3,19417,4.145928,0,2740.579,250.129,24.9,
1443,1,SBT2050,2,4,,3,19455,4.14568,0,2740.579,250.129,24.9,
1443,1,SBT2050,2,4,,3,19493,4.14615,0,2740.579,250.129,24.9,
1443,1,SBT2050,2,4,,3,19531,4.14561,0,2740.579,250.129,24.9,
1443,1,SBT2050,2,4,,3,19569,4.14552,0,2740.579,250.129,24.9,
1443,1,SBT2050,2,4,,3,19607,4.14598,0,2740.579,250.129,24.9,
1443,1,SBT2050,2,4,,3,19645,4.14552,0,2740.579,250.129,24.9,
1443,1,SBT2050,2,4,,3,19683,4.1455,0,2740.579,250.129,24.9,
1443,1,SBT2050,2,4,,3,19721,4.14562,0,2740.579,250.129,24.9,
1443,1,SBT2050,2,4,,3,19759,4.14534,0,2740.579,250.129,24.9,
1443,1,SBT2050,2,4,,3,19797,4.14522,0,2740.579,250.129,24.9,
1443,1,SBT2050,2,4,,3,19835,4.14522,0,2740.579,250.129,24.9,
1443,1,SBT2050,2,4,,3,19873,4.14526,0,2740.579,250.129,24.9,
1443,1,SBT2050,2,4,,3,19911,4.14519,0,2740.579,250.129,24.9,
1443,1,SBT2050,2,4,,3,19949,4.14512,0,2740.579,250.129,24.9,
1443,1,SBT2050,2,4,,3,19987,4.14531,0,2740.579,250.129,24.9,
1443,1,SBT2050,2,4,,3,20025,4.14508,0,2740.579,250.129,24.9,
1443,1,SBT2050,2,4,,3,20063,4.14517,0,2740.579,250.129,24.9,
1443,1,SBT2050,2,4,,3,20101,4.14513,0,2740.579,250.129,24.9,
1443,1,SBT2050,2,4,,3,20139,4.14505,0,2740.579,250.129,24.9,
1443,1,SBT2050,2,4,,3,20177,4.14489,0,2740.579,250.129,24.9,
1443,1,SBT2050,2,4,,3,20215,4.144978,0,2740.579,250.129,24.9,
1443,1,SBT2050,2,4,,3,20253,4.14475,0,2740.579,250.129,24.9,
1443,1,SBT2050,2,4,,3,20291,4.1452,0,2740.579,250.129,24.9,
1443,1,SBT2050,2,4,,3,20329,4.14505,0,2740.579,250.129,24.9,
1443,1,SBT2050,2,4,,3,20367,4.14454,0,2740.579,250.129,24.9,
1443,1,SBT2050,2,4,,3,20405,4.14473,0,2740.579,250.129,24.9,
1443,1,SBT2050,2,4,,4,20442,3.8679,-2.9359,2740.579,265.439,25,
1443,1,SBT2050,2,4,,4,20480,3.82199,-2.9356,2740.579,296.43,25.4,
1443,1,SBT2050,2,4,,4,20518,3.8013,-2.9356,2740.579,327.42,25.9,
1443,1,SBT2050,2,4,,4,20556,3.790178,-2.9358,2740.579,358.41,26.4,
1443,1,SBT2050,2,4,,4,20594,3.78266,-2.9359,2740.579,389.401,26.7,
1443,1,SBT2050,2,4,,4,20632,3.77627,-2.9357,2740.579,420.391,27,
1443,1,SBT2050,2,4,,4,20670,3.77074,-2.936,2740.579,451.382,27.3,
1443,1,SBT2050,2,4,,4,20708,3.76508,-2.9361,2740.579,482.373,27.6,
1443,1,SBT2050,2,4,,4,20746,3.75931,-2.9361,2740.579,513.363,27.7,
1443,1,SBT2050,2,4,,4,20784,3.75269,-2.9358,2740.579,544.354,27.9,
1443,1,SBT2050,2,4,,4,20822,3.745684,-2.9362,2740.579,575.344,28,
1443,1,SBT2050,2,4,,4,20860,3.7383,-2.9362,2740.579,606.335,28,
1443,1,SBT2050,2,4,,4,20898,3.73031,-2.9358,2740.579,637.326,28.1,
1443,1,SBT2050,2,4,,4,20936,3.722132,-2.9359,2740.579,668.316,28.2,
1443,1,SBT2050,2,4,,4,20974,3.71392,-2.9362,2740.579,699.307,28.2,
1443,1,SBT2050,2,4,,4,21012,3.70473,-2.9361,2740.579,730.297,28.2,
1443,1,SBT2050,2,4,,4,21050,3.69536,-2.9362,2740.579,761.288,28.2,
1443,1,SBT2050,2,4,,4,21088,3.68618,-2.9357,2740.579,792.278,28.2,
1443,1,SBT2050,2,4,,4,21126,3.6767,-2.9361,2740.579,823.269,28.2,
1443,1,SBT2050,2,4,,4,21164,3.66677,-2.9357,2740.579,854.26,28.2,
1443,1,SBT2050,2,4,,4,21202,3.65665,-2.9355,2740.579,885.25,28.2,
1443,1,SBT2050,2,4,,4,21240,3.64688,-2.936,2740.579,916.241,28.1,
1443,1,SBT2050,2,4,,4,21278,3.6367,-2.9359,2740.579,947.231,28.2,
1443,1,SBT2050,2,4,,4,21316,3.626326,-2.9357,2740.579,978.222,28.1,
1443,1,SBT2050,2,4,,4,21354,3.61586,-2.9361,2740.579,1009.212,28.1,
1443,1,SBT2050,2,4,,4,21392,3.60563,-2.9358,2740.579,1040.203,28.1,
1443,1,SBT2050,2,4,,4,21430,3.59483,-2.9359,2740.579,1071.193,28.1,
1443,1,SBT2050,2,4,,4,21468,3.58436,-2.9361,2740.579,1102.184,28.2,
1443,1,SBT2050,2,4,,4,21506,3.5735,-2.936,2740.579,1133.174,28.1,
1443,1,SBT2050,2,4,,4,21544,3.562686,-2.9359,2740.579,1164.165,28.2,
1443,1,SBT2050,2,4,,4,21582,3.551468,-2.936,2740.579,1195.155,28.2,
1443,1,SBT2050,2,4,,4,21620,3.54031,-2.9358,2740.579,1226.146,28.1,
1443,1,SBT2050,2,4,,4,21658,3.52942,-2.936,2740.579,1257.137,28.2,
1443,1,SBT2050,2,4,,4,21696,3.51815,-2.936,2740.579,1288.127,28.2,
1443,1,SBT2050,2,4,,4,21734,3.50709,-2.9359,2740.579,1319.117,28.2,
1443,1,SBT2050,2,4,,4,21772,3.49613,-2.9358,2740.579,1350.108,28.2,
1443,1,SBT2050,2,4,,4,21810,3.48542,-2.9358,2740.579,1381.098,28.3,
1443,1,SBT2050,2,4,,4,21848,3.474168,-2.936,2740.579,1412.089,28.3,
1443,1,SBT2050,2,4,,4,21886,3.46354,-2.936,2740.579,1443.079,28.3,
1443,1,SBT2050,2,4,,4,21924,3.45294,-2.936,2740.579,1474.07,28.3,
1443,1,SBT2050,2,4,,4,21962,3.44204,-2.9356,2740.579,1505.061,28.3,
1443,1,SBT2050,2,4,,4,22000,3.43163,-2.9357,2740.579,1536.051,28.3,
1443,1,SBT2050,2,4,,4,22038,3.42161,-2.9355,2740.579,1567.042,28.3,
1443,1,SBT2050,2,4,,4,22076,3.41143,-2.9361,2740.579,1598.032,28.3,
1443,1,SBT2050,2,4,,4,22114,3.40133,-2.9355,2740.579,1629.022,28.4,
1443,1,SBT2050,2,4,,4,22152,3.39128,-2.9357,2740.579,1660.013,28.4,
1443,1,SBT2050,2,4,,4,22190,3.38146,-2.9363,2740.579,1691.004,28.4,
1443,1,SBT2050,2,4,,4,22228,3.37142,-2.9362,2740.579,1721.994,28.4,
1443,1,SBT2050,2,4,,4,22266,3.36111,-2.9358,2740.579,1752.985,28.4,
1443,1,SBT2050,2,4,,4,22304,3.35088,-2.9362,2740.579,1783.976,28.5,
1443,1,SBT2050,2,4,,4,22342,3.34069,-2.9358,2740.579,1814.966,28.5,
1443,1,SBT2050,2,4,,4,22380,3.33,-2.9359,2740.579,1845.957,28.5,
1443,1,SBT2050,2,4,,4,22418,3.31982,-2.9356,2740.579,1876.947,28.6,
1443,1,SBT2050,2,4,,4,22456,3.30876,-2.9359,2740.579,1907.938,28.7,
1443,1,SBT2050,2,4,,4,22494,3.29777,-2.9362,2740.579,1938.928,28.7,
1443,1,SBT2050,2,4,,4,22532,3.28631,-2.9352,2740.579,1969.919,28.8,
1443,1,SBT2050,2,4,,4,22570,3.27479,-2.9359,2740.579,2000.909,28.8,
1443,1,SBT2050,2,4,,4,22608,3.26269,-2.936,2740.579,2031.9,28.8,
1443,1,SBT2050,2,4,,4,22646,3.249865,-2.9362,2740.579,2062.89,28.9,
1443,1,SBT2050,2,4,,4,22684,3.23654,-2.9358,2740.579,2093.881,29,
1443,1,SBT2050,2,4,,4,22722,3.22265,-2.9358,2740.579,2124.872,29.1,
1443,1,SBT2050,2,4,,4,22760,3.20781,-2.9357,2740.579,2155.862,29.2,
1443,1,SBT2050,2,4,,4,22798,3.1924,-2.9362,2740.579,2186.853,29.3,
1443,1,SBT2050,2,4,,4,22836,3.17604,-2.9364,2740.579,2217.844,29.4,
1443,1,SBT2050,2,4,,4,22874,3.15812,-2.9362,2740.579,2248.834,29.5,
1443,1,SBT2050,2,4,,4,22912,3.139583,-2.9358,2740.579,2279.825,29.7,
1443,1,SBT2050,2,4,,4,22950,3.1195,-2.9362,2740.579,2310.816,29.8,
1443,1,SBT2050,2,4,,4,22988,3.09756,-2.9364,2740.579,2341.806,29.9,
1443,1,SBT2050,2,4,,4,23026,3.07466,-2.9359,2740.579,2372.797,30.1,
1443,1,SBT2050,2,4,,4,23064,3.04961,-2.9359,2740.579,2403.788,30.3,
1443,1,SBT2050,2,4,,4,23102,3.0224,-2.936,2740.579,2434.778,30.5,
1443,1,SBT2050,2,4,,4,23140,2.992663,-2.9358,2740.579,2465.769,30.7,
1443,1,SBT2050,2,4,,4,23178,2.96004,-2.936,2740.579,2496.759,30.9,
1443,1,SBT2050,2,4,,4,23216,2.92304,-2.9359,2740.579,2527.75,31.2,
1443,1,SBT2050,2,4,,4,23254,2.88161,-2.9359,2740.579,2558.74,31.4,
1443,1,SBT2050,2,4,,4,23292,2.83549,-2.9362,2740.579,2589.731,31.8,
1443,1,SBT2050,2,4,,4,23330,2.78307,-2.9359,2740.579,2620.721,32.1,
1443,1,SBT2050,2,4,,4,23368,2.721777,-2.9361,2740.579,2651.712,32.6,
1443,1,SBT2050,2,4,,4,23406,2.64594,-2.9359,2740.579,2682.703,33,
1443,1,SBT2050,2,4,,4,23444,2.5459,-2.9359,2740.579,2713.693,33.6,
1443,1,SBT2050,2,4,,4,23482,2.49981,-2.5455,2740.579,2743.151,34.2,
1443,1,SBT2050,2,4,,4,23520,2.49972,-2.1865,2740.579,2768.029,34.6,
1443,1,SBT2050,2,4,,4,23558,2.49977,-1.8954,2740.579,2789.533,34.7,
1443,1,SBT2050,2,4,,4,23596,2.49976,-1.6472,2740.579,2808.203,34.5,
1443,1,SBT2050,2,4,,4,23634,2.49986,-1.4333,2740.579,2824.435,34.2,
1443,1,SBT2050,2,4,,4,23672,2.49971,-1.2498,2740.579,2838.572,33.8,
1443,1,SBT2050,2,4,,4,23710,2.49976,-1.0953,2740.579,2850.935,33.4,
1443,1,SBT2050,2,4,,4,23748,2.49965,-0.9642,2740.579,2861.788,32.8,
1443,1,SBT2050,2,4,,4,23786,2.49981,-0.8513,2740.579,2871.356,32.2,
1443,1,SBT2050,2,4,,4,23824,2.49997,-0.7566,2740.579,2879.832,31.8,
1443,1,SBT2050,2,4,,4,23862,2.49974,-0.674,2740.579,2887.369,31.2,
1443,1,SBT2050,2,4,,4,23900,2.49984,-0.6044,2740.579,2894.106,30.7,
1443,1,SBT2050,2,4,,4,23938,2.499891,-0.5453,2740.579,2900.167,30.2,
1443,1,SBT2050,2,4,,4,23976,2.49993,-0.4949,2740.579,2905.651,29.8,
1443,1,SBT2050,2,4,,4,24014,2.50007,-0.45174,2740.579,2910.639,29.4,
1443,1,SBT2050,2,4,,4,24052,2.49986,-0.41616,2740.579,2915.212,29,
1443,1,SBT2050,2,4,,4,24090,2.49984,-0.38461,2740.579,2919.434,28.7,
1443,1,SBT2050,2,4,,4,24128,2.49984,-0.3582,2740.579,2923.353,28.4,
1443,1,SBT2050,2,4,,4,24166,2.49997,-0.33483,2740.579,2927.007,28,
1443,1,SBT2050,2,4,,4,24204,2.49978,-0.31413,2740.579,2930.431,27.9,
1443,1,SBT2050,2,4,,4,24242,2.49971,-0.29629,2740.579,2933.65,27.6,
1443,1,SBT2050,2,4,,4,24280,2.49984,-0.27941,2740.579,2936.688,27.4,
1443,1,SBT2050,2,4,,4,24318,2.49983,-0.26422,2740.579,2939.556,27.2,
1443,1,SBT2050,2,4,,4,24356,2.500058,-0.25021,2740.579,2942.268,27.1,
1443,1,SBT2050,2,4,,4,24394,2.49996,-0.23669,2740.579,2944.837,26.9,
1443,1,SBT2050,2,4,,4,24432,2.49995,-0.22452,2740.579,2947.271,26.8,
1443,1,SBT2050,2,4,,4,24470,2.49991,-0.21272,2740.579,2949.578,26.6,
1443,1,SBT2050,2,4,,4,24508,2.49993,-0.20171,2740.579,2951.768,26.5,
1443,1,SBT2050,2,4,,4,24546,2.49984,-0.19175,2740.579,2953.847,26.4,
1443,1,SBT2050,2,4,,4,24584,2.49995,-0.18224,2740.579,2955.82,26.3,
1443,1,SBT2050,2,4,,4,24622,2.49987,-0.1729,2740.579,2957.695,26.2,
1443,1,SBT2050,2,4,,4,24660,2.499748,-0.16432,2740.579,2959.475,26.1,
1443,1,SBT2050,2,4,,4,24698,2.49988,-0.15591,2740.579,2961.164,26,
1443,1,SBT2050,2,4,,4,24736,2.499903,-0.1481,2740.579,2962.768,26,
1443,1,SBT2050,2,4,,4,24774,2.49997,-0.14031,2740.579,2964.289,25.9,
1443,1,SBT2050,2,4,,4,24812,2.5,-0.13325,2740.579,2965.732,25.9,
1443,1,SBT2050,2,4,,4,24850,2.499903,-0.12625,2740.579,2967.101,25.8,
1443,1,SBT2050,2,4,,4,24888,2.4998,-0.11979,2740.579,2968.4,25.7,
1443,1,SBT2050,2,4,,4,24926,2.49987,-0.11368,2740.579,2969.632,25.7,
1443,1,SBT2050,2,4,,4,24964,2.50007,-0.10783,2740.579,2970.8,25.6,
1443,1,SBT2050,2,4,,4,25002,2.49996,-0.1023,2740.579,2971.909,25.6,
1443,1,SBT2050,2,4,,4,25040,2.49984,-0.09715,2740.579,2972.962,25.6,
1443,1,SBT2050,2,4,,4,25078,2.500058,-0.09248,2740.579,2973.963,25.5,
1443,1,SBT2050,2,4,,4,25116,2.5,-0.08778,2740.579,2974.914,25.5,
1443,1,SBT2050,2,4,,4,25154,2.499903,-0.0834,2740.579,2975.817,25.4,
1443,1,SBT2050,2,4,,4,25192,2.49983,-0.07902,2740.579,2976.675,25.4,
1443,1,SBT2050,2,4,,4,25230,2.50001,-0.07506,2740.579,2977.489,25.3,
1443,1,SBT2050,2,4,,4,25268,2.50007,-0.07121,2740.579,2978.26,25.3,
1443,1,SBT2050,2,4,,4,25306,2.50014,-0.0678,2740.579,2978.993,25.3,
1443,1,SBT2050,2,4,,4,25344,2.49997,-0.0642,2740.579,2979.688,25.3,
1443,1,SBT2050,2,4,,4,25382,2.500034,-0.06076,2740.579,2980.348,25.3,
1443,1,SBT2050,2,4,,4,25420,2.49999,-0.05765,2740.579,2980.973,25.2,
1443,1,SBT2050,2,4,,4,25458,2.49996,-0.0546,2740.579,2981.565,25.2,
1443,1,SBT2050,2,4,,4,25496,2.50011,-0.05178,2740.579,2982.125,25.2,
1443,1,SBT2050,2,4,,4,25534,2.49993,-0.04916,2740.579,2982.656,25.1,
1443,1,SBT2050,2,4,,4,25572,2.50008,-0.046186,2740.579,2983.159,25.2,
1443,1,SBT2050,2,4,,4,25610,2.49996,-0.043725,2740.579,2983.634,25.2,
1443,1,SBT2050,2,4,,4,25648,2.49997,-0.041458,2740.579,2984.083,25.2,
1443,1,SBT2050,2,4,,4,25686,2.49997,-0.039283,2740.579,2984.509,25.2,
1443,1,SBT2050,2,4,,4,25724,2.49984,-0.037076,2740.579,2984.912,25.2,
1443,1,SBT2050,2,4,,4,25762,2.499903,-0.035311,2740.579,2985.293,25.2,
1443,1,SBT2050,2,4,,4,25800,2.4998,-0.033148,2740.579,2985.654,25.2,
1443,1,SBT2050,2,4,,4,25838,2.50001,-0.031613,2740.579,2985.996,25.2,
1443,1,SBT2050,2,4,,4,25876,2.49972,-0.029767,2740.579,2986.321,25.2,
1443,1,SBT2050,2,4,,4,25914,2.500046,-0.028336,2740.579,2986.628,25.2,
1443,1,SBT2050,2,4,,4,25952,2.50011,-0.027009,2740.579,2986.92,25.2,
1443,1,SBT2050,2,4,,4,25990,2.500034,-0.02563,2740.579,2987.197,25.2,
1443,1,SBT2050,2,4,,4,26028,2.50002,-0.024268,2740.579,2987.459,25.2,
1443,1,SBT2050,2,4,,4,26066,2.49994,-0.022908,2740.579,2987.708,25.2,
1443,1,SBT2050,2,4,,4,26104,2.50007,-0.021879,2740.579,2987.945,25.3,
1443,1,SBT2050,2,4,,4,26142,2.49995,-0.020622,2740.579,2988.169,25.3,
1443,1,SBT2050,2,4,,4,26180,2.500201,-0.019703,2740.579,2988.382,25.3,
1443,1,SBT2050,2,4,,4,26218,2.50001,-0.018639,2740.579,2988.584,25.3,
1443,1,SBT2050,2,4,,4,26256,2.500034,-0.01764,2740.579,2988.775,25.3,
1443,1,SBT2050,2,4,,4,26294,2.499891,-0.016871,2740.579,2988.958,25.3,
1443,1,SBT2050,2,4,,4,26332,2.500058,-0.015989,2740.579,2989.131,25.3,
1443,1,SBT2050,2,4,,4,26370,2.49987,-0.015234,2740.579,2989.296,25.3,
1443,1,SBT2050,2,4,,4,26408,2.49996,-0.014589,2740.579,2989.453,25.3,
1443,1,SBT2050,2,4,,4,26446,2.499903,-0.013741,2740.579,2989.603,25.3,
1443,1,SBT2050,2,4,,4,26484,2.500034,-0.013332,2740.579,2989.746,25.3,
1443,1,SBT2050,2,4,,4,26522,2.4998,-0.012774,2740.579,2989.883,25.3,
1443,1,SBT2050,2,4,,4,26560,2.50021,-0.012308,2740.579,2990.015,25.3,
1443,1,SBT2050,2,4,,4,26598,2.5,-0.011812,2740.579,2990.141,25.2,
1443,1,SBT2050,2,4,,4,26636,2.49994,-0.011292,2740.579,2990.263,25.2,
1443,1,SBT2050,2,4,,4,26674,2.49997,-0.010984,2740.579,2990.381,25.2,
1443,1,SBT2050,2,4,,4,26712,2.49995,-0.010562,2740.579,2990.494,25.2,
1443,1,SBT2050,2,4,,4,26750,2.50008,-0.010274,2740.579,2990.605,25.2,
1443,1,SBT2050,2,4,,5,26787,2.515724,0,2740.579,2990.657,25.1,
1443,1,SBT2050,2,4,,5,26825,2.53676,0,2740.579,2990.657,25.1,
1443,1,SBT2050,2,4,,5,26863,2.55472,0,2740.579,2990.657,25.1,
1443,1,SBT2050,2,4,,5,26901,2.57078,0,2740.579,2990.657,25,
1443,1,SBT2050,2,4,,5,26939,2.58516,0,2740.579,2990.657,25,
1443,1,SBT2050,2,4,,5,26977,2.598884,0,2740.579,2990.657,25,
1443,1,SBT2050,2,4,,5,27015,2.61148,0,2740.579,2990.657,25,
1443,1,SBT2050,2,4,,5,27053,2.62268,0,2740.579,2990.657,24.9,
1443,1,SBT2050,2,4,,5,27091,2.63344,0,2740.579,2990.657,24.9,
1443,1,SBT2050,2,4,,5,27129,2.64336,0,2740.579,2990.657,24.9,
1443,1,SBT2050,2,4,,5,27167,2.652365,0,2740.579,2990.657,24.9,
1443,1,SBT2050,2,4,,5,27205,2.66085,0,2740.579,2990.657,24.9,
1443,1,SBT2050,2,4,,5,27243,2.66868,0,2740.579,2990.657,24.9,
1443,1,SBT2050,2,4,,5,27281,2.67617,0,2740.579,2990.657,24.9,
1443,1,SBT2050,2,4,,5,27319,2.682985,0,2740.579,2990.657,24.9,
1443,1,SBT2050,2,4,,5,27357,2.68938,0,2740.579,2990.657,24.9,
1443,1,SBT2050,2,4,,5,27395,2.69546,0,2740.579,2990.657,24.9,
1443,1,SBT2050,2,4,,5,27433,2.701055,0,2740.579,2990.657,24.9,
1443,1,SBT2050,2,4,,5,27471,2.70635,0,2740.579,2990.657,24.8,
1443,1,SBT2050,2,4,,5,27509,2.71154,0,2740.579,2990.657,24.8,
1443,1,SBT2050,2,4,,5,27547,2.7161,0,2740.579,2990.657,24.9,
1443,1,SBT2050,2,4,,5,27585,2.72073,0,2740.579,2990.657,24.8,
1443,1,SBT2050,2,4,,5,27623,2.724965,0,2740.579,2990.657,24.8,
1443,1,SBT2050,2,4,,5,27661,2.729,0,2740.579,2990.657,24.8,
1443,1,SBT2050,2,4,,5,27699,2.73322,0,2740.579,2990.657,24.8,
1443,1,SBT2050,2,4,,5,27737,2.73658,0,2740.579,2990.657,24.8,
1443,1,SBT2050,2,4,,5,27775,2.73998,0,2740.579,2990.657,24.8,
1443,1,SBT2050,2,4,,5,27813,2.74351,0,2740.579,2990.657,24.8,
1443,1,SBT2050,2,4,,5,27851,2.7469,0,2740.579,2990.657,24.8,
1443,1,SBT2050,2,4,,5,27889,2.74947,0,2740.579,2990.657,24.8,
1443,1,SBT2050,2,4,,5,27927,2.752405,0,2740.579,2990.657,24.8,
1443,1,SBT2050,2,4,,5,27965,2.75507,0,2740.579,2990.657,24.8,
1443,1,SBT2050,2,4,,5,28003,2.75798,0,2740.579,2990.657,24.8,
1443,1,SBT2050,2,4,,5,28041,2.76042,0,2740.579,2990.657,24.8,
1443,1,SBT2050,2,4,,5,28079,2.76255,0,2740.579,2990.657,24.8,
1443,1,SBT2050,2,4,,5,28117,2.76518,0,2740.579,2990.657,24.8,
1443,1,SBT2050,2,4,,5,28155,2.76727,0,2740.579,2990.657,24.8,
1443,1,SBT2050,2,4,,5,28193,2.76938,0,2740.579,2990.657,24.8,
1443,1,SBT2050,2,4,,5,28231,2.77138,0,2740.579,2990.657,24.8,
1443,1,SBT2050,2,4,,5,28269,2.77335,0,2740.579,2990.657,24.8,
1443,1,SBT2050,2,4,,5,28307,2.77528,0,2740.579,2990.657,24.8,
1443,1,SBT2050,2,4,,5,28345,2.77707,0,2740.579,2990.657,24.8,
1443,1,SBT2050,2,4,,5,28383,2.77883,0,2740.579,2990.657,24.8,
1443,1,SBT2050,2,4,,5,28421,2.78062,0,2740.579,2990.657,24.8,
1443,1,SBT2050,2,4,,5,28459,2.78234,0,2740.579,2990.657,24.9,
1443,1,SBT2050,2,4,,5,28497,2.784026,0,2740.579,2990.657,24.9,
1443,1,SBT2050,2,4,,5,28535,2.78556,0,2740.579,2990.657,24.9,
1443,1,SBT2050,2,4,,5,28568.442,2.7869,-9.9E-05,2740.579,2990.657,,